Seq, Rot x, Rot y, Rot z, Vel x, Vel y, Vel z, Acc x, Acc y, Acc z, Time(m.d.y h:m:s.ms)
0, 1.62533, 359.884, 87.7542, -0.000976562, -0.000976562, 0, 0.0488281, 0.277344, -9.70801, 1.18.2022 20:12:14.258
1, 1.62533, 359.884, 87.7542, 0, -0.000976562, 0, 0.0410156, 0.261719, -9.73926, 1.18.2022 20:12:14.263
2, 1.62533, 359.884, 87.7542, 0, -0.000976562, 0, -0.0234375, 0.304688, -9.72754, 1.18.2022 20:12:14.271
3, 1.62533, 359.884, 87.7542, -0.000976562, -0.000976562, 0, 0.0869141, 0.265625, -9.71582, 1.18.2022 20:12:14.279
4, 1.63037, 359.889, 87.7541, -0.000976562, -0.000976562, 0, -0.00976562, 0.259766, -9.76172, 1.18.2022 20:12:14.287
5, 1.63037, 359.889, 87.7541, -0.000976562, 0, 0, 0, 0.279297, -9.75195, 1.18.2022 20:12:14.295
6, 1.63037, 359.889, 87.7541, -0.000976562, 0, -0.00195312, 0.0595703, 0.256836, -9.75098, 1.18.2022 20:12:14.303
7, 1.63037, 359.889, 87.7541, 0, 0, -0.00195312, -0.0214844, 0.274414, -9.77539, 1.18.2022 20:12:14.311
8, 1.63037, 359.889, 87.7541, -0.000976562, -0.000976562, 0, 0.0283203, 0.268555, -9.74316, 1.18.2022 20:12:14.319
9, 1.63037, 359.889, 87.7541, 0, 0, 0, 0.0341797, 0.262695, -9.69141, 1.18.2022 20:12:14.327
10, 1.63037, 359.889, 87.7541, -0.000976562, 0.000976562, 0, -0.0234375, 0.291992, -9.70898, 1.18.2022 20:12:14.335
11, 1.63521, 359.884, 87.7541, -0.00195312, -0.000976562, 0, 0.0927734, 0.269531, -9.77246, 1.18.2022 20:12:14.343
12, 1.63521, 359.884, 87.7541, 0, 0, 0.000976562, 0.0244141, 0.268555, -9.73145, 1.18.2022 20:12:14.351
13, 1.63521, 359.884, 87.7541, 0, 0, 0, 0.0078125, 0.306641, -9.72949, 1.18.2022 20:12:14.359
14, 1.63521, 359.884, 87.7541, 0, 0, 0, 0.0605469, 0.272461, -9.71289, 1.18.2022 20:12:14.367
15, 1.63521, 359.884, 87.7541, -0.000976562, -0.000976562, 0, -0.00683594, 0.305664, -9.75781, 1.18.2022 20:12:14.375
16, 1.63521, 359.884, 87.7541, -0.000976562, -0.000976562, 0, -0.0136719, 0.270508, -9.7207, 1.18.2022 20:12:14.383
17, 1.63521, 359.884, 87.7541, -0.000976562, -0.000976562, 0.00195312, 0.0449219, 0.25293, -9.76758, 1.18.2022 20:12:14.391
18, 1.63521, 359.884, 87.7541, -0.00195312, -0.000976562, 0, -0.0292969, 0.291016, -9.76953, 1.18.2022 20:12:14.399
19, 1.63521, 359.884, 87.7541, -0.000976562, -0.000976562, -0.00195312, 0.0458984, 0.28125, -9.74512, 1.18.2022 20:12:14.407
20, 1.63521, 359.884, 87.7541, -0.000976562, 0, 0, 0.0214844, 0.276367, -9.7334, 1.18.2022 20:12:14.415
21, 1.63521, 359.884, 87.7541, -0.000976562, -0.000976562, 0, -0.00292969, 0.302734, -9.76562, 1.18.2022 20:12:14.423
22, 1.63521, 359.884, 87.7541, -0.000976562, 0, 0, 0.0732422, 0.258789, -9.79102, 1.18.2022 20:12:14.431
23, 1.63521, 359.884, 87.7541, -0.000976562, 0, 0.000976562, -0.00195312, 0.27832, -9.74219, 1.18.2022 20:12:14.439
24, 1.64006, 359.879, 87.7541, -0.000976562, 0, 0, 0.00878906, 0.25293, -9.78125, 1.18.2022 20:12:14.447
25, 1.64006, 359.879, 87.7541, -0.000976562, 0, 0, 0.0576172, 0.292969, -9.74512, 1.18.2022 20:12:14.455
26, 1.64006, 359.879, 87.7541, -0.000976562, 0, -0.00195312, -0.0664062, 0.271484, -9.72949, 1.18.2022 20:12:14.463
27, 1.64006, 359.879, 87.7541, -0.000976562, -0.000976562, 0, 0.0478516, 0.263672, -9.73633, 1.18.2022 20:12:14.471
28, 1.64006, 359.879, 87.7541, -0.000976562, -0.000976562, 0, 0.0107422, 0.287109, -9.79395, 1.18.2022 20:12:14.479
29, 1.64006, 359.879, 87.7541, -0.000976562, -0.000976562, -0.00195312, -0.0244141, 0.271484, -9.75879, 1.18.2022 20:12:14.487
30, 1.64006, 359.879, 87.7541, -0.00195312, -0.000976562, 0, 0.0712891, 0.259766, -9.74219, 1.18.2022 20:12:14.495
31, 1.64006, 359.879, 87.7541, -0.000976562, -0.000976562, 0, 0.0166016, 0.25, -9.7627, 1.18.2022 20:12:14.503
32, 1.64006, 359.879, 87.7541, -0.000976562, -0.000976562, 0, 0.0166016, 0.273438, -9.73828, 1.18.2022 20:12:14.511
33, 1.64006, 359.879, 87.7541, -0.000976562, -0.000976562, 0, 0.0888672, 0.256836, -9.73047, 1.18.2022 20:12:14.519
34, 1.64006, 359.879, 87.7541, -0.000976562, -0.000976562, -0.00195312, -0.00683594, 0.264648, -9.74023, 1.18.2022 20:12:14.527
35, 1.63521, 359.884, 87.7541, -0.000976562, -0.000976562, 0, 0.0244141, 0.275391, -9.70703, 1.18.2022 20:12:14.535
36, 1.63521, 359.884, 87.7541, 0, 0, -0.00195312, 0.0244141, 0.240234, -9.73926, 1.18.2022 20:12:14.543
37, 1.63521, 359.884, 87.7541, -0.000976562, -0.000976562, 0, -0.00878906, 0.272461, -9.70898, 1.18.2022 20:12:14.551
38, 1.63544, 359.884, 87.764, -0.000976562, -0.000976562, -0.00195312, 0.104492, 0.249023, -9.79688, 1.18.2022 20:12:14.559
39, 1.63544, 359.884, 87.764, -0.000976562, -0.00195312, 0.000976562, 0.0146484, 0.288086, -9.72559, 1.18.2022 20:12:14.567
40, 1.63521, 359.884, 87.7541, -0.000976562, -0.000976562, 0.000976562, 0.0136719, 0.289062, -9.76855, 1.18.2022 20:12:14.575
41, 1.63017, 359.879, 87.7543, -0.000976562, -0.000976562, 0, 0.0810547, 0.242188, -9.72559, 1.18.2022 20:12:14.583
42, 1.63017, 359.879, 87.7543, -0.000976562, -0.000976562, 0, -0.0527344, 0.27832, -9.74121, 1.18.2022 20:12:14.591
43, 1.63017, 359.879, 87.7543, 0, 0, 0, 0.0214844, 0.266602, -9.72852, 1.18.2022 20:12:14.599
44, 1.63017, 359.879, 87.7543, -0.000976562, -0.000976562, -0.00195312, 0.0244141, 0.287109, -9.71387, 1.18.2022 20:12:14.607
45, 1.63017, 359.879, 87.7543, -0.000976562, -0.000976562, 0, -0.00878906, 0.285156, -9.73535, 1.18.2022 20:12:14.615
46, 1.62514, 359.874, 87.7544, 0, -0.000976562, 0, 0.0810547, 0.248047, -9.76562, 1.18.2022 20:12:14.623
47, 1.62514, 359.874, 87.7544, -0.000976562, 0, 0, 0.0263672, 0.274414, -9.75195, 1.18.2022 20:12:14.631
48, 1.62514, 359.874, 87.7544, -0.000976562, -0.000976562, 0, 0.0117188, 0.269531, -9.7666, 1.18.2022 20:12:14.639
49, 1.62514, 359.874, 87.7544, 0.000976562, 0, 0, 0.0859375, 0.292969, -9.74805, 1.18.2022 20:12:14.647
50, 1.62514, 359.874, 87.7544, 0.000976562, 0, 0, 0.0136719, 0.303711, -9.77051, 1.18.2022 20:12:14.655
51, 1.6201, 359.869, 87.7545, -0.000976562, 0, 0, 0.0332031, 0.28418, -9.7666, 1.18.2022 20:12:14.663
52, 1.6201, 359.869, 87.7545, -0.000976562, 0, 0, 0.0595703, 0.258789, -9.72949, 1.18.2022 20:12:14.671
53, 1.6201, 359.869, 87.7545, -0.000976562, -0.000976562, 0, -0.0283203, 0.283203, -9.73438, 1.18.2022 20:12:14.679
54, 1.6201, 359.869, 87.7545, 0.000976562, 0, 0, 0.0693359, 0.283203, -9.73145, 1.18.2022 20:12:14.687
55, 1.61506, 359.864, 87.7546, 0.000976562, -0.000976562, 0, 0.03125, 0.295898, -9.74707, 1.18.2022 20:12:14.695
56, 1.61506, 359.864, 87.7546, -0.000976562, 0, 0, -0.00195312, 0.296875, -9.72559, 1.18.2022 20:12:14.703
57, 1.61506, 359.864, 87.7546, 0.000976562, 0, 0.000976562, 0.0761719, 0.25, -9.75879, 1.18.2022 20:12:14.711
58, 1.61506, 359.864, 87.7546, 0.000976562, -0.000976562, 0, 0.0380859, 0.273438, -9.7334, 1.18.2022 20:12:14.719
59, 1.61506, 359.864, 87.7546, 0.000976562, -0.000976562, -0.00195312, 0.0136719, 0.274414, -9.77148, 1.18.2022 20:12:14.727
60, 1.61002, 359.86, 87.7548, 0.000976562, -0.000976562, -0.00195312, 0.0644531, 0.283203, -9.73145, 1.18.2022 20:12:14.735
61, 1.61486, 359.855, 87.7548, 0.000976562, -0.000976562, -0.00195312, -0.0283203, 0.306641, -9.73438, 1.18.2022 20:12:14.743
62, 1.61486, 359.855, 87.7548, -0.000976562, 0, -0.000976562, 0.0341797, 0.255859, -9.70801, 1.18.2022 20:12:14.751
63, 1.61508, 359.855, 87.7647, -0.000976562, -0.000976562, 0, 0.0263672, 0.266602, -9.75, 1.18.2022 20:12:14.759
64, 1.61486, 359.855, 87.7548, 0.000976562, -0.000976562, 0.000976562, -0.0195312, 0.31543, -9.76953, 1.18.2022 20:12:14.767
65, 1.61486, 359.855, 87.7548, -0.000976562, -0.000976562, 0.000976562, 0.0791016, 0.24707, -9.74023, 1.18.2022 20:12:14.775
66, 1.61486, 359.855, 87.7548, 0.000976562, 0, 0.000976562, 0.0146484, 0.271484, -9.74707, 1.18.2022 20:12:14.783
67, 1.61486, 359.855, 87.7548, -0.000976562, 0, 0, -0.00976562, 0.286133, -9.74219, 1.18.2022 20:12:14.791
68, 1.61467, 359.845, 87.7549, -0.000976562, 0, 0, 0.0546875, 0.274414, -9.75781, 1.18.2022 20:12:14.799
69, 1.61467, 359.845, 87.7549, 0.000976562, 0, 0, -0.0380859, 0.307617, -9.73633, 1.18.2022 20:12:14.807
70, 1.61467, 359.845, 87.7549, -0.000976562, 0, 0, -0.00390625, 0.27832, -9.71875, 1.18.2022 20:12:14.815
71, 1.61467, 359.845, 87.7549, -0.00195312, 0, 0.000976562, 0.0449219, 0.286133, -9.76855, 1.18.2022 20:12:14.823
72, 1.61467, 359.845, 87.7549, -0.000976562, -0.000976562, 0, -0.0214844, 0.290039, -9.73438, 1.18.2022 20:12:14.831
73, 1.61467, 359.845, 87.7549, 0.000976562, -0.000976562, 0.000976562, 0.0429688, 0.256836, -9.73438, 1.18.2022 20:12:14.839
74, 1.61467, 359.845, 87.7549, 0.000976562, 0, 0, 0.0166016, 0.28418, -9.75684, 1.18.2022 20:12:14.847
75, 1.61971, 359.85, 87.7548, -0.000976562, 0, 0, 0.0166016, 0.291016, -9.76367, 1.18.2022 20:12:14.855
76, 1.61971, 359.85, 87.7548, -0.000976562, 0, 0, 0.0908203, 0.261719, -9.74414, 1.18.2022 20:12:14.863
77, 1.61971, 359.85, 87.7548, -0.000976562, -0.000976562, 0, -0.0361328, 0.291016, -9.75293, 1.18.2022 20:12:14.871
78, 1.61971, 359.85, 87.7548, -0.000976562, -0.000976562, 0, 0.000976562, 0.265625, -9.69824, 1.18.2022 20:12:14.879
79, 1.62455, 359.844, 87.7548, -0.000976562, -0.000976562, 0, 0.0410156, 0.258789, -9.72754, 1.18.2022 20:12:14.887
80, 1.62455, 359.844, 87.7548, -0.000976562, 0, -0.000976562, 0.0273438, 0.290039, -9.71387, 1.18.2022 20:12:14.895
81, 1.62455, 359.844, 87.7548, -0.000976562, 0, -0.000976562, 0.0605469, 0.301758, -9.72363, 1.18.2022 20:12:14.903
82, 1.62455, 359.844, 87.7548, -0.000976562, -0.000976562, -0.00195312, 0.0078125, 0.290039, -9.74023, 1.18.2022 20:12:14.911
83, 1.62455, 359.844, 87.7548, -0.000976562, -0.000976562, -0.000976562, -0.015625, 0.3125, -9.68457, 1.18.2022 20:12:14.919
84, 1.62959, 359.849, 87.7546, -0.000976562, -0.000976562, -0.000976562, 0.0751953, 0.279297, -9.69434, 1.18.2022 20:12:14.927
85, 1.62959, 359.849, 87.7546, -0.000976562, 0, -0.000976562, -0.00976562, 0.276367, -9.75684, 1.18.2022 20:12:14.935
86, 1.62959, 359.849, 87.7546, -0.000976562, 0.000976562, 0.000976562, 0.0380859, 0.25293, -9.75586, 1.18.2022 20:12:14.943
87, 1.62959, 359.849, 87.7546, 0, -0.000976562, -0.000976562, 0.0595703, 0.238281, -9.76367, 1.18.2022 20:12:14.951
88, 1.62959, 359.849, 87.7546, -0.000976562, -0.000976562, -0.000976562, -0.046875, 0.285156, -9.72949, 1.18.2022 20:12:14.959
89, 1.62959, 359.849, 87.7546, -0.000976562, -0.000976562, -0.000976562, 0.0478516, 0.259766, -9.76953, 1.18.2022 20:12:14.967
90, 1.62959, 359.849, 87.7546, -0.000976562, -0.000976562, 0.000976562, 0.0429688, 0.264648, -9.75977, 1.18.2022 20:12:14.975
91, 1.63463, 359.854, 87.7545, 0, -0.000976562, -0.000976562, -0.00878906, 0.308594, -9.71973, 1.18.2022 20:12:14.983
92, 1.63463, 359.854, 87.7545, 0, -0.000976562, 0, 0.0429688, 0.251953, -9.73633, 1.18.2022 20:12:14.991
93, 1.63463, 359.854, 87.7545, 0, -0.000976562, -0.000976562, 0.0429688, 0.292969, -9.7334, 1.18.2022 20:12:14.999
94, 1.63463, 359.854, 87.7545, -0.000976562, -0.000976562, -0.000976562, 0.0146484, 0.30957, -9.73242, 1.18.2022 20:12:15.007
95, 1.63463, 359.854, 87.7545, 0, 0, -0.000976562, 0.0830078, 0.260742, -9.80078, 1.18.2022 20:12:15.015
96, 1.63463, 359.854, 87.7545, -0.000976562, 0, -0.00195312, 0.0146484, 0.293945, -9.70898, 1.18.2022 20:12:15.023
97, 1.63463, 359.854, 87.7545, -0.000976562, -0.000976562, -0.00195312, 0.0400391, 0.28418, -9.7832, 1.18.2022 20:12:15.031
98, 1.63463, 359.854, 87.7545, -0.00195312, 0, -0.00195312, 0.0625, 0.266602, -9.74121, 1.18.2022 20:12:15.039
99, 1.63463, 359.854, 87.7545, -0.00195312, 0, -0.000976562, -0.0351562, 0.286133, -9.73926, 1.18.2022 20:12:15.047
100, 1.63463, 359.854, 87.7545, 0, 0, -0.000976562, 0.0693359, 0.256836, -9.7373, 1.18.2022 20:12:15.055
101, 1.63948, 359.849, 87.7545, -0.000976562, 0, -0.000976562, 0.0214844, 0.256836, -9.73828, 1.18.2022 20:12:15.063
102, 1.63948, 359.849, 87.7545, 0, -0.000976562, -0.000976562, 0.0273438, 0.255859, -9.71289, 1.18.2022 20:12:15.071
103, 1.63948, 359.849, 87.7545, -0.000976562, -0.000976562, -0.000976562, 0.0761719, 0.243164, -9.76855, 1.18.2022 20:12:15.079
104, 1.63948, 359.849, 87.7545, -0.000976562, -0.000976562, -0.000976562, -0.00878906, 0.24707, -9.72461, 1.18.2022 20:12:15.087
105, 1.63948, 359.849, 87.7545, 0, -0.000976562, -0.000976562, 0.0078125, 0.311523, -9.72461, 1.18.2022 20:12:15.095
106, 1.63948, 359.849, 87.7545, -0.000976562, -0.000976562, -0.000976562, 0.0380859, 0.25, -9.75586, 1.18.2022 20:12:15.103
107, 1.63444, 359.844, 87.7547, -0.000976562, -0.000976562, 0.000976562, -0.0263672, 0.286133, -9.73926, 1.18.2022 20:12:15.111
108, 1.63444, 359.844, 87.7547, -0.000976562, 0, -0.000976562, 0.0615234, 0.267578, -9.76758, 1.18.2022 20:12:15.119
109, 1.63444, 359.844, 87.7547, -0.000976562, 0, -0.000976562, 0.00292969, 0.255859, -9.7168, 1.18.2022 20:12:15.127
110, 1.63444, 359.844, 87.7547, -0.000976562, 0, -0.000976562, -0.0273438, 0.293945, -9.69434, 1.18.2022 20:12:15.133
111, 1.63444, 359.844, 87.7547, -0.000976562, 0, -0.000976562, 0.0527344, 0.254883, -9.75098, 1.18.2022 20:12:15.141
112, 1.63444, 359.844, 87.7547, 0, -0.000976562, 0.000976562, -0.0302734, 0.299805, -9.73633, 1.18.2022 20:12:15.151
113, 1.62959, 359.849, 87.7546, -0.000976562, -0.000976562, -0.000976562, 0.0146484, 0.301758, -9.71875, 1.18.2022 20:12:15.157
114, 1.62959, 359.849, 87.7546, 0, -0.000976562, -0.000976562, 0.0449219, 0.269531, -9.75293, 1.18.2022 20:12:15.165
115, 1.62959, 359.849, 87.7546, -0.000976562, -0.000976562, -0.000976562, -0.0273438, 0.308594, -9.69824, 1.18.2022 20:12:15.173
116, 1.62959, 359.849, 87.7546, 0, -0.000976562, -0.000976562, 0.0527344, 0.276367, -9.75488, 1.18.2022 20:12:15.181
117, 1.62959, 359.849, 87.7546, -0.000976562, 0, -0.000976562, 0.0546875, 0.251953, -9.74609, 1.18.2022 20:12:15.189
118, 1.62959, 359.849, 87.7546, -0.000976562, 0, -0.000976562, 0.00195312, 0.265625, -9.78809, 1.18.2022 20:12:15.197
119, 1.62959, 359.849, 87.7546, -0.000976562, -0.000976562, -0.000976562, 0.0527344, 0.263672, -9.74121, 1.18.2022 20:12:15.205
120, 1.62959, 359.849, 87.7546, -0.000976562, -0.000976562, -0.00195312, -0.0117188, 0.269531, -9.74512, 1.18.2022 20:12:15.213
121, 1.62959, 359.849, 87.7546, 0, 0, -0.000976562, -0.00976562, 0.30957, -9.74805, 1.18.2022 20:12:15.221
122, 1.62959, 359.849, 87.7546, -0.000976562, 0, -0.000976562, 0.0771484, 0.251953, -9.7207, 1.18.2022 20:12:15.229
123, 1.62959, 359.849, 87.7546, -0.000976562, 0, 0.000976562, -0.0107422, 0.272461, -9.69043, 1.18.2022 20:12:15.237
124, 1.62475, 359.854, 87.7546, 0, 0, 0.000976562, 0.0332031, 0.286133, -9.75195, 1.18.2022 20:12:15.245
125, 1.62475, 359.854, 87.7546, 0, -0.000976562, -0.00195312, 0.0361328, 0.24707, -9.7207, 1.18.2022 20:12:15.253
126, 1.62475, 359.854, 87.7546, -0.000976562, 0, -0.00195312, -0.0185547, 0.28125, -9.74414, 1.18.2022 20:12:15.261
127, 1.62475, 359.854, 87.7546, -0.000976562, 0, -0.00195312, 0.0839844, 0.260742, -9.70215, 1.18.2022 20:12:15.269
128, 1.62475, 359.854, 87.7546, -0.000976562, -0.000976562, -0.000976562, -0.00488281, 0.259766, -9.75488, 1.18.2022 20:12:15.277
129, 1.62475, 359.854, 87.7546, -0.000976562, -0.000976562, -0.000976562, -0.000976562, 0.28418, -9.6875, 1.18.2022 20:12:15.285
130, 1.62475, 359.854, 87.7546, 0, -0.000976562, 0.000976562, 0.0595703, 0.235352, -9.73047, 1.18.2022 20:12:15.293
131, 1.62475, 359.854, 87.7546, 0, -0.000976562, 0.000976562, -0.0419922, 0.255859, -9.7041, 1.18.2022 20:12:15.301
132, 1.6199, 359.859, 87.7546, 0, -0.00195312, -0.000976562, 0.0253906, 0.279297, -9.77539, 1.18.2022 20:12:15.309
133, 1.6199, 359.859, 87.7546, 0, -0.000976562, -0.000976562, 0.0527344, 0.258789, -9.71777, 1.18.2022 20:12:15.317
134, 1.6199, 359.859, 87.7546, -0.000976562, -0.000976562, -0.00195312, -0.0117188, 0.31543, -9.76758, 1.18.2022 20:12:15.325
135, 1.6199, 359.859, 87.7546, 0, -0.000976562, -0.000976562, 0.0771484, 0.282227, -9.71094, 1.18.2022 20:12:15.333
136, 1.6199, 359.859, 87.7546, 0, 0, -0.000976562, 0.0449219, 0.28125, -9.75977, 1.18.2022 20:12:15.341
137, 1.6199, 359.859, 87.7546, -0.000976562, 0, -0.000976562, -0.00878906, 0.275391, -9.72559, 1.18.2022 20:12:15.349
138, 1.6199, 359.859, 87.7546, -0.000976562, -0.000976562, 0.000976562, 0.0693359, 0.251953, -9.74902, 1.18.2022 20:12:15.357
139, 1.6199, 359.859, 87.7546, -0.000976562, -0.000976562, -0.000976562, -0.0302734, 0.266602, -9.72559, 1.18.2022 20:12:15.365
140, 1.61506, 359.864, 87.7546, -0.000976562, -0.000976562, 0.000976562, 0.00292969, 0.306641, -9.73438, 1.18.2022 20:12:15.373
141, 1.61506, 359.864, 87.7546, -0.000976562, 0, -0.000976562, 0.0712891, 0.274414, -9.75293, 1.18.2022 20:12:15.381
142, 1.61506, 359.864, 87.7546, -0.000976562, -0.000976562, -0.00195312, -0.0117188, 0.28418, -9.75879, 1.18.2022 20:12:15.389
143, 1.61506, 359.864, 87.7546, -0.000976562, 0, -0.000976562, 0.0742188, 0.256836, -9.74219, 1.18.2022 20:12:15.397
144, 1.61506, 359.864, 87.7546, -0.000976562, -0.000976562, -0.000976562, 0.0263672, 0.262695, -9.76172, 1.18.2022 20:12:15.405
145, 1.61506, 359.864, 87.7546, -0.000976562, 0, 0.000976562, -0.0253906, 0.299805, -9.72461, 1.18.2022 20:12:15.413
146, 1.61506, 359.864, 87.7546, -0.00195312, -0.000976562, 0, 0.0449219, 0.264648, -9.74805, 1.18.2022 20:12:15.421
147, 1.61506, 359.864, 87.7546, -0.000976562, -0.000976562, -0.000976562, -0.0166016, 0.266602, -9.72852, 1.18.2022 20:12:15.429
148, 1.61506, 359.864, 87.7546, 0, -0.000976562, -0.000976562, 0.0126953, 0.260742, -9.71973, 1.18.2022 20:12:15.437
149, 1.61506, 359.864, 87.7546, -0.000976562, -0.000976562, -0.000976562, 0.0654297, 0.250977, -9.6875, 1.18.2022 20:12:15.445
150, 1.61506, 359.864, 87.7546, 0, -0.000976562, -0.000976562, -0.0449219, 0.302734, -9.74805, 1.18.2022 20:12:15.453
151, 1.61506, 359.864, 87.7546, 0, 0, -0.00195312, 0.0449219, 0.283203, -9.75195, 1.18.2022 20:12:15.461
152, 1.61002, 359.86, 87.7548, 0.000976562, -0.000976562, -0.000976562, 0.0263672, 0.268555, -9.72656, 1.18.2022 20:12:15.469
153, 1.61002, 359.86, 87.7548, -0.000976562, 0, 0.000976562, -0.0253906, 0.283203, -9.7207, 1.18.2022 20:12:15.477
154, 1.61002, 359.86, 87.7548, 0, -0.000976562, 0.000976562, 0.0361328, 0.272461, -9.71484, 1.18.2022 20:12:15.485
155, 1.61506, 359.864, 87.7546, -0.000976562, -0.000976562, -0.000976562, -0.00683594, 0.273438, -9.72852, 1.18.2022 20:12:15.493
156, 1.61506, 359.864, 87.7546, -0.000976562, 0, -0.00195312, 0.0214844, 0.297852, -9.75879, 1.18.2022 20:12:15.501
157, 1.61506, 359.864, 87.7546, 0, 0, -0.00195312, 0.0527344, 0.235352, -9.75586, 1.18.2022 20:12:15.509
158, 1.61506, 359.864, 87.7546, -0.000976562, 0, 0, -0.0214844, 0.267578, -9.75879, 1.18.2022 20:12:15.517
159, 1.61506, 359.864, 87.7546, -0.000976562, -0.000976562, 0.000976562, 0.0507812, 0.270508, -9.73145, 1.18.2022 20:12:15.525
160, 1.61506, 359.864, 87.7546, 0, -0.000976562, -0.000976562, 0.0478516, 0.24707, -9.71777, 1.18.2022 20:12:15.533
161, 1.61506, 359.864, 87.7546, 0, 0, 0, 0.000976562, 0.28418, -9.69531, 1.18.2022 20:12:15.541
162, 1.61021, 359.869, 87.7546, -0.000976562, -0.000976562, 0.000976562, 0.0644531, 0.256836, -9.72266, 1.18.2022 20:12:15.549
163, 1.61021, 359.869, 87.7546, -0.000976562, 0, -0.00195312, 0.0195312, 0.290039, -9.7373, 1.18.2022 20:12:15.557
164, 1.61021, 359.869, 87.7546, -0.000976562, -0.000976562, -0.000976562, -0.0332031, 0.283203, -9.72559, 1.18.2022 20:12:15.565
165, 1.61021, 359.869, 87.7546, -0.000976562, -0.000976562, -0.00195312, 0.0625, 0.242188, -9.71582, 1.18.2022 20:12:15.573
166, 1.61021, 359.869, 87.7546, -0.000976562, -0.000976562, -0.000976562, -0.00976562, 0.273438, -9.74219, 1.18.2022 20:12:15.581
167, 1.61021, 359.869, 87.7546, -0.000976562, -0.000976562, -0.000976562, 0.00683594, 0.269531, -9.76367, 1.18.2022 20:12:15.589
168, 1.61021, 359.869, 87.7546, -0.000976562, -0.000976562, -0.00195312, 0.0400391, 0.266602, -9.75488, 1.18.2022 20:12:15.597
169, 1.61021, 359.869, 87.7546, -0.000976562, -0.000976562, -0.00195312, -0.0419922, 0.285156, -9.71582, 1.18.2022 20:12:15.605
170, 1.61021, 359.869, 87.7546, -0.000976562, -0.00195312, -0.000976562, 0.0546875, 0.261719, -9.74121, 1.18.2022 20:12:15.613
171, 1.61021, 359.869, 87.7546, -0.00195312, -0.000976562, 0, 0.0244141, 0.283203, -9.7334, 1.18.2022 20:12:15.621
172, 1.61021, 359.869, 87.7546, -0.000976562, -0.000976562, 0.000976562, -0.0195312, 0.300781, -9.75293, 1.18.2022 20:12:15.629
173, 1.61021, 359.869, 87.7546, -0.000976562, -0.000976562, -0.000976562, 0.0615234, 0.269531, -9.76953, 1.18.2022 20:12:15.637
174, 1.61021, 359.869, 87.7546, -0.000976562, 0, 0, 0.00195312, 0.272461, -9.76855, 1.18.2022 20:12:15.645
175, 1.61021, 359.869, 87.7546, -0.000976562, 0, 0, 0.0234375, 0.289062, -9.77539, 1.18.2022 20:12:15.653
176, 1.61021, 359.869, 87.7546, 0, 0, 0, 0.0419922, 0.273438, -9.80664, 1.18.2022 20:12:15.661
177, 1.61021, 359.869, 87.7546, -0.000976562, -0.000976562, 0, -0.0292969, 0.279297, -9.76758, 1.18.2022 20:12:15.669
178, 1.61021, 359.869, 87.7546, -0.000976562, -0.000976562, -0.00195312, 0.0527344, 0.286133, -9.74512, 1.18.2022 20:12:15.677
179, 1.61021, 359.869, 87.7546, 0, 0, 0, 0.0351562, 0.274414, -9.77832, 1.18.2022 20:12:15.685
180, 1.61021, 359.869, 87.7546, 0, 0, 0, 0.00683594, 0.292969, -9.75195, 1.18.2022 20:12:15.693
181, 1.61021, 359.869, 87.7546, -0.000976562, 0, 0, 0.0615234, 0.254883, -9.75586, 1.18.2022 20:12:15.701
182, 1.61021, 359.869, 87.7546, -0.000976562, 0, -0.00195312, 0.00292969, 0.251953, -9.73633, 1.18.2022 20:12:15.709
183, 1.61043, 359.87, 87.7645, 0, -0.000976562, -0.00195312, -0.0234375, 0.311523, -9.71484, 1.18.2022 20:12:15.717
184, 1.61043, 359.87, 87.7645, -0.000976562, -0.000976562, 0, 0.0771484, 0.289062, -9.70801, 1.18.2022 20:12:15.725
185, 1.61547, 359.874, 87.7644, -0.000976562, -0.000976562, 0, -0.0273438, 0.260742, -9.69727, 1.18.2022 20:12:15.733
186, 1.61547, 359.874, 87.7644, -0.000976562, -0.000976562, 0.000976562, 0.0214844, 0.273438, -9.73145, 1.18.2022 20:12:15.741
187, 1.61525, 359.874, 87.7545, -0.000976562, -0.000976562, 0.000976562, 0.0214844, 0.25293, -9.75781, 1.18.2022 20:12:15.749
188, 1.61525, 359.874, 87.7545, -0.000976562, 0, 0, -0.00390625, 0.289062, -9.69238, 1.18.2022 20:12:15.757
189, 1.61525, 359.874, 87.7545, 0, 0, 0, 0.0664062, 0.277344, -9.78125, 1.18.2022 20:12:15.765
190, 1.61525, 359.874, 87.7545, -0.000976562, -0.000976562, 0, -0.00390625, 0.273438, -9.73047, 1.18.2022 20:12:15.773
191, 1.61525, 359.874, 87.7545, 0, -0.00195312, -0.000976562, -0.03125, 0.25293, -9.75, 1.18.2022 20:12:15.781
192, 1.61525, 359.874, 87.7545, -0.000976562, -0.000976562, 0.000976562, 0.0693359, 0.268555, -9.74121, 1.18.2022 20:12:15.789
193, 1.61525, 359.874, 87.7545, -0.000976562, -0.000976562, 0.000976562, -0.00195312, 0.277344, -9.71387, 1.18.2022 20:12:15.797
194, 1.61525, 359.874, 87.7545, 0, 0, 0, 0.0527344, 0.285156, -9.72168, 1.18.2022 20:12:15.805
195, 1.61525, 359.874, 87.7545, -0.000976562, 0, -0.00195312, 0.0224609, 0.265625, -9.72168, 1.18.2022 20:12:15.813
196, 1.61525, 359.874, 87.7545, -0.000976562, 0, 0, -0.0371094, 0.300781, -9.69141, 1.18.2022 20:12:15.821
197, 1.61525, 359.874, 87.7545, -0.000976562, -0.000976562, 0, 0.0625, 0.253906, -9.72754, 1.18.2022 20:12:15.829
198, 1.61525, 359.874, 87.7545, 0, -0.00195312, -0.000976562, 0.0253906, 0.279297, -9.68652, 1.18.2022 20:12:15.837
199, 1.61525, 359.874, 87.7545, -0.000976562, -0.000976562, -0.00195312, 0.000976562, 0.291016, -9.6709, 1.18.2022 20:12:15.845
200, 1.61525, 359.874, 87.7545, 0, -0.000976562, 0, 0.0615234, 0.260742, -9.7959, 1.18.2022 20:12:15.853
201, 1.61525, 359.874, 87.7545, -0.000976562, 0, 0, -0.0302734, 0.275391, -9.7041, 1.18.2022 20:12:15.861
202, 1.61525, 359.874, 87.7545, -0.000976562, 0, 0, 0.000976562, 0.279297, -9.68848, 1.18.2022 20:12:15.869
203, 1.61525, 359.874, 87.7545, -0.000976562, 0, 0.000976562, 0.0556641, 0.256836, -9.72949, 1.18.2022 20:12:15.877
204, 1.61525, 359.874, 87.7545, -0.000976562, 0, 0, -0.0214844, 0.271484, -9.74707, 1.18.2022 20:12:15.885
205, 1.61525, 359.874, 87.7545, -0.000976562, -0.000976562, -0.00195312, 0.0429688, 0.264648, -9.76953, 1.18.2022 20:12:15.893
206, 1.61525, 359.874, 87.7545, 0, -0.000976562, 0, 0.0078125, 0.27832, -9.72852, 1.18.2022 20:12:15.901
207, 1.61525, 359.874, 87.7545, 0, -0.000976562, 0, -0.0117188, 0.299805, -9.74609, 1.18.2022 20:12:15.909
208, 1.61525, 359.874, 87.7545, -0.000976562, -0.000976562, 0.000976562, 0.09375, 0.289062, -9.70117, 1.18.2022 20:12:15.917
209, 1.62029, 359.879, 87.7544, 0, -0.00195312, 0.000976562, 0.00976562, 0.289062, -9.76074, 1.18.2022 20:12:15.925
210, 1.61544, 359.884, 87.7544, 0, -0.000976562, -0.000976562, -0.00195312, 0.276367, -9.73535, 1.18.2022 20:12:15.933
211, 1.62029, 359.879, 87.7544, -0.000976562, 0, 0, 0.0478516, 0.223633, -9.74902, 1.18.2022 20:12:15.941
212, 1.62029, 359.879, 87.7544, -0.00195312, -0.000976562, 0, -0.0546875, 0.269531, -9.75586, 1.18.2022 20:12:15.949
213, 1.62029, 359.879, 87.7544, -0.000976562, 0, -0.00195312, 0.03125, 0.285156, -9.71875, 1.18.2022 20:12:15.957
214, 1.62029, 359.879, 87.7544, -0.000976562, -0.000976562, -0.00195312, 0.0234375, 0.271484, -9.75684, 1.18.2022 20:12:15.965
215, 1.62029, 359.879, 87.7544, 0, -0.00195312, -0.000976562, -0.0185547, 0.283203, -9.74219, 1.18.2022 20:12:15.973
216, 1.61544, 359.884, 87.7544, 0, -0.00195312, -0.000976562, 0.0742188, 0.256836, -9.74219, 1.18.2022 20:12:15.981
217, 1.61544, 359.884, 87.7544, -0.000976562, -0.000976562, -0.000976562, 0.0244141, 0.268555, -9.71191, 1.18.2022 20:12:15.989
218, 1.61544, 359.884, 87.7544, 0, -0.000976562, 0.000976562, 0.0126953, 0.260742, -9.70996, 1.18.2022 20:12:15.997
219, 1.61544, 359.884, 87.7544, -0.000976562, 0, 0, 0.0742188, 0.239258, -9.7041, 1.18.2022 20:12:16.005
220, 1.61544, 359.884, 87.7544, -0.000976562, -0.000976562, -0.000976562, -0.0214844, 0.259766, -9.76367, 1.18.2022 20:12:16.013
221, 1.61544, 359.884, 87.7544, 0, 0, 0, 0.0078125, 0.27832, -9.74219, 1.18.2022 20:12:16.021
222, 1.61544, 359.884, 87.7544, -0.000976562, 0, 0, 0.0478516, 0.27832, -9.73633, 1.18.2022 20:12:16.029
223, 1.61544, 359.884, 87.7544, -0.000976562, -0.000976562, -0.000976562, -0.0400391, 0.292969, -9.74414, 1.18.2022 20:12:16.037
224, 1.61544, 359.884, 87.7544, 0, -0.000976562, 0.000976562, 0.0595703, 0.261719, -9.74805, 1.18.2022 20:12:16.045
225, 1.61544, 359.884, 87.7544, 0, -0.00195312, 0.000976562, 0.0175781, 0.266602, -9.72656, 1.18.2022 20:12:16.053
226, 1.61544, 359.884, 87.7544, 0, -0.00195312, -0.000976562, -0.0136719, 0.285156, -9.71875, 1.18.2022 20:12:16.061
227, 1.61544, 359.884, 87.7544, -0.000976562, -0.000976562, -0.000976562, 0.0527344, 0.24707, -9.72266, 1.18.2022 20:12:16.069
228, 1.61544, 359.884, 87.7544, 0, 0, 0, -0.0185547, 0.294922, -9.74121, 1.18.2022 20:12:16.077
229, 1.6104, 359.879, 87.7545, -0.000976562, 0, 0, 0.0283203, 0.269531, -9.74512, 1.18.2022 20:12:16.085
230, 1.60556, 359.884, 87.7545, 0, -0.000976562, -0.000976562, 0.0507812, 0.251953, -9.72754, 1.18.2022 20:12:16.093
231, 1.60556, 359.884, 87.7545, 0, 0, 0, -0.0527344, 0.279297, -9.75098, 1.18.2022 20:12:16.101
232, 1.60556, 359.884, 87.7545, 0, -0.000976562, 0.000976562, 0.0722656, 0.270508, -9.73242, 1.18.2022 20:12:16.107
233, 1.60556, 359.884, 87.7545, -0.00195312, -0.000976562, 0.000976562, 0.0341797, 0.275391, -9.72363, 1.18.2022 20:12:16.115
234, 1.60556, 359.884, 87.7545, -0.000976562, 0, 0, 0.00195312, 0.267578, -9.75977, 1.18.2022 20:12:16.123
235, 1.60556, 359.884, 87.7545, -0.000976562, 0, 0, 0.0761719, 0.269531, -9.76758, 1.18.2022 20:12:16.131
236, 1.60556, 359.884, 87.7545, -0.000976562, -0.000976562, -0.000976562, -0.00390625, 0.272461, -9.69727, 1.18.2022 20:12:16.139
237, 1.60556, 359.884, 87.7545, 0, 0, 0, 0.0117188, 0.283203, -9.74219, 1.18.2022 20:12:16.147
238, 1.60556, 359.884, 87.7545, 0, 0, 0, 0.0458984, 0.260742, -9.69434, 1.18.2022 20:12:16.155
239, 1.60556, 359.884, 87.7545, -0.000976562, -0.000976562, -0.000976562, -0.0380859, 0.288086, -9.75293, 1.18.2022 20:12:16.163
240, 1.60556, 359.884, 87.7545, -0.00195312, -0.000976562, -0.000976562, 0.0507812, 0.261719, -9.73145, 1.18.2022 20:12:16.171
241, 1.60556, 359.884, 87.7545, 0, 0, 0, 0.0332031, 0.273438, -9.73633, 1.18.2022 20:12:16.179
242, 1.60556, 359.884, 87.7545, 0, 0, 0, -0.0166016, 0.286133, -9.76758, 1.18.2022 20:12:16.187
243, 1.60556, 359.884, 87.7545, 0, -0.000976562, 0, 0.0664062, 0.226562, -9.75391, 1.18.2022 20:12:16.195
244, 1.60052, 359.88, 87.7546, -0.000976562, 0, -0.000976562, -0.0117188, 0.254883, -9.74023, 1.18.2022 20:12:16.203
245, 1.60052, 359.88, 87.7546, -0.000976562, 0, -0.00195312, 0.0390625, 0.296875, -9.72168, 1.18.2022 20:12:16.211
246, 1.60052, 359.88, 87.7546, 0, -0.000976562, -0.000976562, 0.0214844, 0.266602, -9.74805, 1.18.2022 20:12:16.219
247, 1.60052, 359.88, 87.7546, -0.000976562, 0, -0.000976562, -0.0615234, 0.292969, -9.72949, 1.18.2022 20:12:16.227
248, 1.60052, 359.88, 87.7546, 0, 0, -0.000976562, 0.0332031, 0.254883, -9.74316, 1.18.2022 20:12:16.235
249, 1.60052, 359.88, 87.7546, -0.000976562, -0.000976562, 0, 0.0361328, 0.242188, -9.73926, 1.18.2022 20:12:16.243
250, 1.60052, 359.88, 87.7546, -0.000976562, -0.000976562, 0, -0.0136719, 0.307617, -9.74121, 1.18.2022 20:12:16.251
251, 1.60052, 359.88, 87.7546, -0.000976562, 0, -0.000976562, 0.0595703, 0.273438, -9.74805, 1.18.2022 20:12:16.259
252, 1.60052, 359.88, 87.7546, -0.000976562, 0, -0.000976562, -0.00488281, 0.288086, -9.75391, 1.18.2022 20:12:16.267
253, 1.60052, 359.88, 87.7546, -0.000976562, -0.00195312, -0.000976562, 0.00585938, 0.298828, -9.71387, 1.18.2022 20:12:16.275
254, 1.60052, 359.88, 87.7546, 0, -0.000976562, -0.000976562, 0.0810547, 0.258789, -9.72754, 1.18.2022 20:12:16.283
255, 1.60052, 359.88, 87.7546, 0, 0, -0.000976562, -0.0380859, 0.240234, -9.75, 1.18.2022 20:12:16.291
256, 1.60052, 359.88, 87.7546, 0, -0.000976562, 0, 0.0253906, 0.241211, -9.76953, 1.18.2022 20:12:16.299
257, 1.60052, 359.88, 87.7546, -0.000976562, -0.000976562, -0.000976562, 0.0390625, 0.239258, -9.70898, 1.18.2022 20:12:16.307
258, 1.60052, 359.88, 87.7546, -0.000976562, -0.000976562, -0.000976562, -0.0292969, 0.28418, -9.77051, 1.18.2022 20:12:16.315
259, 1.60052, 359.88, 87.7546, -0.00195312, -0.000976562, 0, 0.0722656, 0.262695, -9.70898, 1.18.2022 20:12:16.323
260, 1.60052, 359.88, 87.7546, -0.000976562, -0.00195312, 0, 0.0146484, 0.260742, -9.70801, 1.18.2022 20:12:16.331
261, 1.60052, 359.88, 87.7546, -0.000976562, -0.000976562, 0, -0.00390625, 0.285156, -9.72559, 1.18.2022 20:12:16.339
262, 1.60052, 359.88, 87.7546, -0.000976562, -0.000976562, -0.000976562, 0.0673828, 0.217773, -9.72363, 1.18.2022 20:12:16.347
263, 1.60052, 359.88, 87.7546, -0.000976562, -0.000976562, -0.00195312, -0.00195312, 0.285156, -9.72363, 1.18.2022 20:12:16.355
264, 1.60052, 359.88, 87.7546, -0.000976562, 0, -0.000976562, 0.0166016, 0.274414, -9.77539, 1.18.2022 20:12:16.363
265, 1.60052, 359.88, 87.7546, -0.000976562, 0, -0.000976562, 0.0625, 0.256836, -9.72559, 1.18.2022 20:12:16.371
266, 1.59567, 359.885, 87.7546, 0, -0.000976562, -0.000976562, -0.0195312, 0.307617, -9.76465, 1.18.2022 20:12:16.379
267, 1.59567, 359.885, 87.7546, 0, 0, -0.000976562, 0.0693359, 0.254883, -9.74219, 1.18.2022 20:12:16.387
268, 1.59567, 359.885, 87.7546, 0, -0.000976562, 0, 0.0302734, 0.28418, -9.77539, 1.18.2022 20:12:16.395
269, 1.59063, 359.88, 87.7548, 0, -0.000976562, -0.000976562, -0.0117188, 0.288086, -9.73926, 1.18.2022 20:12:16.403
270, 1.59063, 359.88, 87.7548, 0, 0, -0.000976562, 0.0712891, 0.263672, -9.73926, 1.18.2022 20:12:16.411
271, 1.59063, 359.88, 87.7548, 0, 0, -0.000976562, -0.00390625, 0.264648, -9.68359, 1.18.2022 20:12:16.419
272, 1.59063, 359.88, 87.7548, -0.000976562, -0.000976562, -0.00195312, -0.00683594, 0.313477, -9.72266, 1.18.2022 20:12:16.427
273, 1.59063, 359.88, 87.7548, -0.000976562, 0, -0.00195312, 0.0693359, 0.258789, -9.71289, 1.18.2022 20:12:16.435
274, 1.59063, 359.88, 87.7548, -0.000976562, 0, -0.000976562, -0.0117188, 0.302734, -9.74414, 1.18.2022 20:12:16.443
275, 1.59548, 359.875, 87.7548, -0.000976562, 0, -0.000976562, 0.0527344, 0.263672, -9.72266, 1.18.2022 20:12:16.451
276, 1.59548, 359.875, 87.7548, -0.000976562, -0.000976562, -0.000976562, 0.0380859, 0.254883, -9.74609, 1.18.2022 20:12:16.459
277, 1.59548, 359.875, 87.7548, -0.000976562, -0.000976562, -0.000976562, -0.0478516, 0.286133, -9.73926, 1.18.2022 20:12:16.467
278, 1.59548, 359.875, 87.7548, -0.00195312, -0.000976562, -0.000976562, 0.0507812, 0.256836, -9.72754, 1.18.2022 20:12:16.475
279, 1.59548, 359.875, 87.7548, -0.000976562, -0.000976562, 0, -0.0136719, 0.27832, -9.74219, 1.18.2022 20:12:16.483
280, 1.59548, 359.875, 87.7548, -0.000976562, 0, -0.000976562, -0.0136719, 0.31543, -9.70312, 1.18.2022 20:12:16.491
281, 1.59548, 359.875, 87.7548, 0, 0, -0.000976562, 0.0683594, 0.254883, -9.67285, 1.18.2022 20:12:16.499
282, 1.59548, 359.875, 87.7548, 0, -0.000976562, 0, -0.0429688, 0.276367, -9.73242, 1.18.2022 20:12:16.507
283, 1.59548, 359.875, 87.7548, 0, -0.000976562, -0.00195312, 0.0390625, 0.274414, -9.68652, 1.18.2022 20:12:16.515
284, 1.59548, 359.875, 87.7548, -0.000976562, -0.000976562, -0.00195312, 0.0380859, 0.28418, -9.7666, 1.18.2022 20:12:16.523
285, 1.59548, 359.875, 87.7548, -0.000976562, -0.000976562, -0.000976562, -0.0166016, 0.288086, -9.7373, 1.18.2022 20:12:16.531
286, 1.59548, 359.875, 87.7548, -0.000976562, -0.000976562, 0, 0.0693359, 0.275391, -9.72754, 1.18.2022 20:12:16.539
287, 1.59548, 359.875, 87.7548, 0, -0.000976562, -0.000976562, 0.015625, 0.264648, -9.68652, 1.18.2022 20:12:16.547
288, 1.60052, 359.88, 87.7546, -0.000976562, -0.000976562, -0.000976562, -0.0117188, 0.28125, -9.74707, 1.18.2022 20:12:16.555
289, 1.60536, 359.875, 87.7546, 0, 0, -0.000976562, 0.0742188, 0.251953, -9.74219, 1.18.2022 20:12:16.563
290, 1.60536, 359.875, 87.7546, 0, -0.000976562, -0.000976562, -0.0166016, 0.288086, -9.74902, 1.18.2022 20:12:16.571
291, 1.60536, 359.875, 87.7546, 0, -0.000976562, -0.000976562, 0.00585938, 0.287109, -9.70898, 1.18.2022 20:12:16.579
292, 1.60536, 359.875, 87.7546, -0.000976562, -0.000976562, -0.000976562, 0.0556641, 0.28418, -9.70508, 1.18.2022 20:12:16.587
293, 1.60536, 359.875, 87.7546, -0.000976562, 0, -0.000976562, -0.0244141, 0.262695, -9.76367, 1.18.2022 20:12:16.595
294, 1.60536, 359.875, 87.7546, -0.000976562, -0.000976562, 0, 0.0283203, 0.27832, -9.74805, 1.18.2022 20:12:16.603
295, 1.60536, 359.875, 87.7546, -0.000976562, -0.000976562, -0.000976562, -0.00195312, 0.265625, -9.71484, 1.18.2022 20:12:16.611
296, 1.60536, 359.875, 87.7546, -0.000976562, 0, -0.000976562, -0.0283203, 0.297852, -9.73242, 1.18.2022 20:12:16.619
297, 1.60536, 359.875, 87.7546, -0.000976562, 0, -0.000976562, 0.0810547, 0.253906, -9.73047, 1.18.2022 20:12:16.627
298, 1.6104, 359.879, 87.7545, 0, 0, -0.00195312, -0.0126953, 0.290039, -9.79102, 1.18.2022 20:12:16.635
299, 1.6104, 359.879, 87.7545, 0, 0, -0.000976562, 0.0263672, 0.296875, -9.72363, 1.18.2022 20:12:16.643
300, 1.6104, 359.879, 87.7545, 0, -0.000976562, -0.000976562, 0.0458984, 0.27832, -9.74512, 1.18.2022 20:12:16.651
301, 1.6104, 359.879, 87.7545, -0.000976562, 0, -0.000976562, -0.0224609, 0.295898, -9.69434, 1.18.2022 20:12:16.659
302, 1.6104, 359.879, 87.7545, -0.000976562, -0.000976562, -0.000976562, 0.0507812, 0.290039, -9.72656, 1.18.2022 20:12:16.667
303, 1.6104, 359.879, 87.7545, -0.000976562, 0, 0, 0.0390625, 0.295898, -9.69043, 1.18.2022 20:12:16.675
304, 1.6104, 359.879, 87.7545, -0.000976562, -0.000976562, -0.000976562, -0.0273438, 0.308594, -9.68945, 1.18.2022 20:12:16.683
305, 1.61525, 359.874, 87.7545, 0, 0, -0.000976562, 0.0810547, 0.256836, -9.73047, 1.18.2022 20:12:16.691
306, 1.62029, 359.879, 87.7544, -0.000976562, -0.000976562, -0.000976562, 0.00292969, 0.27832, -9.74707, 1.18.2022 20:12:16.699
307, 1.62029, 359.879, 87.7544, -0.000976562, -0.000976562, -0.000976562, 0.0078125, 0.298828, -9.71387, 1.18.2022 20:12:16.707
308, 1.62029, 359.879, 87.7544, -0.00195312, -0.000976562, -0.000976562, 0.0810547, 0.292969, -9.75, 1.18.2022 20:12:16.715
309, 1.62029, 359.879, 87.7544, -0.000976562, 0, -0.000976562, -0.0117188, 0.27832, -9.71582, 1.18.2022 20:12:16.723
310, 1.62029, 359.879, 87.7544, -0.000976562, -0.000976562, -0.000976562, 0.03125, 0.280273, -9.73535, 1.18.2022 20:12:16.731
311, 1.62029, 359.879, 87.7544, -0.000976562, 0, 0.000976562, 0.0292969, 0.262695, -9.69824, 1.18.2022 20:12:16.739
312, 1.63017, 359.879, 87.7543, 0, -0.000976562, 0.000976562, -0.0302734, 0.283203, -9.7373, 1.18.2022 20:12:16.747
313, 1.63017, 359.879, 87.7543, -0.000976562, 0, 0.000976562, 0.0429688, 0.258789, -9.73926, 1.18.2022 20:12:16.755
314, 1.63017, 359.879, 87.7543, -0.000976562, 0, -0.000976562, 0.00488281, 0.27832, -9.75, 1.18.2022 20:12:16.763
315, 1.63017, 359.879, 87.7543, -0.000976562, -0.000976562, -0.000976562, 0.0117188, 0.293945, -9.77734, 1.18.2022 20:12:16.771
316, 1.63017, 359.879, 87.7543, 0, -0.000976562, -0.000976562, 0.0712891, 0.264648, -9.77441, 1.18.2022 20:12:16.779
317, 1.63017, 359.879, 87.7543, -0.000976562, -0.000976562, -0.000976562, -0.046875, 0.258789, -9.71582, 1.18.2022 20:12:16.787
318, 1.63017, 359.879, 87.7543, -0.000976562, 0, -0.000976562, 0.0107422, 0.296875, -9.71094, 1.18.2022 20:12:16.795
319, 1.63502, 359.874, 87.7543, -0.000976562, -0.000976562, -0.000976562, 0.0625, 0.299805, -9.72363, 1.18.2022 20:12:16.803
320, 1.63502, 359.874, 87.7543, -0.000976562, -0.000976562, -0.000976562, -0.0263672, 0.286133, -9.7373, 1.18.2022 20:12:16.811
321, 1.64006, 359.879, 87.7541, -0.000976562, -0.00195312, -0.000976562, 0.0859375, 0.274414, -9.76758, 1.18.2022 20:12:16.819
322, 1.64006, 359.879, 87.7541, 0, 0, -0.000976562, 0.0332031, 0.274414, -9.77832, 1.18.2022 20:12:16.827
323, 1.64006, 359.879, 87.7541, 0, 0, -0.000976562, -0.015625, 0.311523, -9.8125, 1.18.2022 20:12:16.835
324, 1.64006, 359.879, 87.7541, -0.000976562, 0, -0.000976562, 0.0693359, 0.242188, -9.7207, 1.18.2022 20:12:16.843
325, 1.64006, 359.879, 87.7541, -0.000976562, 0, -0.000976562, 0.00292969, 0.27832, -9.72363, 1.18.2022 20:12:16.851
326, 1.64006, 359.879, 87.7541, 0, 0, -0.000976562, -0.0107422, 0.272461, -9.71191, 1.18.2022 20:12:16.859
327, 1.64006, 359.879, 87.7541, -0.000976562, -0.000976562, -0.000976562, 0.0761719, 0.226562, -9.76855, 1.18.2022 20:12:16.867
328, 1.64006, 359.879, 87.7541, -0.000976562, 0, -0.000976562, -0.0439453, 0.277344, -9.69238, 1.18.2022 20:12:16.875
329, 1.64006, 359.879, 87.7541, -0.000976562, -0.000976562, -0.000976562, 0.0361328, 0.271484, -9.7334, 1.18.2022 20:12:16.883
330, 1.64006, 359.879, 87.7541, 0, 0, -0.000976562, 0.0146484, 0.232422, -9.73438, 1.18.2022 20:12:16.891
331, 1.64006, 359.879, 87.7541, 0, -0.000976562, -0.00195312, -0.0429688, 0.273438, -9.72754, 1.18.2022 20:12:16.899
332, 1.64006, 359.879, 87.7541, 0, -0.000976562, -0.000976562, 0.078125, 0.264648, -9.76758, 1.18.2022 20:12:16.907
333, 1.63502, 359.874, 87.7543, 0, 0, -0.000976562, -0.00683594, 0.273438, -9.72852, 1.18.2022 20:12:16.915
334, 1.63502, 359.874, 87.7543, 0, -0.000976562, -0.000976562, 0.0126953, 0.275391, -9.72852, 1.18.2022 20:12:16.923
335, 1.63502, 359.874, 87.7543, -0.000976562, 0, -0.000976562, 0.0761719, 0.242188, -9.74023, 1.18.2022 20:12:16.931
336, 1.63502, 359.874, 87.7543, -0.000976562, -0.000976562, -0.000976562, -0.0302734, 0.27832, -9.72559, 1.18.2022 20:12:16.939
337, 1.63502, 359.874, 87.7543, 0, 0, -0.000976562, 0.0332031, 0.279297, -9.76465, 1.18.2022 20:12:16.947
338, 1.63502, 359.874, 87.7543, -0.000976562, 0, -0.000976562, 0.0410156, 0.277344, -9.7168, 1.18.2022 20:12:16.955
339, 1.63502, 359.874, 87.7543, -0.000976562, 0, 0.000976562, -0.0449219, 0.307617, -9.7334, 1.18.2022 20:12:16.963
340, 1.63017, 359.879, 87.7543, 0, -0.000976562, -0.000976562, 0.0644531, 0.261719, -9.73633, 1.18.2022 20:12:16.971
341, 1.63017, 359.879, 87.7543, 0, -0.000976562, 0, 0.0380859, 0.241211, -9.76074, 1.18.2022 20:12:16.979
342, 1.63017, 359.879, 87.7543, 0, 0, -0.000976562, 0.00195312, 0.272461, -9.77539, 1.18.2022 20:12:16.987
343, 1.62514, 359.874, 87.7544, 0, 0, -0.000976562, 0.0693359, 0.243164, -9.76074, 1.18.2022 20:12:16.995
344, 1.62514, 359.874, 87.7544, 0, -0.000976562, -0.000976562, -0.0400391, 0.294922, -9.71777, 1.18.2022 20:12:17.003
345, 1.62514, 359.874, 87.7544, -0.000976562, -0.000976562, -0.000976562, 0.0332031, 0.285156, -9.73828, 1.18.2022 20:12:17.011
346, 1.62514, 359.874, 87.7544, 0, -0.000976562, -0.000976562, 0.0283203, 0.254883, -9.74316, 1.18.2022 20:12:17.019
347, 1.62029, 359.879, 87.7544, 0, 0, -0.000976562, -0.0117188, 0.294922, -9.74219, 1.18.2022 20:12:17.027
348, 1.62029, 359.879, 87.7544, 0, 0, -0.000976562, 0.0517578, 0.254883, -9.76758, 1.18.2022 20:12:17.035
349, 1.62029, 359.879, 87.7544, -0.000976562, -0.000976562, 0.000976562, 0.0283203, 0.262695, -9.76953, 1.18.2022 20:12:17.043
350, 1.61525, 359.874, 87.7545, 0, 0, -0.000976562, -0.00488281, 0.27832, -9.74023, 1.18.2022 20:12:17.051
351, 1.61525, 359.874, 87.7545, 0, 0, -0.000976562, 0.0673828, 0.244141, -9.70215, 1.18.2022 20:12:17.059
352, 1.61525, 359.874, 87.7545, -0.000976562, 0, -0.000976562, -0.0146484, 0.27832, -9.74414, 1.18.2022 20:12:17.067
353, 1.61525, 359.874, 87.7545, -0.000976562, 0, -0.000976562, 0.0146484, 0.283203, -9.74219, 1.18.2022 20:12:17.075
354, 1.61525, 359.874, 87.7545, -0.000976562, 0, -0.000976562, 0.0410156, 0.253906, -9.71289, 1.18.2022 20:12:17.083
355, 1.61525, 359.874, 87.7545, 0, -0.000976562, -0.000976562, -0.03125, 0.297852, -9.75977, 1.18.2022 20:12:17.089
356, 1.61525, 359.874, 87.7545, -0.000976562, 0, 0.000976562, 0.0712891, 0.264648, -9.74609, 1.18.2022 20:12:17.097
357, 1.61525, 359.874, 87.7545, -0.000976562, 0, -0.000976562, 0.0341797, 0.259766, -9.68945, 1.18.2022 20:12:17.105
358, 1.61021, 359.869, 87.7546, -0.000976562, 0, -0.000976562, -0.0117188, 0.286133, -9.73926, 1.18.2022 20:12:17.113
359, 1.61021, 359.869, 87.7546, -0.000976562, -0.000976562, -0.00195312, 0.0888672, 0.263672, -9.72559, 1.18.2022 20:12:17.121
360, 1.61021, 359.869, 87.7546, 0, 0, -0.000976562, -0.0185547, 0.260742, -9.70996, 1.18.2022 20:12:17.129
361, 1.61021, 359.869, 87.7546, -0.000976562, -0.000976562, -0.000976562, -0.0117188, 0.28418, -9.75879, 1.18.2022 20:12:17.137
362, 1.60536, 359.875, 87.7546, -0.000976562, 0, -0.000976562, 0.0478516, 0.272461, -9.7666, 1.18.2022 20:12:17.145
363, 1.60536, 359.875, 87.7546, -0.000976562, 0, -0.000976562, -0.03125, 0.286133, -9.75098, 1.18.2022 20:12:17.153
364, 1.60536, 359.875, 87.7546, -0.000976562, 0, -0.000976562, 0.0380859, 0.282227, -9.77637, 1.18.2022 20:12:17.161
365, 1.60536, 359.875, 87.7546, -0.000976562, -0.000976562, -0.000976562, 0.0117188, 0.246094, -9.7793, 1.18.2022 20:12:17.169
366, 1.60536, 359.875, 87.7546, -0.000976562, -0.000976562, -0.000976562, -0.00488281, 0.256836, -9.73535, 1.18.2022 20:12:17.177
367, 1.60536, 359.875, 87.7546, 0, -0.000976562, -0.00195312, 0.0576172, 0.273438, -9.73828, 1.18.2022 20:12:17.185
368, 1.60536, 359.875, 87.7546, 0, -0.000976562, -0.00195312, 0.00488281, 0.256836, -9.73633, 1.18.2022 20:12:17.193
369, 1.60536, 359.875, 87.7546, 0, 0, -0.000976562, -0.00683594, 0.272461, -9.70703, 1.18.2022 20:12:17.201
370, 1.60536, 359.875, 87.7546, -0.00195312, -0.000976562, 0.000976562, 0.0644531, 0.259766, -9.7627, 1.18.2022 20:12:17.209
371, 1.60536, 359.875, 87.7546, -0.000976562, -0.000976562, -0.000976562, -0.0351562, 0.270508, -9.71387, 1.18.2022 20:12:17.217
372, 1.60536, 359.875, 87.7546, -0.000976562, 0, -0.000976562, 0.0449219, 0.274414, -9.78125, 1.18.2022 20:12:17.225
373, 1.60536, 359.875, 87.7546, -0.000976562, -0.000976562, 0.000976562, 0.0742188, 0.268555, -9.73926, 1.18.2022 20:12:17.233
374, 1.60536, 359.875, 87.7546, 0, -0.000976562, 0.000976562, -0.0185547, 0.292969, -9.74902, 1.18.2022 20:12:17.241
375, 1.60536, 359.875, 87.7546, -0.000976562, -0.000976562, -0.000976562, 0.0712891, 0.254883, -9.75586, 1.18.2022 20:12:17.249
376, 1.60536, 359.875, 87.7546, -0.000976562, -0.000976562, -0.000976562, 0.03125, 0.263672, -9.71777, 1.18.2022 20:12:17.257
377, 1.60536, 359.875, 87.7546, -0.000976562, 0, -0.000976562, 0, 0.3125, -9.75781, 1.18.2022 20:12:17.265
378, 1.60536, 359.875, 87.7546, -0.000976562, -0.000976562, -0.000976562, 0.0683594, 0.224609, -9.78711, 1.18.2022 20:12:17.273
379, 1.60052, 359.88, 87.7546, -0.000976562, -0.000976562, -0.000976562, 0.00683594, 0.272461, -9.78516, 1.18.2022 20:12:17.281
380, 1.60052, 359.88, 87.7546, 0, -0.000976562, -0.000976562, -0.0195312, 0.300781, -9.75781, 1.18.2022 20:12:17.289
381, 1.60052, 359.88, 87.7546, -0.000976562, 0, -0.000976562, 0.0595703, 0.245117, -9.74707, 1.18.2022 20:12:17.297
382, 1.59548, 359.875, 87.7548, -0.000976562, 0, -0.00195312, -0.0253906, 0.267578, -9.68359, 1.18.2022 20:12:17.305
383, 1.60032, 359.87, 87.7548, -0.000976562, -0.000976562, -0.000976562, 0.0869141, 0.262695, -9.69238, 1.18.2022 20:12:17.313
384, 1.59548, 359.875, 87.7548, -0.000976562, -0.00195312, -0.000976562, 0.0126953, 0.28418, -9.69238, 1.18.2022 20:12:17.321
385, 1.59548, 359.875, 87.7548, 0, -0.00195312, -0.000976562, -0.0117188, 0.268555, -9.72559, 1.18.2022 20:12:17.329
386, 1.59548, 359.875, 87.7548, -0.000976562, -0.000976562, -0.000976562, 0.0859375, 0.273438, -9.72754, 1.18.2022 20:12:17.337
387, 1.59548, 359.875, 87.7548, -0.000976562, 0, -0.000976562, 0.00292969, 0.282227, -9.70215, 1.18.2022 20:12:17.345
388, 1.60032, 359.87, 87.7548, -0.000976562, 0, -0.000976562, 0.0244141, 0.299805, -9.74414, 1.18.2022 20:12:17.353
389, 1.60032, 359.87, 87.7548, -0.000976562, -0.000976562, -0.000976562, 0.0595703, 0.266602, -9.75293, 1.18.2022 20:12:17.361
390, 1.60032, 359.87, 87.7548, -0.000976562, -0.000976562, -0.000976562, -0.0380859, 0.292969, -9.72754, 1.18.2022 20:12:17.369
391, 1.60032, 359.87, 87.7548, -0.000976562, -0.000976562, -0.000976562, 0.0527344, 0.296875, -9.72656, 1.18.2022 20:12:17.377
392, 1.60032, 359.87, 87.7548, 0, 0, -0.000976562, 0.0283203, 0.259766, -9.75488, 1.18.2022 20:12:17.385
393, 1.60032, 359.87, 87.7548, -0.000976562, -0.000976562, -0.000976562, -0.0214844, 0.291016, -9.75098, 1.18.2022 20:12:17.393
394, 1.60032, 359.87, 87.7548, -0.000976562, -0.000976562, -0.000976562, 0.0761719, 0.254883, -9.77051, 1.18.2022 20:12:17.401
395, 1.60032, 359.87, 87.7548, 0, -0.000976562, -0.000976562, -0.00683594, 0.279297, -9.75195, 1.18.2022 20:12:17.409
396, 1.60032, 359.87, 87.7548, 0, -0.000976562, -0.000976562, -0.00195312, 0.285156, -9.71875, 1.18.2022 20:12:17.417
397, 1.60032, 359.87, 87.7548, 0, 0, -0.000976562, 0.0546875, 0.273438, -9.73633, 1.18.2022 20:12:17.425
398, 1.60032, 359.87, 87.7548, 0, -0.000976562, -0.000976562, -0.0576172, 0.308594, -9.77832, 1.18.2022 20:12:17.433
399, 1.60032, 359.87, 87.7548, -0.000976562, 0, -0.000976562, 0.0410156, 0.294922, -9.73535, 1.18.2022 20:12:17.441
400, 1.60517, 359.865, 87.7548, -0.000976562, 0, -0.000976562, 0.0429688, 0.237305, -9.73438, 1.18.2022 20:12:17.449
401, 1.60517, 359.865, 87.7548, -0.000976562, -0.00195312, -0.000976562, -0.0419922, 0.296875, -9.71777, 1.18.2022 20:12:17.457
402, 1.60517, 359.865, 87.7548, -0.000976562, -0.000976562, -0.000976562, 0.0800781, 0.287109, -9.69824, 1.18.2022 20:12:17.465
403, 1.61021, 359.869, 87.7546, 0, -0.000976562, -0.000976562, 0.00976562, 0.262695, -9.75684, 1.18.2022 20:12:17.473
404, 1.61021, 359.869, 87.7546, 0, -0.000976562, -0.000976562, -0.0136719, 0.275391, -9.7041, 1.18.2022 20:12:17.481
405, 1.61021, 359.869, 87.7546, -0.000976562, -0.000976562, -0.000976562, 0.0478516, 0.272461, -9.71484, 1.18.2022 20:12:17.489
406, 1.61021, 359.869, 87.7546, 0, -0.000976562, -0.000976562, -0.0498047, 0.286133, -9.75098, 1.18.2022 20:12:17.497
407, 1.61021, 359.869, 87.7546, -0.000976562, 0, -0.000976562, 0.0205078, 0.291016, -9.68359, 1.18.2022 20:12:17.505
408, 1.61021, 359.869, 87.7546, 0, -0.000976562, 0.000976562, 0.0449219, 0.274414, -9.75293, 1.18.2022 20:12:17.513
409, 1.61021, 359.869, 87.7546, 0, 0, -0.000976562, -0.0244141, 0.282227, -9.77051, 1.18.2022 20:12:17.521
410, 1.61021, 359.869, 87.7546, -0.000976562, 0, -0.00195312, 0.0380859, 0.256836, -9.74805, 1.18.2022 20:12:17.529
411, 1.61021, 359.869, 87.7546, 0, -0.000976562, -0.000976562, 0.0302734, 0.257812, -9.7666, 1.18.2022 20:12:17.537
412, 1.61525, 359.874, 87.7545, -0.000976562, -0.000976562, 0.000976562, -0.0117188, 0.283203, -9.74219, 1.18.2022 20:12:17.545
413, 1.61525, 359.874, 87.7545, 0, 0, -0.000976562, 0.0927734, 0.294922, -9.74121, 1.18.2022 20:12:17.553
414, 1.61525, 359.874, 87.7545, -0.000976562, -0.000976562, -0.000976562, 0.00195312, 0.262695, -9.76855, 1.18.2022 20:12:17.561
415, 1.61525, 359.874, 87.7545, -0.000976562, -0.000976562, -0.00195312, 0.0292969, 0.248047, -9.68457, 1.18.2022 20:12:17.569
416, 1.61525, 359.874, 87.7545, 0, -0.000976562, -0.000976562, 0.0664062, 0.276367, -9.74609, 1.18.2022 20:12:17.577
417, 1.61525, 359.874, 87.7545, 0, -0.000976562, -0.000976562, -0.0185547, 0.267578, -9.70215, 1.18.2022 20:12:17.585
418, 1.61525, 359.874, 87.7545, 0, -0.000976562, -0.00195312, 0.0390625, 0.283203, -9.72852, 1.18.2022 20:12:17.593
419, 1.61525, 359.874, 87.7545, 0, 0, -0.000976562, 0.0654297, 0.244141, -9.71387, 1.18.2022 20:12:17.601
420, 1.61525, 359.874, 87.7545, 0, -0.000976562, 0.00195312, -0.0214844, 0.310547, -9.75781, 1.18.2022 20:12:17.609
421, 1.61525, 359.874, 87.7545, 0, 0, 0.000976562, 0.0839844, 0.249023, -9.71582, 1.18.2022 20:12:17.617
422, 1.61525, 359.874, 87.7545, 0, -0.000976562, -0.000976562, -0.0263672, 0.266602, -9.74023, 1.18.2022 20:12:17.625
423, 1.61525, 359.874, 87.7545, -0.000976562, -0.000976562, -0.000976562, -0.0136719, 0.273438, -9.72363, 1.18.2022 20:12:17.633
424, 1.61525, 359.874, 87.7545, -0.000976562, 0, -0.000976562, 0.0546875, 0.238281, -9.75586, 1.18.2022 20:12:17.641
425, 1.61525, 359.874, 87.7545, -0.000976562, -0.000976562, -0.000976562, -0.0537109, 0.290039, -9.71094, 1.18.2022 20:12:17.649
426, 1.61525, 359.874, 87.7545, -0.000976562, -0.000976562, -0.000976562, 0.0332031, 0.259766, -9.75293, 1.18.2022 20:12:17.657
427, 1.61525, 359.874, 87.7545, -0.000976562, 0, -0.000976562, 0.0380859, 0.295898, -9.75879, 1.18.2022 20:12:17.665
428, 1.61525, 359.874, 87.7545, -0.000976562, 0, 0.000976562, -0.0332031, 0.297852, -9.73926, 1.18.2022 20:12:17.673
429, 1.61525, 359.874, 87.7545, -0.000976562, 0, 0.000976562, 0.0693359, 0.263672, -9.71777, 1.18.2022 20:12:17.681
430, 1.61525, 359.874, 87.7545, -0.000976562, 0, -0.000976562, 0.00976562, 0.27832, -9.73047, 1.18.2022 20:12:17.689
431, 1.61525, 359.874, 87.7545, -0.000976562, 0, -0.000976562, 0.0341797, 0.27832, -9.72656, 1.18.2022 20:12:17.697
432, 1.61525, 359.874, 87.7545, 0, 0, -0.000976562, 0.0683594, 0.267578, -9.7793, 1.18.2022 20:12:17.705
433, 1.61525, 359.874, 87.7545, 0, 0, -0.000976562, -0.00683594, 0.299805, -9.73926, 1.18.2022 20:12:17.713
434, 1.61525, 359.874, 87.7545, 0, -0.000976562, 0, 0.00976562, 0.286133, -9.75195, 1.18.2022 20:12:17.721
435, 1.61525, 359.874, 87.7545, -0.000976562, -0.000976562, 0, 0.0380859, 0.246094, -9.76758, 1.18.2022 20:12:17.729
436, 1.61525, 359.874, 87.7545, -0.000976562, -0.000976562, -0.000976562, -0.0576172, 0.261719, -9.74707, 1.18.2022 20:12:17.737
437, 1.61525, 359.874, 87.7545, 0, -0.00195312, -0.000976562, 0.0664062, 0.261719, -9.74609, 1.18.2022 20:12:17.745
438, 1.61525, 359.874, 87.7545, -0.000976562, 0, -0.000976562, -0.00683594, 0.273438, -9.74023, 1.18.2022 20:12:17.753
439, 1.61525, 359.874, 87.7545, 0, 0, 0, -0.0205078, 0.296875, -9.71094, 1.18.2022 20:12:17.761
440, 1.61525, 359.874, 87.7545, 0, 0, 0.00195312, 0.0498047, 0.266602, -9.75781, 1.18.2022 20:12:17.769
441, 1.61525, 359.874, 87.7545, -0.000976562, -0.000976562, 0, -0.0253906, 0.27832, -9.72266, 1.18.2022 20:12:17.777
442, 1.61525, 359.874, 87.7545, 0, -0.000976562, -0.000976562, 0.0195312, 0.265625, -9.72461, 1.18.2022 20:12:17.785
443, 1.61525, 359.874, 87.7545, 0, -0.000976562, -0.000976562, 0.0498047, 0.254883, -9.76465, 1.18.2022 20:12:17.793
444, 1.61525, 359.874, 87.7545, 0, 0, -0.00195312, -0.0449219, 0.285156, -9.71094, 1.18.2022 20:12:17.801
445, 1.61525, 359.874, 87.7545, 0, 0, -0.000976562, 0.0556641, 0.283203, -9.72852, 1.18.2022 20:12:17.809
446, 1.61525, 359.874, 87.7545, -0.000976562, 0, -0.000976562, 0.0195312, 0.272461, -9.70996, 1.18.2022 20:12:17.817
447, 1.6104, 359.879, 87.7545, 0, 0, -0.000976562, -0.00976562, 0.283203, -9.74023, 1.18.2022 20:12:17.825
448, 1.6104, 359.879, 87.7545, 0, 0, -0.00195312, 0.0742188, 0.234375, -9.71875, 1.18.2022 20:12:17.833
449, 1.6104, 359.879, 87.7545, 0, -0.000976562, -0.00195312, 0.00976562, 0.248047, -9.74609, 1.18.2022 20:12:17.841
450, 1.6104, 359.879, 87.7545, -0.000976562, 0, -0.00195312, 0.00976562, 0.263672, -9.72363, 1.18.2022 20:12:17.849
451, 1.6104, 359.879, 87.7545, -0.000976562, -0.000976562, -0.00195312, 0.0742188, 0.277344, -9.71094, 1.18.2022 20:12:17.857
452, 1.6104, 359.879, 87.7545, 0, -0.000976562, -0.000976562, -0.0078125, 0.289062, -9.78223, 1.18.2022 20:12:17.865
453, 1.6104, 359.879, 87.7545, -0.000976562, -0.000976562, -0.000976562, 0.0263672, 0.285156, -9.72852, 1.18.2022 20:12:17.873
454, 1.6104, 359.879, 87.7545, 0, -0.000976562, 0, 0.0371094, 0.253906, -9.78613, 1.18.2022 20:12:17.881
455, 1.6104, 359.879, 87.7545, -0.000976562, 0, -0.000976562, -0.00488281, 0.303711, -9.76953, 1.18.2022 20:12:17.889
456, 1.6104, 359.879, 87.7545, -0.000976562, -0.000976562, 0, 0.046875, 0.234375, -9.78223, 1.18.2022 20:12:17.897
457, 1.6104, 359.879, 87.7545, 0, 0, -0.000976562, 0.0195312, 0.25293, -9.69629, 1.18.2022 20:12:17.905
458, 1.6104, 359.879, 87.7545, -0.000976562, 0, -0.000976562, 0.0078125, 0.270508, -9.70996, 1.18.2022 20:12:17.913
459, 1.6104, 359.879, 87.7545, -0.000976562, -0.000976562, 0, 0.0761719, 0.273438, -9.73633, 1.18.2022 20:12:17.921
460, 1.6104, 359.879, 87.7545, -0.000976562, -0.000976562, -0.000976562, -0.0419922, 0.296875, -9.71973, 1.18.2022 20:12:17.929
461, 1.6104, 359.879, 87.7545, 0, 0, 0, 0.0410156, 0.287109, -9.72363, 1.18.2022 20:12:17.937
462, 1.6104, 359.879, 87.7545, -0.000976562, 0, -0.000976562, 0.0546875, 0.262695, -9.77637, 1.18.2022 20:12:17.945
463, 1.60536, 359.875, 87.7546, 0, 0, -0.000976562, -0.0185547, 0.287109, -9.70215, 1.18.2022 20:12:17.953
464, 1.60536, 359.875, 87.7546, -0.000976562, 0, -0.000976562, 0.0546875, 0.268555, -9.73926, 1.18.2022 20:12:17.961
465, 1.60536, 359.875, 87.7546, 0, 0, -0.000976562, 0.0078125, 0.296875, -9.72754, 1.18.2022 20:12:17.969
466, 1.60536, 359.875, 87.7546, -0.000976562, 0, -0.000976562, 0.00585938, 0.287109, -9.70898, 1.18.2022 20:12:17.977
467, 1.60536, 359.875, 87.7546, 0, -0.000976562, 0, 0.0742188, 0.254883, -9.75586, 1.18.2022 20:12:17.985
468, 1.60536, 359.875, 87.7546, -0.000976562, 0, 0, -0.0498047, 0.273438, -9.7373, 1.18.2022 20:12:17.993
469, 1.60536, 359.875, 87.7546, 0, 0, -0.000976562, -0.0078125, 0.28418, -9.77246, 1.18.2022 20:12:18.001
470, 1.60536, 359.875, 87.7546, -0.000976562, 0, -0.000976562, 0.0644531, 0.271484, -9.75781, 1.18.2022 20:12:18.009
471, 1.60536, 359.875, 87.7546, 0, 0, -0.00195312, -0.0224609, 0.300781, -9.6748, 1.18.2022 20:12:18.017
472, 1.60536, 359.875, 87.7546, -0.000976562, -0.000976562, -0.000976562, 0.0478516, 0.254883, -9.75098, 1.18.2022 20:12:18.025
473, 1.60536, 359.875, 87.7546, 0, 0, -0.000976562, 0.046875, 0.250977, -9.6875, 1.18.2022 20:12:18.033
474, 1.60536, 359.875, 87.7546, 0, -0.000976562, -0.000976562, -0.0351562, 0.264648, -9.7373, 1.18.2022 20:12:18.041
475, 1.60536, 359.875, 87.7546, -0.000976562, 0, 0, 0.0429688, 0.24707, -9.72754, 1.18.2022 20:12:18.049
476, 1.60536, 359.875, 87.7546, -0.000976562, 0, -0.000976562, -0.0146484, 0.28125, -9.75391, 1.18.2022 20:12:18.055
477, 1.60536, 359.875, 87.7546, -0.000976562, -0.00195312, -0.000976562, -0.0234375, 0.299805, -9.74121, 1.18.2022 20:12:18.063
478, 1.60536, 359.875, 87.7546, 0, -0.000976562, -0.000976562, 0.0527344, 0.27832, -9.72168, 1.18.2022 20:12:18.071
479, 1.60536, 359.875, 87.7546, 0, -0.000976562, -0.000976562, -0.0185547, 0.294922, -9.72754, 1.18.2022 20:12:18.079
480, 1.60536, 359.875, 87.7546, -0.000976562, -0.000976562, -0.000976562, 0.0605469, 0.275391, -9.72461, 1.18.2022 20:12:18.087
481, 1.6104, 359.879, 87.7545, -0.000976562, -0.000976562, -0.000976562, 0.0410156, 0.283203, -9.73145, 1.18.2022 20:12:18.095
482, 1.6104, 359.879, 87.7545, -0.000976562, -0.000976562, -0.000976562, 0, 0.290039, -9.73535, 1.18.2022 20:12:18.103
483, 1.6104, 359.879, 87.7545, -0.000976562, -0.000976562, -0.000976562, 0.0664062, 0.256836, -9.74902, 1.18.2022 20:12:18.111
484, 1.6104, 359.879, 87.7545, -0.000976562, 0, -0.000976562, 0.00488281, 0.27832, -9.7373, 1.18.2022 20:12:18.119
485, 1.6104, 359.879, 87.7545, -0.000976562, -0.000976562, -0.000976562, 0.0175781, 0.301758, -9.72266, 1.18.2022 20:12:18.127
486, 1.6104, 359.879, 87.7545, -0.000976562, -0.000976562, -0.000976562, 0.0722656, 0.260742, -9.70898, 1.18.2022 20:12:18.135
487, 1.6104, 359.879, 87.7545, -0.000976562, 0, -0.000976562, -0.0371094, 0.290039, -9.71777, 1.18.2022 20:12:18.143
488, 1.61525, 359.874, 87.7545, -0.00195312, -0.000976562, 0, 0.0126953, 0.298828, -9.69922, 1.18.2022 20:12:18.151
489, 1.62029, 359.879, 87.7544, -0.00195312, -0.000976562, 0, 0.0546875, 0.245117, -9.73438, 1.18.2022 20:12:18.159
490, 1.62029, 359.879, 87.7544, -0.000976562, -0.000976562, -0.000976562, -0.0146484, 0.30957, -9.74805, 1.18.2022 20:12:18.167
491, 1.62029, 359.879, 87.7544, 0, 0, -0.000976562, 0.0791016, 0.259766, -9.74414, 1.18.2022 20:12:18.175
492, 1.62029, 359.879, 87.7544, -0.000976562, -0.000976562, -0.000976562, 0.0126953, 0.266602, -9.72656, 1.18.2022 20:12:18.183
493, 1.62029, 359.879, 87.7544, -0.000976562, 0, -0.000976562, -0.0332031, 0.291016, -9.74121, 1.18.2022 20:12:18.191
494, 1.62029, 359.879, 87.7544, -0.000976562, -0.000976562, -0.000976562, 0.0537109, 0.253906, -9.7041, 1.18.2022 20:12:18.199
495, 1.62029, 359.879, 87.7544, -0.000976562, 0, 0, -0.0283203, 0.292969, -9.74414, 1.18.2022 20:12:18.207
496, 1.62029, 359.879, 87.7544, 0, -0.000976562, 0, 0.03125, 0.276367, -9.74805, 1.18.2022 20:12:18.215
497, 1.62029, 359.879, 87.7544, 0, -0.000976562, -0.000976562, 0.0458984, 0.254883, -9.73633, 1.18.2022 20:12:18.223
498, 1.62029, 359.879, 87.7544, -0.000976562, -0.000976562, -0.000976562, -0.0302734, 0.288086, -9.73242, 1.18.2022 20:12:18.231
499, 1.62029, 359.879, 87.7544, -0.000976562, -0.000976562, -0.00195312, 0.0722656, 0.273438, -9.72754, 1.18.2022 20:12:18.239
500, 1.62029, 359.879, 87.7544, -0.000976562, -0.000976562, -0.000976562, 0.0214844, 0.282227, -9.77539, 1.18.2022 20:12:18.247
501, 1.62029, 359.879, 87.7544, -0.000976562, 0, 0, -0.0234375, 0.283203, -9.72754, 1.18.2022 20:12:18.255
502, 1.62514, 359.874, 87.7544, -0.00195312, 0, 0, 0.0595703, 0.250977, -9.77246, 1.18.2022 20:12:18.263
503, 1.62514, 359.874, 87.7544, -0.000976562, 0, 0, -0.03125, 0.271484, -9.75391, 1.18.2022 20:12:18.271
504, 1.63017, 359.879, 87.7543, -0.000976562, -0.000976562, -0.000976562, 0, 0.28125, -9.74219, 1.18.2022 20:12:18.279
505, 1.63017, 359.879, 87.7543, -0.000976562, 0, -0.000976562, 0.0605469, 0.255859, -9.71094, 1.18.2022 20:12:18.287
506, 1.63017, 359.879, 87.7543, 0, -0.000976562, -0.000976562, -0.0449219, 0.299805, -9.72656, 1.18.2022 20:12:18.295
507, 1.63017, 359.879, 87.7543, -0.000976562, -0.000976562, 0, 0.0605469, 0.250977, -9.69434, 1.18.2022 20:12:18.303
508, 1.63017, 359.879, 87.7543, -0.000976562, -0.000976562, -0.000976562, 0.0410156, 0.260742, -9.71484, 1.18.2022 20:12:18.311
509, 1.63017, 359.879, 87.7543, -0.000976562, 0, -0.000976562, -0.0283203, 0.28125, -9.75391, 1.18.2022 20:12:18.319
510, 1.63017, 359.879, 87.7543, -0.000976562, -0.000976562, -0.000976562, 0.0673828, 0.262695, -9.69629, 1.18.2022 20:12:18.327
511, 1.62533, 359.884, 87.7542, -0.00195312, -0.000976562, -0.000976562, 0.0078125, 0.277344, -9.70508, 1.18.2022 20:12:18.335
512, 1.62533, 359.884, 87.7542, -0.000976562, -0.000976562, -0.00195312, -0.00683594, 0.27832, -9.74023, 1.18.2022 20:12:18.343
513, 1.62533, 359.884, 87.7542, -0.00195312, 0, 0, 0.0673828, 0.274414, -9.69629, 1.18.2022 20:12:18.351
514, 1.62533, 359.884, 87.7542, -0.000976562, 0, -0.000976562, -0.015625, 0.287109, -9.70605, 1.18.2022 20:12:18.359
515, 1.62533, 359.884, 87.7542, -0.000976562, 0, -0.000976562, 0.0429688, 0.253906, -9.72754, 1.18.2022 20:12:18.367
516, 1.62533, 359.884, 87.7542, 0, -0.000976562, -0.000976562, 0.0400391, 0.25293, -9.77637, 1.18.2022 20:12:18.375
517, 1.62533, 359.884, 87.7542, -0.000976562, 0, -0.000976562, -0.0253906, 0.291992, -9.71582, 1.18.2022 20:12:18.383
518, 1.62533, 359.884, 87.7542, 0, -0.000976562, -0.000976562, 0.0595703, 0.266602, -9.75781, 1.18.2022 20:12:18.391
519, 1.62533, 359.884, 87.7542, 0, 0, -0.000976562, 0.0126953, 0.275391, -9.72363, 1.18.2022 20:12:18.399
520, 1.62533, 359.884, 87.7542, 0, 0, -0.000976562, 0.00683594, 0.298828, -9.78711, 1.18.2022 20:12:18.407
521, 1.62029, 359.879, 87.7544, 0, 0, -0.000976562, 0.0761719, 0.25293, -9.75391, 1.18.2022 20:12:18.415
522, 1.62029, 359.879, 87.7544, -0.000976562, 0, -0.000976562, -0.0341797, 0.260742, -9.77051, 1.18.2022 20:12:18.423
523, 1.62029, 359.879, 87.7544, -0.000976562, 0, 0, 0.0214844, 0.291016, -9.74512, 1.18.2022 20:12:18.431
524, 1.62029, 359.879, 87.7544, -0.000976562, 0, 0, 0.0527344, 0.25, -9.73438, 1.18.2022 20:12:18.439
525, 1.62029, 359.879, 87.7544, -0.000976562, -0.000976562, -0.000976562, -0.0136719, 0.292969, -9.74414, 1.18.2022 20:12:18.447
526, 1.62029, 359.879, 87.7544, 0, -0.000976562, -0.000976562, 0.0380859, 0.274414, -9.75684, 1.18.2022 20:12:18.455
527, 1.62029, 359.879, 87.7544, -0.00195312, 0, -0.000976562, 0.0410156, 0.258789, -9.71289, 1.18.2022 20:12:18.463
528, 1.62029, 359.879, 87.7544, -0.00195312, -0.000976562, -0.000976562, -0.00292969, 0.274414, -9.76367, 1.18.2022 20:12:18.471
529, 1.62029, 359.879, 87.7544, -0.000976562, 0, -0.000976562, 0.0693359, 0.260742, -9.72266, 1.18.2022 20:12:18.479
530, 1.62029, 359.879, 87.7544, 0, -0.000976562, 0, -0.0449219, 0.275391, -9.71582, 1.18.2022 20:12:18.487
531, 1.62029, 359.879, 87.7544, -0.000976562, 0, 0, 0.0224609, 0.272461, -9.70312, 1.18.2022 20:12:18.495
532, 1.62029, 359.879, 87.7544, 0, -0.000976562, -0.000976562, 0.0410156, 0.244141, -9.7041, 1.18.2022 20:12:18.503
533, 1.61525, 359.874, 87.7545, 0, -0.000976562, -0.000976562, -0.0634766, 0.25293, -9.69238, 1.18.2022 20:12:18.511
534, 1.61525, 359.874, 87.7545, 0, -0.000976562, -0.000976562, 0.0527344, 0.274414, -9.7627, 1.18.2022 20:12:18.519
535, 1.61525, 359.874, 87.7545, 0, 0, -0.000976562, 0.0292969, 0.272461, -9.70801, 1.18.2022 20:12:18.527
536, 1.61525, 359.874, 87.7545, 0, -0.000976562, -0.000976562, 0, 0.264648, -9.76855, 1.18.2022 20:12:18.535
537, 1.6104, 359.879, 87.7545, -0.000976562, -0.000976562, -0.000976562, 0.0742188, 0.261719, -9.73926, 1.18.2022 20:12:18.543
538, 1.6104, 359.879, 87.7545, -0.000976562, 0, -0.000976562, 0.0166016, 0.279297, -9.75879, 1.18.2022 20:12:18.551
539, 1.6104, 359.879, 87.7545, -0.000976562, -0.000976562, -0.000976562, 0.0361328, 0.290039, -9.71387, 1.18.2022 20:12:18.559
540, 1.6104, 359.879, 87.7545, -0.000976562, -0.000976562, -0.000976562, 0.0332031, 0.271484, -9.75293, 1.18.2022 20:12:18.567
541, 1.6104, 359.879, 87.7545, -0.000976562, -0.000976562, -0.000976562, -0.0400391, 0.28125, -9.73926, 1.18.2022 20:12:18.575
542, 1.6104, 359.879, 87.7545, -0.000976562, 0, -0.000976562, 0.0341797, 0.251953, -9.71973, 1.18.2022 20:12:18.583
543, 1.6104, 359.879, 87.7545, -0.000976562, -0.00195312, -0.00195312, 0.00195312, 0.274414, -9.77832, 1.18.2022 20:12:18.591
544, 1.6104, 359.879, 87.7545, 0, 0, -0.000976562, -0.0214844, 0.28418, -9.76562, 1.18.2022 20:12:18.599
545, 1.6104, 359.879, 87.7545, 0.000976562, -0.000976562, 0, 0.0351562, 0.277344, -9.7832, 1.18.2022 20:12:18.607
546, 1.60536, 359.875, 87.7546, 0, -0.000976562, -0.000976562, -0.0195312, 0.286133, -9.7627, 1.18.2022 20:12:18.615
547, 1.60556, 359.884, 87.7545, -0.000976562, -0.000976562, 0, 0.0078125, 0.301758, -9.72754, 1.18.2022 20:12:18.623
548, 1.60556, 359.884, 87.7545, 0, -0.000976562, -0.000976562, 0.0722656, 0.232422, -9.73047, 1.18.2022 20:12:18.631
549, 1.60556, 359.884, 87.7545, -0.000976562, 0, -0.000976562, -0.0302734, 0.276367, -9.73047, 1.18.2022 20:12:18.639
550, 1.60556, 359.884, 87.7545, -0.00195312, -0.000976562, -0.000976562, 0.0380859, 0.268555, -9.74121, 1.18.2022 20:12:18.647
551, 1.60556, 359.884, 87.7545, -0.000976562, -0.000976562, -0.000976562, 0.0244141, 0.251953, -9.74121, 1.18.2022 20:12:18.655
552, 1.60556, 359.884, 87.7545, -0.000976562, 0, -0.00195312, -0.03125, 0.289062, -9.75586, 1.18.2022 20:12:18.663
553, 1.60556, 359.884, 87.7545, 0, -0.00195312, 0, 0.0712891, 0.25293, -9.7627, 1.18.2022 20:12:18.671
554, 1.60556, 359.884, 87.7545, 0, 0, -0.000976562, 0.00976562, 0.273438, -9.74512, 1.18.2022 20:12:18.679
555, 1.60556, 359.884, 87.7545, -0.000976562, 0, -0.000976562, 0.00390625, 0.294922, -9.80859, 1.18.2022 20:12:18.687
556, 1.60556, 359.884, 87.7545, 0, -0.000976562, -0.00195312, 0.0332031, 0.254883, -9.75586, 1.18.2022 20:12:18.695
557, 1.60071, 359.889, 87.7545, 0, 0, -0.00195312, 0.0195312, 0.275391, -9.72656, 1.18.2022 20:12:18.703
558, 1.60071, 359.889, 87.7545, 0, -0.000976562, -0.000976562, -0.00195312, 0.269531, -9.75, 1.18.2022 20:12:18.711
559, 1.60071, 359.889, 87.7545, 0.00195312, -0.000976562, -0.00195312, 0.0078125, 0.251953, -9.72949, 1.18.2022 20:12:18.719
560, 1.60071, 359.889, 87.7545, -0.000976562, 0, 0, -0.0234375, 0.280273, -9.73047, 1.18.2022 20:12:18.727
561, 1.60071, 359.889, 87.7545, 0, 0, 0.000976562, 0.0771484, 0.289062, -9.70996, 1.18.2022 20:12:18.735
562, 1.60071, 359.889, 87.7545, 0, 0, 0.000976562, 0.0410156, 0.251953, -9.74609, 1.18.2022 20:12:18.743
563, 1.60071, 359.889, 87.7545, -0.000976562, -0.000976562, -0.000976562, 0.0185547, 0.265625, -9.78516, 1.18.2022 20:12:18.751
564, 1.60071, 359.889, 87.7545, -0.000976562, -0.000976562, -0.000976562, 0.0576172, 0.230469, -9.73242, 1.18.2022 20:12:18.759
565, 1.60071, 359.889, 87.7545, -0.000976562, -0.000976562, -0.000976562, -0.0214844, 0.297852, -9.74414, 1.18.2022 20:12:18.767
566, 1.60071, 359.889, 87.7545, -0.000976562, -0.000976562, -0.000976562, -0.00195312, 0.263672, -9.72656, 1.18.2022 20:12:18.775
567, 1.60071, 359.889, 87.7545, -0.000976562, -0.000976562, 0.000976562, 0.0605469, 0.275391, -9.71289, 1.18.2022 20:12:18.783
568, 1.60071, 359.889, 87.7545, -0.000976562, -0.000976562, -0.000976562, -0.0302734, 0.296875, -9.72266, 1.18.2022 20:12:18.791
569, 1.60071, 359.889, 87.7545, 0, -0.000976562, -0.000976562, 0.0517578, 0.257812, -9.76758, 1.18.2022 20:12:18.799
570, 1.60071, 359.889, 87.7545, -0.000976562, -0.000976562, -0.000976562, 0.0273438, 0.256836, -9.81641, 1.18.2022 20:12:18.807
571, 1.60071, 359.889, 87.7545, -0.000976562, -0.000976562, 0.000976562, -0.0234375, 0.292969, -9.73438, 1.18.2022 20:12:18.815
572, 1.60071, 359.889, 87.7545, -0.000976562, -0.000976562, -0.000976562, 0.0595703, 0.266602, -9.74414, 1.18.2022 20:12:18.823
573, 1.60071, 359.889, 87.7545, -0.000976562, 0, -0.00195312, 0.0078125, 0.289062, -9.6875, 1.18.2022 20:12:18.831
574, 1.60071, 359.889, 87.7545, -0.000976562, -0.000976562, -0.00195312, -0.0185547, 0.294922, -9.71094, 1.18.2022 20:12:18.839
575, 1.60071, 359.889, 87.7545, -0.000976562, -0.000976562, -0.000976562, 0.0351562, 0.282227, -9.77832, 1.18.2022 20:12:18.847
576, 1.60071, 359.889, 87.7545, -0.000976562, -0.000976562, -0.000976562, -0.0449219, 0.292969, -9.73926, 1.18.2022 20:12:18.855
577, 1.60071, 359.889, 87.7545, -0.000976562, 0, 0, 0.0478516, 0.277344, -9.71973, 1.18.2022 20:12:18.863
578, 1.60071, 359.889, 87.7545, -0.000976562, -0.000976562, -0.000976562, 0.0527344, 0.27832, -9.73828, 1.18.2022 20:12:18.871
579, 1.60071, 359.889, 87.7545, -0.000976562, -0.000976562, -0.000976562, 0.0214844, 0.302734, -9.75391, 1.18.2022 20:12:18.879
580, 1.60071, 359.889, 87.7545, 0, -0.000976562, -0.000976562, 0.0644531, 0.289062, -9.76172, 1.18.2022 20:12:18.887
581, 1.60071, 359.889, 87.7545, 0, -0.000976562, -0.000976562, 0.00976562, 0.262695, -9.76172, 1.18.2022 20:12:18.895
582, 1.60071, 359.889, 87.7545, -0.00195312, -0.000976562, 0, 0.0175781, 0.288086, -9.73047, 1.18.2022 20:12:18.903
583, 1.60071, 359.889, 87.7545, 0, 0, 0, 0.0625, 0.245117, -9.73242, 1.18.2022 20:12:18.911
584, 1.60071, 359.889, 87.7545, 0, -0.000976562, 0.000976562, -0.046875, 0.274414, -9.69238, 1.18.2022 20:12:18.919
585, 1.60556, 359.884, 87.7545, -0.000976562, -0.000976562, -0.000976562, 0.0224609, 0.290039, -9.72363, 1.18.2022 20:12:18.927
586, 1.60556, 359.884, 87.7545, 0, -0.000976562, -0.000976562, 0.0693359, 0.246094, -9.76562, 1.18.2022 20:12:18.935
587, 1.6106, 359.889, 87.7544, -0.000976562, -0.000976562, -0.000976562, -0.0146484, 0.291016, -9.75586, 1.18.2022 20:12:18.943
588, 1.6106, 359.889, 87.7544, -0.000976562, -0.000976562, -0.000976562, 0.0595703, 0.270508, -9.72656, 1.18.2022 20:12:18.951
589, 1.6106, 359.889, 87.7544, 0, -0.000976562, -0.000976562, -0.00878906, 0.266602, -9.73535, 1.18.2022 20:12:18.959
590, 1.6106, 359.889, 87.7544, 0, -0.000976562, -0.000976562, -0.0117188, 0.298828, -9.76562, 1.18.2022 20:12:18.967
591, 1.6106, 359.889, 87.7544, -0.000976562, -0.000976562, -0.000976562, 0.0820312, 0.249023, -9.71582, 1.18.2022 20:12:18.975
592, 1.6106, 359.889, 87.7544, 0, -0.000976562, 0, -0.0244141, 0.293945, -9.76953, 1.18.2022 20:12:18.983
593, 1.6106, 359.889, 87.7544, 0, -0.000976562, -0.000976562, 0.0126953, 0.298828, -9.69922, 1.18.2022 20:12:18.991
594, 1.6106, 359.889, 87.7544, -0.000976562, -0.000976562, -0.000976562, 0.0429688, 0.267578, -9.7666, 1.18.2022 20:12:18.999
595, 1.61544, 359.884, 87.7544, -0.000976562, 0, -0.000976562, -0.00585938, 0.298828, -9.7041, 1.18.2022 20:12:19.007
596, 1.61544, 359.884, 87.7544, -0.000976562, -0.000976562, -0.000976562, 0.0859375, 0.290039, -9.74609, 1.18.2022 20:12:19.015
597, 1.61544, 359.884, 87.7544, -0.000976562, -0.000976562, 0, 0.0234375, 0.25293, -9.77441, 1.18.2022 20:12:19.023
598, 1.61544, 359.884, 87.7544, -0.000976562, -0.000976562, -0.000976562, 0, 0.266602, -9.74707, 1.18.2022 20:12:19.031
599, 1.61544, 359.884, 87.7544, -0.000976562, -0.000976562, -0.000976562, 0.0888672, 0.258789, -9.74219, 1.18.2022 20:12:19.037
600, 1.61544, 359.884, 87.7544, -0.000976562, -0.000976562, -0.000976562, 0.00683594, 0.264648, -9.75195, 1.18.2022 20:12:19.045
601, 1.62029, 359.879, 87.7544, -0.00195312, -0.000976562, -0.00195312, -0.0078125, 0.306641, -9.80078, 1.18.2022 20:12:19.053
602, 1.62029, 359.879, 87.7544, -0.000976562, 0, -0.000976562, 0.0517578, 0.267578, -9.7832, 1.18.2022 20:12:19.061
603, 1.62029, 359.879, 87.7544, -0.000976562, -0.000976562, 0, -0.0380859, 0.266602, -9.74414, 1.18.2022 20:12:19.069
604, 1.62029, 359.879, 87.7544, 0, 0, 0, 0.0449219, 0.259766, -9.75977, 1.18.2022 20:12:19.077
605, 1.62029, 359.879, 87.7544, 0, -0.000976562, -0.000976562, 0.03125, 0.269531, -9.75, 1.18.2022 20:12:19.085
606, 1.62029, 359.879, 87.7544, -0.000976562, -0.000976562, -0.000976562, -0.0146484, 0.287109, -9.78223, 1.18.2022 20:12:19.093
607, 1.62029, 359.879, 87.7544, 0, -0.000976562, -0.000976562, 0.0527344, 0.238281, -9.74707, 1.18.2022 20:12:19.101
608, 1.62029, 359.879, 87.7544, 0, -0.000976562, -0.000976562, -0.00683594, 0.250977, -9.70801, 1.18.2022 20:12:19.109
609, 1.62029, 359.879, 87.7544, -0.000976562, -0.000976562, -0.00195312, -0.0214844, 0.27832, -9.73047, 1.18.2022 20:12:19.117
610, 1.61525, 359.874, 87.7545, 0, -0.000976562, -0.000976562, 0.0888672, 0.258789, -9.73047, 1.18.2022 20:12:19.125
611, 1.61525, 359.874, 87.7545, -0.000976562, -0.000976562, 0, -0.0332031, 0.27832, -9.73242, 1.18.2022 20:12:19.133
612, 1.61525, 359.874, 87.7545, -0.000976562, -0.000976562, -0.00195312, 0.03125, 0.251953, -9.73438, 1.18.2022 20:12:19.141
613, 1.61525, 359.874, 87.7545, -0.000976562, -0.000976562, -0.000976562, 0.0429688, 0.28125, -9.75977, 1.18.2022 20:12:19.149
614, 1.61525, 359.874, 87.7545, -0.000976562, 0, -0.000976562, -0.0283203, 0.291016, -9.75781, 1.18.2022 20:12:19.157
615, 1.61525, 359.874, 87.7545, -0.000976562, 0, 0, 0.0673828, 0.251953, -9.74219, 1.18.2022 20:12:19.165
616, 1.61525, 359.874, 87.7545, -0.000976562, -0.000976562, 0, 0.0175781, 0.285156, -9.71875, 1.18.2022 20:12:19.173
617, 1.61525, 359.874, 87.7545, 0, -0.000976562, -0.000976562, -0.0126953, 0.300781, -9.77246, 1.18.2022 20:12:19.181
618, 1.61525, 359.874, 87.7545, 0, -0.000976562, 0, 0.0458984, 0.24707, -9.73242, 1.18.2022 20:12:19.189
619, 1.61525, 359.874, 87.7545, -0.000976562, -0.000976562, 0, -0.0234375, 0.254883, -9.74707, 1.18.2022 20:12:19.197
620, 1.61525, 359.874, 87.7545, -0.000976562, -0.000976562, -0.000976562, 0.0146484, 0.279297, -9.75195, 1.18.2022 20:12:19.205
621, 1.61525, 359.874, 87.7545, -0.000976562, -0.000976562, -0.00195312, 0.0683594, 0.262695, -9.77734, 1.18.2022 20:12:19.213
622, 1.61525, 359.874, 87.7545, -0.000976562, -0.000976562, -0.000976562, -0.0234375, 0.297852, -9.74902, 1.18.2022 20:12:19.221
623, 1.61525, 359.874, 87.7545, 0, -0.000976562, -0.000976562, 0.0546875, 0.266602, -9.74609, 1.18.2022 20:12:19.229
624, 1.61525, 359.874, 87.7545, -0.000976562, 0, -0.000976562, 0.0263672, 0.253906, -9.71777, 1.18.2022 20:12:19.237
625, 1.61525, 359.874, 87.7545, -0.000976562, -0.000976562, -0.000976562, -0.00976562, 0.266602, -9.74023, 1.18.2022 20:12:19.245
626, 1.61525, 359.874, 87.7545, 0, 0, -0.000976562, 0.0693359, 0.240234, -9.72852, 1.18.2022 20:12:19.253
627, 1.60536, 359.875, 87.7546, 0, 0, 0, -0.0078125, 0.250977, -9.7832, 1.18.2022 20:12:19.261
628, 1.60536, 359.875, 87.7546, 0, -0.000976562, -0.000976562, 0.0126953, 0.263672, -9.73145, 1.18.2022 20:12:19.269
629, 1.60536, 359.875, 87.7546, -0.000976562, -0.000976562, -0.000976562, 0.0576172, 0.275391, -9.73438, 1.18.2022 20:12:19.277
630, 1.60536, 359.875, 87.7546, -0.000976562, 0, -0.000976562, -0.0253906, 0.288086, -9.72754, 1.18.2022 20:12:19.285
631, 1.60536, 359.875, 87.7546, 0, -0.000976562, -0.000976562, 0.0332031, 0.262695, -9.77832, 1.18.2022 20:12:19.293
632, 1.60536, 359.875, 87.7546, -0.000976562, -0.000976562, 0, 0.0380859, 0.276367, -9.74512, 1.18.2022 20:12:19.301
633, 1.60536, 359.875, 87.7546, -0.000976562, -0.00195312, 0, -0.0478516, 0.28125, -9.74121, 1.18.2022 20:12:19.309
634, 1.60536, 359.875, 87.7546, 0, -0.000976562, -0.000976562, 0.0644531, 0.24707, -9.73047, 1.18.2022 20:12:19.317
635, 1.60536, 359.875, 87.7546, -0.000976562, -0.00195312, -0.000976562, 0.0166016, 0.259766, -9.74805, 1.18.2022 20:12:19.325
636, 1.60052, 359.88, 87.7546, 0, 0, -0.000976562, 0.0214844, 0.264648, -9.76172, 1.18.2022 20:12:19.333
637, 1.59548, 359.875, 87.7548, -0.000976562, -0.000976562, -0.000976562, 0.0693359, 0.270508, -9.73145, 1.18.2022 20:12:19.341
638, 1.59548, 359.875, 87.7548, 0, -0.000976562, -0.000976562, -0.0166016, 0.288086, -9.73047, 1.18.2022 20:12:19.349
639, 1.59548, 359.875, 87.7548, -0.000976562, -0.000976562, -0.000976562, 0.0244141, 0.308594, -9.7041, 1.18.2022 20:12:19.357
640, 1.59548, 359.875, 87.7548, -0.000976562, -0.000976562, -0.000976562, 0.0302734, 0.246094, -9.77246, 1.18.2022 20:12:19.365
641, 1.59548, 359.875, 87.7548, -0.000976562, -0.000976562, -0.000976562, -0.0332031, 0.276367, -9.73926, 1.18.2022 20:12:19.373
642, 1.59548, 359.875, 87.7548, -0.000976562, -0.000976562, -0.000976562, 0.0693359, 0.280273, -9.72461, 1.18.2022 20:12:19.381
643, 1.59548, 359.875, 87.7548, -0.000976562, -0.000976562, -0.000976562, 0.0263672, 0.264648, -9.74316, 1.18.2022 20:12:19.389
644, 1.59548, 359.875, 87.7548, -0.000976562, 0, -0.000976562, 0.000976562, 0.291992, -9.71582, 1.18.2022 20:12:19.397
645, 1.59548, 359.875, 87.7548, -0.000976562, -0.000976562, -0.000976562, 0.0742188, 0.263672, -9.7373, 1.18.2022 20:12:19.405
646, 1.59548, 359.875, 87.7548, 0, 0, -0.000976562, -0.0283203, 0.291992, -9.71582, 1.18.2022 20:12:19.413
647, 1.59548, 359.875, 87.7548, -0.000976562, -0.000976562, 0, 0.00976562, 0.28125, -9.7373, 1.18.2022 20:12:19.421
648, 1.59548, 359.875, 87.7548, -0.000976562, 0, 0, 0.0585938, 0.243164, -9.6875, 1.18.2022 20:12:19.429
649, 1.59548, 359.875, 87.7548, -0.000976562, 0, -0.000976562, -0.0214844, 0.313477, -9.77637, 1.18.2022 20:12:19.437
650, 1.59548, 359.875, 87.7548, -0.000976562, 0, 0, 0.0498047, 0.243164, -9.7627, 1.18.2022 20:12:19.445
651, 1.59548, 359.875, 87.7548, -0.000976562, 0, -0.000976562, 0.03125, 0.276367, -9.75488, 1.18.2022 20:12:19.453
652, 1.59548, 359.875, 87.7548, -0.000976562, 0, -0.000976562, 0.00488281, 0.28125, -9.74219, 1.18.2022 20:12:19.461
653, 1.60032, 359.87, 87.7548, -0.000976562, -0.000976562, -0.000976562, 0.0810547, 0.27832, -9.75586, 1.18.2022 20:12:19.469
654, 1.60032, 359.87, 87.7548, 0, 0, -0.000976562, -0.00976562, 0.269531, -9.76172, 1.18.2022 20:12:19.477
655, 1.60032, 359.87, 87.7548, -0.000976562, -0.000976562, -0.000976562, 0.00976562, 0.290039, -9.74023, 1.18.2022 20:12:19.485
656, 1.60032, 359.87, 87.7548, -0.000976562, -0.000976562, 0, 0.0390625, 0.249023, -9.71973, 1.18.2022 20:12:19.493
657, 1.60032, 359.87, 87.7548, -0.000976562, 0, -0.000976562, -0.0400391, 0.271484, -9.73535, 1.18.2022 20:12:19.501
658, 1.60032, 359.87, 87.7548, -0.000976562, 0, -0.00195312, 0.0458984, 0.271484, -9.73828, 1.18.2022 20:12:19.509
659, 1.60032, 359.87, 87.7548, -0.000976562, 0, -0.000976562, 0.0556641, 0.256836, -9.72754, 1.18.2022 20:12:19.517
660, 1.60032, 359.87, 87.7548, -0.000976562, -0.000976562, -0.000976562, -0.0146484, 0.314453, -9.75488, 1.18.2022 20:12:19.525
661, 1.60032, 359.87, 87.7548, -0.000976562, 0, 0, 0.0908203, 0.290039, -9.74609, 1.18.2022 20:12:19.533
662, 1.60032, 359.87, 87.7548, 0, -0.000976562, 0, 0, 0.268555, -9.72852, 1.18.2022 20:12:19.541
663, 1.60032, 359.87, 87.7548, -0.000976562, -0.000976562, 0, -0.0136719, 0.263672, -9.73535, 1.18.2022 20:12:19.549
664, 1.60032, 359.87, 87.7548, -0.000976562, 0, -0.000976562, 0.0839844, 0.261719, -9.74414, 1.18.2022 20:12:19.557
665, 1.60517, 359.865, 87.7548, -0.000976562, 0, -0.000976562, -0.0332031, 0.28125, -9.7627, 1.18.2022 20:12:19.565
666, 1.60517, 359.865, 87.7548, 0, 0, -0.00195312, 0.0527344, 0.256836, -9.74414, 1.18.2022 20:12:19.573
667, 1.60517, 359.865, 87.7548, 0, 0, -0.000976562, 0.0615234, 0.250977, -9.76758, 1.18.2022 20:12:19.581
668, 1.60517, 359.865, 87.7548, 0, -0.000976562, -0.000976562, 0.00195312, 0.295898, -9.76367, 1.18.2022 20:12:19.589
669, 1.60517, 359.865, 87.7548, -0.000976562, 0, -0.000976562, 0.0859375, 0.273438, -9.72461, 1.18.2022 20:12:19.597
670, 1.60517, 359.865, 87.7548, -0.000976562, 0, -0.000976562, -0.0117188, 0.273438, -9.73535, 1.18.2022 20:12:19.605
671, 1.60517, 359.865, 87.7548, -0.000976562, -0.000976562, -0.000976562, -0.0117188, 0.271484, -9.7373, 1.18.2022 20:12:19.613
672, 1.60517, 359.865, 87.7548, -0.000976562, -0.000976562, -0.000976562, 0.0302734, 0.25293, -9.76758, 1.18.2022 20:12:19.621
673, 1.60517, 359.865, 87.7548, 0, -0.000976562, -0.000976562, -0.03125, 0.269531, -9.74902, 1.18.2022 20:12:19.629
674, 1.60517, 359.865, 87.7548, 0, 0, -0.000976562, -0.00195312, 0.302734, -9.73438, 1.18.2022 20:12:19.637
675, 1.60013, 359.86, 87.7549, 0, 0, -0.000976562, 0.0410156, 0.249023, -9.70801, 1.18.2022 20:12:19.645
676, 1.60013, 359.86, 87.7549, 0, -0.000976562, -0.000976562, -0.0234375, 0.276367, -9.74414, 1.18.2022 20:12:19.653
677, 1.60013, 359.86, 87.7549, 0, -0.000976562, -0.000976562, 0.0673828, 0.27832, -9.72949, 1.18.2022 20:12:19.661
678, 1.60013, 359.86, 87.7549, 0, 0, -0.00195312, 0.0175781, 0.290039, -9.71191, 1.18.2022 20:12:19.669
679, 1.60013, 359.86, 87.7549, 0, -0.000976562, -0.00195312, -0.0283203, 0.269531, -9.75391, 1.18.2022 20:12:19.677
680, 1.60013, 359.86, 87.7549, -0.000976562, -0.000976562, -0.000976562, 0.0556641, 0.251953, -9.72266, 1.18.2022 20:12:19.685
681, 1.60517, 359.865, 87.7548, -0.000976562, -0.000976562, -0.000976562, -0.00976562, 0.291016, -9.76074, 1.18.2022 20:12:19.693
682, 1.60517, 359.865, 87.7548, -0.000976562, 0, -0.000976562, 0, 0.266602, -9.75, 1.18.2022 20:12:19.701
683, 1.60517, 359.865, 87.7548, -0.000976562, -0.000976562, -0.00195312, 0.0576172, 0.243164, -9.75391, 1.18.2022 20:12:19.709
684, 1.60517, 359.865, 87.7548, 0, -0.000976562, -0.000976562, -0.0439453, 0.301758, -9.79102, 1.18.2022 20:12:19.717
685, 1.60539, 359.865, 87.7647, 0, -0.000976562, -0.000976562, 0.0439453, 0.272461, -9.70996, 1.18.2022 20:12:19.725
686, 1.60539, 359.865, 87.7647, 0, -0.000976562, -0.00195312, 0.00878906, 0.25293, -9.78125, 1.18.2022 20:12:19.733
687, 1.60539, 359.865, 87.7647, -0.000976562, -0.000976562, -0.000976562, -0.0214844, 0.288086, -9.7373, 1.18.2022 20:12:19.741
688, 1.60054, 359.87, 87.7646, 0, -0.000976562, 0, 0.0957031, 0.24707, -9.72852, 1.18.2022 20:12:19.749
689, 1.60054, 359.87, 87.7646, -0.000976562, -0.000976562, 0, -0.0214844, 0.246094, -9.77148, 1.18.2022 20:12:19.757
690, 1.60054, 359.87, 87.7646, -0.000976562, -0.000976562, 0, -0.00683594, 0.297852, -9.7373, 1.18.2022 20:12:19.765
691, 1.60054, 359.87, 87.7646, -0.000976562, 0, 0, 0.0722656, 0.242188, -9.71582, 1.18.2022 20:12:19.773
692, 1.60054, 359.87, 87.7646, -0.000976562, -0.000976562, 0.000976562, -0.0322266, 0.285156, -9.70898, 1.18.2022 20:12:19.781
693, 1.60536, 359.875, 87.7546, 0, -0.000976562, 0.000976562, 0.00585938, 0.285156, -9.71191, 1.18.2022 20:12:19.789
694, 1.60536, 359.875, 87.7546, -0.000976562, 0, 0.000976562, 0.0195312, 0.229492, -9.70898, 1.18.2022 20:12:19.797
695, 1.60536, 359.875, 87.7546, -0.000976562, 0, 0, -0.00878906, 0.302734, -9.7373, 1.18.2022 20:12:19.805
696, 1.60536, 359.875, 87.7546, -0.000976562, 0, -0.000976562, 0.078125, 0.254883, -9.76758, 1.18.2022 20:12:19.813
697, 1.60052, 359.88, 87.7546, -0.000976562, 0, 0, -0.00390625, 0.258789, -9.70996, 1.18.2022 20:12:19.821
698, 1.60052, 359.88, 87.7546, -0.000976562, 0, 0, 0.0175781, 0.291992, -9.7207, 1.18.2022 20:12:19.829
699, 1.60052, 359.88, 87.7546, -0.000976562, -0.000976562, 0.000976562, 0.0732422, 0.262695, -9.7793, 1.18.2022 20:12:19.837
700, 1.60052, 359.88, 87.7546, -0.000976562, 0, 0.000976562, -0.0185547, 0.299805, -9.7207, 1.18.2022 20:12:19.845
701, 1.60052, 359.88, 87.7546, -0.000976562, -0.000976562, 0.000976562, 0.0263672, 0.28418, -9.75879, 1.18.2022 20:12:19.853
702, 1.60052, 359.88, 87.7546, -0.000976562, 0, 0, 0.0605469, 0.274414, -9.68652, 1.18.2022 20:12:19.861
703, 1.60052, 359.88, 87.7546, -0.000976562, -0.000976562, 0.000976562, -0.0410156, 0.28418, -9.76074, 1.18.2022 20:12:19.869
704, 1.60052, 359.88, 87.7546, -0.000976562, 0, 0, 0.0839844, 0.291992, -9.72461, 1.18.2022 20:12:19.877
705, 1.60052, 359.88, 87.7546, 0, -0.000976562, 0.000976562, 0.0507812, 0.290039, -9.73828, 1.18.2022 20:12:19.885
706, 1.60052, 359.88, 87.7546, -0.000976562, 0, 0, -0.0136719, 0.289062, -9.70215, 1.18.2022 20:12:19.893
707, 1.60052, 359.88, 87.7546, -0.000976562, -0.000976562, 0, 0.0644531, 0.261719, -9.73242, 1.18.2022 20:12:19.901
708, 1.60052, 359.88, 87.7546, -0.000976562, 0, 0, -0.00390625, 0.27832, -9.73047, 1.18.2022 20:12:19.909
709, 1.60052, 359.88, 87.7546, 0, -0.000976562, -0.00195312, 0.00683594, 0.261719, -9.75488, 1.18.2022 20:12:19.917
710, 1.60052, 359.88, 87.7546, -0.000976562, -0.00195312, -0.00195312, 0.0546875, 0.228516, -9.74512, 1.18.2022 20:12:19.925
711, 1.60556, 359.884, 87.7545, -0.000976562, -0.000976562, -0.00195312, -0.0683594, 0.285156, -9.70996, 1.18.2022 20:12:19.933
712, 1.6104, 359.879, 87.7545, 0, 0, 0, 0.0273438, 0.285156, -9.71191, 1.18.2022 20:12:19.941
713, 1.6104, 359.879, 87.7545, -0.000976562, -0.000976562, 0, 0.0244141, 0.256836, -9.73828, 1.18.2022 20:12:19.949
714, 1.6104, 359.879, 87.7545, -0.000976562, -0.000976562, 0.000976562, 0.00683594, 0.272461, -9.76367, 1.18.2022 20:12:19.957
715, 1.6104, 359.879, 87.7545, 0, -0.000976562, 0.000976562, 0.0927734, 0.269531, -9.75391, 1.18.2022 20:12:19.965
716, 1.6104, 359.879, 87.7545, 0, 0, 0.000976562, -0.00195312, 0.267578, -9.70996, 1.18.2022 20:12:19.973
717, 1.6104, 359.879, 87.7545, -0.000976562, -0.000976562, 0.000976562, -0.0263672, 0.286133, -9.76074, 1.18.2022 20:12:19.981
718, 1.6104, 359.879, 87.7545, -0.000976562, 0, 0, 0.0722656, 0.267578, -9.70801, 1.18.2022 20:12:19.989
719, 1.6104, 359.879, 87.7545, -0.000976562, -0.000976562, 0, -0.0361328, 0.305664, -9.77148, 1.18.2022 20:12:19.997
720, 1.6104, 359.879, 87.7545, -0.000976562, 0, -0.00195312, 0.0507812, 0.271484, -9.73633, 1.18.2022 20:12:20.005
721, 1.6104, 359.879, 87.7545, 0, -0.00195312, -0.000976562, 0.0332031, 0.257812, -9.77148, 1.18.2022 20:12:20.011
722, 1.6104, 359.879, 87.7545, 0, 0, 0, -0.00976562, 0.288086, -9.74414, 1.18.2022 20:12:20.019
723, 1.6104, 359.879, 87.7545, 0, 0, -0.000976562, 0.0605469, 0.244141, -9.72266, 1.18.2022 20:12:20.027
724, 1.6104, 359.879, 87.7545, 0, -0.000976562, -0.000976562, 0.03125, 0.28125, -9.74707, 1.18.2022 20:12:20.035
725, 1.6104, 359.879, 87.7545, 0, -0.000976562, -0.00195312, 0, 0.282227, -9.77051, 1.18.2022 20:12:20.043
726, 1.6104, 359.879, 87.7545, -0.000976562, 0.000976562, -0.000976562, 0.0869141, 0.257812, -9.70703, 1.18.2022 20:12:20.051
727, 1.6104, 359.879, 87.7545, -0.000976562, -0.000976562, 0, -0.0078125, 0.282227, -9.78711, 1.18.2022 20:12:20.059
728, 1.60536, 359.875, 87.7546, 0, 0, -0.000976562, 0.0449219, 0.280273, -9.79004, 1.18.2022 20:12:20.067
729, 1.60536, 359.875, 87.7546, 0, -0.000976562, -0.000976562, 0.03125, 0.271484, -9.74805, 1.18.2022 20:12:20.075
730, 1.60536, 359.875, 87.7546, 0, -0.000976562, -0.00195312, -0.0234375, 0.290039, -9.71094, 1.18.2022 20:12:20.083
731, 1.60536, 359.875, 87.7546, 0, -0.000976562, -0.000976562, 0.0498047, 0.279297, -9.76172, 1.18.2022 20:12:20.091
732, 1.60536, 359.875, 87.7546, 0, -0.000976562, -0.000976562, 0.0380859, 0.272461, -9.7666, 1.18.2022 20:12:20.099
733, 1.60536, 359.875, 87.7546, -0.000976562, -0.000976562, -0.000976562, -0.0253906, 0.306641, -9.73438, 1.18.2022 20:12:20.107
734, 1.60536, 359.875, 87.7546, -0.000976562, -0.000976562, -0.000976562, 0.03125, 0.251953, -9.72949, 1.18.2022 20:12:20.115
735, 1.60536, 359.875, 87.7546, -0.000976562, 0, -0.000976562, -0.0498047, 0.283203, -9.73242, 1.18.2022 20:12:20.123
736, 1.60536, 359.875, 87.7546, 0, 0, -0.000976562, 0.0146484, 0.268555, -9.7168, 1.18.2022 20:12:20.131
737, 1.60536, 359.875, 87.7546, 0, -0.000976562, -0.00195312, 0.0449219, 0.245117, -9.75781, 1.18.2022 20:12:20.139
738, 1.60536, 359.875, 87.7546, 0, -0.000976562, -0.000976562, -0.0332031, 0.297852, -9.74121, 1.18.2022 20:12:20.147
739, 1.60536, 359.875, 87.7546, -0.000976562, -0.000976562, 0, 0.0175781, 0.25293, -9.70117, 1.18.2022 20:12:20.155
740, 1.60536, 359.875, 87.7546, 0, -0.000976562, -0.000976562, 0.0361328, 0.245117, -9.74902, 1.18.2022 20:12:20.163
741, 1.60536, 359.875, 87.7546, 0, 0, -0.000976562, -0.0146484, 0.257812, -9.76172, 1.18.2022 20:12:20.171
742, 1.60536, 359.875, 87.7546, -0.000976562, 0, -0.000976562, 0.100586, 0.245117, -9.75195, 1.18.2022 20:12:20.179
743, 1.60536, 359.875, 87.7546, 0, 0, -0.000976562, -0.00292969, 0.293945, -9.78223, 1.18.2022 20:12:20.187
744, 1.60536, 359.875, 87.7546, 0, 0, -0.000976562, 0.0283203, 0.289062, -9.78223, 1.18.2022 20:12:20.195
745, 1.60536, 359.875, 87.7546, -0.000976562, -0.000976562, -0.000976562, 0.0615234, 0.248047, -9.75391, 1.18.2022 20:12:20.203
746, 1.60536, 359.875, 87.7546, 0, 0, -0.000976562, -0.0117188, 0.285156, -9.72559, 1.18.2022 20:12:20.211
747, 1.60536, 359.875, 87.7546, 0, -0.000976562, -0.000976562, 0.0498047, 0.264648, -9.75977, 1.18.2022 20:12:20.219
748, 1.60536, 359.875, 87.7546, -0.000976562, -0.000976562, -0.000976562, 0.0458984, 0.253906, -9.73438, 1.18.2022 20:12:20.227
749, 1.60536, 359.875, 87.7546, 0, -0.000976562, -0.000976562, -0.015625, 0.277344, -9.69727, 1.18.2022 20:12:20.235
750, 1.60536, 359.875, 87.7546, -0.000976562, 0, -0.000976562, 0.0771484, 0.274414, -9.67773, 1.18.2022 20:12:20.243
751, 1.60536, 359.875, 87.7546, -0.000976562, -0.000976562, -0.000976562, 0.00976562, 0.292969, -9.73242, 1.18.2022 20:12:20.251
752, 1.60536, 359.875, 87.7546, -0.000976562, -0.000976562, -0.000976562, 0.00292969, 0.273438, -9.73828, 1.18.2022 20:12:20.259
753, 1.60536, 359.875, 87.7546, -0.000976562, 0, 0, 0.0283203, 0.236328, -9.7793, 1.18.2022 20:12:20.267
754, 1.60536, 359.875, 87.7546, 0, 0.000976562, 0, -0.0527344, 0.273438, -9.79102, 1.18.2022 20:12:20.275
755, 1.60536, 359.875, 87.7546, -0.000976562, 0, 0, 0.00195312, 0.269531, -9.76172, 1.18.2022 20:12:20.283
756, 1.60536, 359.875, 87.7546, -0.000976562, -0.000976562, -0.000976562, 0.0195312, 0.256836, -9.72168, 1.18.2022 20:12:20.291
757, 1.60536, 359.875, 87.7546, 0, -0.000976562, -0.000976562, -0.0253906, 0.290039, -9.7207, 1.18.2022 20:12:20.299
758, 1.60536, 359.875, 87.7546, -0.000976562, -0.000976562, -0.000976562, 0.0791016, 0.245117, -9.74707, 1.18.2022 20:12:20.307
759, 1.60536, 359.875, 87.7546, 0, -0.000976562, -0.000976562, 0.0498047, 0.274414, -9.75977, 1.18.2022 20:12:20.315
760, 1.60032, 359.87, 87.7548, -0.000976562, 0, 0.000976562, 0.0166016, 0.294922, -9.74414, 1.18.2022 20:12:20.323
761, 1.60032, 359.87, 87.7548, 0, 0, 0.000976562, 0.0478516, 0.275391, -9.7334, 1.18.2022 20:12:20.331
762, 1.60032, 359.87, 87.7548, -0.000976562, 0, 0, -0.00976562, 0.283203, -9.74219, 1.18.2022 20:12:20.339
763, 1.60032, 359.87, 87.7548, 0, 0, 0, 0.00976562, 0.316406, -9.72461, 1.18.2022 20:12:20.347
764, 1.60032, 359.87, 87.7548, 0, -0.000976562, -0.000976562, 0.0742188, 0.283203, -9.72656, 1.18.2022 20:12:20.355
765, 1.59548, 359.875, 87.7548, 0, -0.00195312, 0.000976562, -0.0166016, 0.292969, -9.72754, 1.18.2022 20:12:20.363
766, 1.59548, 359.875, 87.7548, 0, -0.000976562, 0.000976562, 0.0576172, 0.273438, -9.72656, 1.18.2022 20:12:20.371
767, 1.60032, 359.87, 87.7548, 0, 0, 0.000976562, 0.0546875, 0.27832, -9.75293, 1.18.2022 20:12:20.379
768, 1.60032, 359.87, 87.7548, 0, -0.000976562, -0.000976562, -0.0283203, 0.289062, -9.76074, 1.18.2022 20:12:20.387
769, 1.60032, 359.87, 87.7548, 0, 0, 0, 0.0869141, 0.267578, -9.71094, 1.18.2022 20:12:20.395
770, 1.60032, 359.87, 87.7548, -0.000976562, 0, 0, -0.00585938, 0.296875, -9.69727, 1.18.2022 20:12:20.403
771, 1.60032, 359.87, 87.7548, -0.000976562, -0.000976562, -0.000976562, 0.0117188, 0.3125, -9.76562, 1.18.2022 20:12:20.411
772, 1.60536, 359.875, 87.7546, -0.000976562, 0, 0, 0.0576172, 0.239258, -9.7041, 1.18.2022 20:12:20.419
773, 1.60536, 359.875, 87.7546, -0.000976562, -0.000976562, -0.000976562, -0.0576172, 0.288086, -9.75098, 1.18.2022 20:12:20.427
774, 1.61021, 359.869, 87.7546, -0.000976562, -0.00195312, -0.000976562, 0.0146484, 0.276367, -9.74023, 1.18.2022 20:12:20.435
775, 1.61021, 359.869, 87.7546, -0.000976562, -0.000976562, -0.000976562, 0.0166016, 0.266602, -9.75684, 1.18.2022 20:12:20.443
776, 1.61021, 359.869, 87.7546, -0.000976562, -0.000976562, -0.00195312, 0, 0.291016, -9.74219, 1.18.2022 20:12:20.451
777, 1.61021, 359.869, 87.7546, -0.000976562, 0, 0, 0.0722656, 0.272461, -9.71094, 1.18.2022 20:12:20.459
778, 1.61021, 359.869, 87.7546, -0.000976562, 0, 0, 0.00195312, 0.28125, -9.75684, 1.18.2022 20:12:20.467
779, 1.61021, 359.869, 87.7546, -0.000976562, 0, 0, -0.0214844, 0.280273, -9.72754, 1.18.2022 20:12:20.475
780, 1.61525, 359.874, 87.7545, 0, 0, 0, 0.0361328, 0.261719, -9.74121, 1.18.2022 20:12:20.483
781, 1.61525, 359.874, 87.7545, -0.000976562, -0.000976562, 0.000976562, -0.0449219, 0.285156, -9.72461, 1.18.2022 20:12:20.491
782, 1.6201, 359.869, 87.7545, -0.000976562, -0.000976562, 0.000976562, 0.0488281, 0.280273, -9.70996, 1.18.2022 20:12:20.499
783, 1.6201, 359.869, 87.7545, -0.000976562, 0, 0, 0.0664062, 0.223633, -9.74707, 1.18.2022 20:12:20.507
784, 1.6201, 359.869, 87.7545, -0.000976562, 0, -0.000976562, -0.0253906, 0.283203, -9.7207, 1.18.2022 20:12:20.515
785, 1.6201, 359.869, 87.7545, 0, 0, -0.00195312, 0.0742188, 0.282227, -9.71777, 1.18.2022 20:12:20.523
786, 1.6201, 359.869, 87.7545, -0.000976562, 0, -0.000976562, 0, 0.245117, -9.73633, 1.18.2022 20:12:20.531
787, 1.6201, 359.869, 87.7545, -0.000976562, 0, -0.000976562, 0, 0.285156, -9.73047, 1.18.2022 20:12:20.539
788, 1.6201, 359.869, 87.7545, -0.000976562, -0.000976562, -0.000976562, 0.0644531, 0.274414, -9.75977, 1.18.2022 20:12:20.547
789, 1.62514, 359.874, 87.7544, -0.000976562, -0.00195312, -0.000976562, -0.00195312, 0.263672, -9.73828, 1.18.2022 20:12:20.555
790, 1.62514, 359.874, 87.7544, 0, -0.000976562, -0.000976562, -0.00488281, 0.268555, -9.74023, 1.18.2022 20:12:20.563
791, 1.62514, 359.874, 87.7544, 0, -0.000976562, 0, 0.0458984, 0.263672, -9.72949, 1.18.2022 20:12:20.571
792, 1.62514, 359.874, 87.7544, 0, -0.00195312, -0.000976562, -0.0498047, 0.274414, -9.76074, 1.18.2022 20:12:20.579
793, 1.62029, 359.879, 87.7544, 0, -0.000976562, -0.000976562, 0.0644531, 0.268555, -9.74609, 1.18.2022 20:12:20.587
794, 1.62029, 359.879, 87.7544, -0.000976562, -0.000976562, -0.000976562, 0.0263672, 0.271484, -9.74805, 1.18.2022 20:12:20.595
795, 1.62029, 359.879, 87.7544, -0.000976562, 0, -0.000976562, -0.00683594, 0.280273, -9.71387, 1.18.2022 20:12:20.603
796, 1.62029, 359.879, 87.7544, -0.000976562, -0.000976562, -0.000976562, 0.0722656, 0.248047, -9.69434, 1.18.2022 20:12:20.611
797, 1.62029, 359.879, 87.7544, -0.000976562, -0.000976562, -0.000976562, 0.00292969, 0.283203, -9.7373, 1.18.2022 20:12:20.619
798, 1.62029, 359.879, 87.7544, 0, -0.000976562, -0.000976562, 0.0253906, 0.296875, -9.78906, 1.18.2022 20:12:20.627
799, 1.62029, 359.879, 87.7544, -0.000976562, -0.000976562, -0.000976562, 0.0498047, 0.27832, -9.74316, 1.18.2022 20:12:20.635
800, 1.62029, 359.879, 87.7544, 0, -0.000976562, -0.000976562, -0.0351562, 0.27832, -9.73242, 1.18.2022 20:12:20.643
801, 1.62029, 359.879, 87.7544, -0.000976562, 0, -0.000976562, 0.0332031, 0.25293, -9.75098, 1.18.2022 20:12:20.651
802, 1.62029, 359.879, 87.7544, -0.000976562, -0.000976562, -0.000976562, 0.0195312, 0.254883, -9.74805, 1.18.2022 20:12:20.659
803, 1.62029, 359.879, 87.7544, -0.000976562, -0.000976562, -0.00195312, -0.0117188, 0.292969, -9.75098, 1.18.2022 20:12:20.667
804, 1.62029, 359.879, 87.7544, -0.000976562, -0.000976562, -0.000976562, 0.0976562, 0.268555, -9.73926, 1.18.2022 20:12:20.675
805, 1.62029, 359.879, 87.7544, 0, -0.000976562, -0.000976562, 0.00292969, 0.263672, -9.72656, 1.18.2022 20:12:20.683
806, 1.62029, 359.879, 87.7544, 0, -0.000976562, -0.000976562, -0.00878906, 0.273438, -9.72559, 1.18.2022 20:12:20.691
807, 1.62029, 359.879, 87.7544, -0.000976562, 0, -0.000976562, 0.0761719, 0.268555, -9.74609, 1.18.2022 20:12:20.699
808, 1.62029, 359.879, 87.7544, -0.00195312, 0, -0.000976562, -0.0507812, 0.282227, -9.76758, 1.18.2022 20:12:20.707
809, 1.62029, 359.879, 87.7544, -0.00195312, -0.000976562, -0.000976562, 0.0361328, 0.289062, -9.70703, 1.18.2022 20:12:20.715
810, 1.62029, 359.879, 87.7544, -0.000976562, -0.000976562, -0.000976562, 0.0478516, 0.268555, -9.72266, 1.18.2022 20:12:20.723
811, 1.62029, 359.879, 87.7544, 0, 0, -0.000976562, -0.0234375, 0.27832, -9.72754, 1.18.2022 20:12:20.731
812, 1.62051, 359.879, 87.7643, -0.000976562, 0, -0.000976562, 0.0605469, 0.282227, -9.70117, 1.18.2022 20:12:20.739
813, 1.62029, 359.879, 87.7544, -0.000976562, 0, 0, -0.00195312, 0.274414, -9.75195, 1.18.2022 20:12:20.747
814, 1.62029, 359.879, 87.7544, -0.000976562, 0, 0, -0.0078125, 0.272461, -9.76367, 1.18.2022 20:12:20.755
815, 1.61525, 359.874, 87.7545, -0.000976562, 0, 0, 0.0576172, 0.235352, -9.74219, 1.18.2022 20:12:20.763
816, 1.61525, 359.874, 87.7545, 0, 0, -0.000976562, -0.000976562, 0.3125, -9.68945, 1.18.2022 20:12:20.771
817, 1.61525, 359.874, 87.7545, 0, 0, -0.000976562, 0.0244141, 0.260742, -9.71289, 1.18.2022 20:12:20.779
818, 1.61525, 359.874, 87.7545, -0.000976562, -0.000976562, -0.000976562, 0.0478516, 0.287109, -9.71973, 1.18.2022 20:12:20.787
819, 1.61525, 359.874, 87.7545, -0.000976562, -0.00195312, -0.000976562, -0.0332031, 0.290039, -9.72949, 1.18.2022 20:12:20.795
820, 1.61525, 359.874, 87.7545, -0.000976562, -0.000976562, -0.000976562, 0.0478516, 0.276367, -9.75488, 1.18.2022 20:12:20.803
821, 1.61525, 359.874, 87.7545, 0, 0, -0.000976562, 0.0166016, 0.25293, -9.77832, 1.18.2022 20:12:20.811
822, 1.61525, 359.874, 87.7545, -0.00195312, 0, -0.000976562, -0.0263672, 0.283203, -9.73926, 1.18.2022 20:12:20.819
823, 1.61525, 359.874, 87.7545, -0.00195312, -0.000976562, -0.000976562, 0.0771484, 0.25293, -9.7041, 1.18.2022 20:12:20.827
824, 1.61525, 359.874, 87.7545, -0.000976562, 0, -0.000976562, -0.00195312, 0.273438, -9.73535, 1.18.2022 20:12:20.835
825, 1.61525, 359.874, 87.7545, 0, -0.000976562, -0.000976562, -0.0136719, 0.302734, -9.74414, 1.18.2022 20:12:20.843
826, 1.61525, 359.874, 87.7545, -0.000976562, -0.000976562, -0.000976562, 0.0449219, 0.248047, -9.76758, 1.18.2022 20:12:20.851
827, 1.62029, 359.879, 87.7544, -0.000976562, 0, -0.000976562, -0.0234375, 0.283203, -9.72559, 1.18.2022 20:12:20.859
828, 1.62029, 359.879, 87.7544, 0, -0.000976562, -0.00195312, 0.0263672, 0.263672, -9.72168, 1.18.2022 20:12:20.867
829, 1.62029, 359.879, 87.7544, 0, -0.000976562, -0.000976562, 0.015625, 0.269531, -9.68848, 1.18.2022 20:12:20.875
830, 1.62051, 359.879, 87.7643, 0, -0.000976562, -0.00195312, -0.0322266, 0.296875, -9.70312, 1.18.2022 20:12:20.883
831, 1.61566, 359.884, 87.7643, 0, 0, -0.00195312, 0.0625, 0.296875, -9.71973, 1.18.2022 20:12:20.891
832, 1.61566, 359.884, 87.7643, -0.000976562, 0, -0.000976562, 0.0175781, 0.285156, -9.72852, 1.18.2022 20:12:20.899
833, 1.61566, 359.884, 87.7643, -0.000976562, 0, -0.000976562, -0.00683594, 0.275391, -9.7207, 1.18.2022 20:12:20.907
834, 1.61566, 359.884, 87.7643, -0.000976562, -0.000976562, -0.000976562, 0.09375, 0.244141, -9.72852, 1.18.2022 20:12:20.915
835, 1.61566, 359.884, 87.7643, -0.000976562, 0, 0.000976562, -0.00683594, 0.280273, -9.73047, 1.18.2022 20:12:20.923
836, 1.61566, 359.884, 87.7643, -0.000976562, -0.000976562, -0.000976562, 0.03125, 0.276367, -9.74023, 1.18.2022 20:12:20.931
837, 1.61566, 359.884, 87.7643, -0.000976562, -0.000976562, -0.000976562, 0.0361328, 0.264648, -9.74316, 1.18.2022 20:12:20.939
838, 1.61566, 359.884, 87.7643, 0, 0, -0.000976562, -0.0332031, 0.310547, -9.75488, 1.18.2022 20:12:20.947
839, 1.61566, 359.884, 87.7643, 0, 0, -0.000976562, 0.0761719, 0.286133, -9.75781, 1.18.2022 20:12:20.955
840, 1.61566, 359.884, 87.7643, 0, 0, -0.00195312, 0.00292969, 0.271484, -9.74512, 1.18.2022 20:12:20.963
841, 1.62051, 359.879, 87.7643, -0.000976562, -0.000976562, -0.000976562, 0, 0.303711, -9.77051, 1.18.2022 20:12:20.971
842, 1.62051, 359.879, 87.7643, -0.000976562, -0.000976562, -0.000976562, 0.0673828, 0.245117, -9.74219, 1.18.2022 20:12:20.979
843, 1.62051, 359.879, 87.7643, -0.000976562, -0.000976562, -0.000976562, -0.0214844, 0.297852, -9.74121, 1.18.2022 20:12:20.985
844, 1.62051, 359.879, 87.7643, -0.000976562, 0, -0.000976562, 0.0449219, 0.271484, -9.74805, 1.18.2022 20:12:20.995
845, 1.62051, 359.879, 87.7643, 0, -0.000976562, -0.00195312, 0.0478516, 0.258789, -9.73145, 1.18.2022 20:12:21.001
846, 1.62051, 359.879, 87.7643, -0.000976562, 0, -0.00195312, -0.0400391, 0.290039, -9.71777, 1.18.2022 20:12:21.009
847, 1.62051, 359.879, 87.7643, -0.000976562, -0.000976562, -0.000976562, 0.0361328, 0.259766, -9.75781, 1.18.2022 20:12:21.017
848, 1.62051, 359.879, 87.7643, 0, -0.000976562, 0, -0.0146484, 0.25293, -9.77637, 1.18.2022 20:12:21.027
849, 1.62051, 359.879, 87.7643, 0, -0.000976562, 0, -0.00488281, 0.277344, -9.76562, 1.18.2022 20:12:21.033
850, 1.62051, 359.879, 87.7643, 0, -0.000976562, 0, 0.0556641, 0.249023, -9.71777, 1.18.2022 20:12:21.041
851, 1.62051, 359.879, 87.7643, -0.000976562, -0.000976562, 0, -0.0185547, 0.266602, -9.73535, 1.18.2022 20:12:21.049
852, 1.62051, 359.879, 87.7643, -0.000976562, -0.000976562, 0, 0.0136719, 0.274414, -9.76172, 1.18.2022 20:12:21.057
853, 1.62051, 359.879, 87.7643, 0, -0.000976562, -0.000976562, 0.0722656, 0.258789, -9.72559, 1.18.2022 20:12:21.065
854, 1.62031, 359.879, 87.7645, 0, -0.000976562, -0.00292969, -0.0185547, 0.314453, -9.72656, 1.18.2022 20:12:21.073
855, 1.62031, 359.879, 87.7645, -0.000976562, 0, -0.000976562, 0.0527344, 0.266602, -9.74121, 1.18.2022 20:12:21.081
856, 1.62031, 359.879, 87.7645, -0.000976562, -0.000976562, 0, 0.00683594, 0.25293, -9.75977, 1.18.2022 20:12:21.089
857, 1.61546, 359.884, 87.7645, 0, 0, 0.000976562, -0.0126953, 0.272461, -9.77051, 1.18.2022 20:12:21.097
858, 1.61546, 359.884, 87.7645, -0.000976562, 0, 0.000976562, 0.105469, 0.273438, -9.73047, 1.18.2022 20:12:21.105
859, 1.61566, 359.884, 87.7643, 0, -0.000976562, 0, -0.00683594, 0.269531, -9.75391, 1.18.2022 20:12:21.113
860, 1.61566, 359.884, 87.7643, -0.000976562, 0, -0.000976562, 0.000976562, 0.300781, -9.68066, 1.18.2022 20:12:21.121
861, 1.61546, 359.884, 87.7645, -0.000976562, -0.000976562, 0, 0.0712891, 0.246094, -9.78027, 1.18.2022 20:12:21.129
862, 1.61566, 359.884, 87.7643, -0.000976562, -0.000976562, 0, -0.0332031, 0.305664, -9.7666, 1.18.2022 20:12:21.137
863, 1.61566, 359.884, 87.7643, -0.000976562, -0.000976562, 0, 0.0166016, 0.243164, -9.7627, 1.18.2022 20:12:21.145
864, 1.61566, 359.884, 87.7643, -0.000976562, 0, 0, 0.0214844, 0.251953, -9.72656, 1.18.2022 20:12:21.153
865, 1.61566, 359.884, 87.7643, 0, -0.000976562, 0.000976562, -0.0117188, 0.297852, -9.74121, 1.18.2022 20:12:21.161
866, 1.61566, 359.884, 87.7643, 0, -0.000976562, 0, 0.0576172, 0.258789, -9.71777, 1.18.2022 20:12:21.169
867, 1.61566, 359.884, 87.7643, -0.000976562, 0, -0.000976562, 0.0117188, 0.307617, -9.74609, 1.18.2022 20:12:21.177
868, 1.61566, 359.884, 87.7643, -0.000976562, -0.000976562, 0, -0.0136719, 0.299805, -9.72266, 1.18.2022 20:12:21.185
869, 1.61566, 359.884, 87.7643, 0, -0.000976562, 0, 0.102539, 0.254883, -9.75195, 1.18.2022 20:12:21.193
870, 1.61566, 359.884, 87.7643, 0, -0.000976562, 0.000976562, -0.0283203, 0.297852, -9.75586, 1.18.2022 20:12:21.201
871, 1.61566, 359.884, 87.7643, -0.000976562, 0, 0, 0.0429688, 0.264648, -9.74316, 1.18.2022 20:12:21.209
872, 1.61566, 359.884, 87.7643, 0, 0, -0.000976562, 0.0361328, 0.266602, -9.74609, 1.18.2022 20:12:21.217
873, 1.61566, 359.884, 87.7643, 0, 0, 0, -0.0283203, 0.27832, -9.73047, 1.18.2022 20:12:21.225
874, 1.61566, 359.884, 87.7643, -0.000976562, 0, 0, 0.0576172, 0.244141, -9.70605, 1.18.2022 20:12:21.233
875, 1.61566, 359.884, 87.7643, -0.000976562, 0, 0, 0.00976562, 0.276367, -9.76172, 1.18.2022 20:12:21.241
876, 1.61566, 359.884, 87.7643, -0.000976562, -0.000976562, 0, -0.00976562, 0.276367, -9.76074, 1.18.2022 20:12:21.249
877, 1.61062, 359.879, 87.7644, -0.000976562, 0, -0.000976562, 0.0644531, 0.242188, -9.74414, 1.18.2022 20:12:21.257
878, 1.61062, 359.879, 87.7644, -0.000976562, 0, 0, -0.0166016, 0.285156, -9.72754, 1.18.2022 20:12:21.265
879, 1.61062, 359.879, 87.7644, -0.000976562, 0, 0, 0.0126953, 0.27832, -9.73047, 1.18.2022 20:12:21.273
880, 1.61062, 359.879, 87.7644, -0.000976562, 0, 0.000976562, 0.0742188, 0.259766, -9.75098, 1.18.2022 20:12:21.281
881, 1.61062, 359.879, 87.7644, 0, 0, -0.000976562, -0.0234375, 0.306641, -9.71484, 1.18.2022 20:12:21.289
882, 1.61062, 359.879, 87.7644, -0.000976562, 0, 0, 0.0576172, 0.261719, -9.73242, 1.18.2022 20:12:21.297
883, 1.61547, 359.874, 87.7644, -0.000976562, -0.000976562, 0, 0.0361328, 0.260742, -9.71973, 1.18.2022 20:12:21.305
884, 1.61547, 359.874, 87.7644, 0, -0.000976562, 0, -0.000976562, 0.289062, -9.69531, 1.18.2022 20:12:21.313
885, 1.61062, 359.879, 87.7644, 0, -0.000976562, 0, 0.0712891, 0.279297, -9.7627, 1.18.2022 20:12:21.321
886, 1.61062, 359.879, 87.7644, 0, -0.000976562, 0, -0.00195312, 0.286133, -9.74707, 1.18.2022 20:12:21.329
887, 1.61547, 359.874, 87.7644, -0.000976562, -0.000976562, 0, 0.0214844, 0.295898, -9.77051, 1.18.2022 20:12:21.337
888, 1.61547, 359.874, 87.7644, -0.00195312, -0.000976562, 0, 0.0664062, 0.262695, -9.76562, 1.18.2022 20:12:21.345
889, 1.61547, 359.874, 87.7644, -0.000976562, 0, -0.000976562, -0.0371094, 0.285156, -9.70605, 1.18.2022 20:12:21.353
890, 1.61547, 359.874, 87.7644, -0.000976562, 0, 0, 0.0439453, 0.295898, -9.69336, 1.18.2022 20:12:21.361
891, 1.61547, 359.874, 87.7644, -0.000976562, -0.000976562, 0, 0.0283203, 0.286133, -9.76172, 1.18.2022 20:12:21.369
892, 1.61547, 359.874, 87.7644, -0.000976562, 0, 0, -0.00683594, 0.288086, -9.7373, 1.18.2022 20:12:21.377
893, 1.61547, 359.874, 87.7644, -0.000976562, 0, 0, 0.0693359, 0.288086, -9.75, 1.18.2022 20:12:21.385
894, 1.61547, 359.874, 87.7644, -0.000976562, 0.000976562, 0, 0.00683594, 0.256836, -9.74316, 1.18.2022 20:12:21.393
895, 1.62031, 359.869, 87.7644, -0.000976562, -0.000976562, 0, -0.0283203, 0.297852, -9.73926, 1.18.2022 20:12:21.401
896, 1.62031, 359.869, 87.7644, -0.000976562, 0, -0.000976562, 0.0595703, 0.279297, -9.75977, 1.18.2022 20:12:21.409
897, 1.62031, 359.869, 87.7644, 0, -0.000976562, 0, -0.0410156, 0.292969, -9.75586, 1.18.2022 20:12:21.417
898, 1.62031, 359.869, 87.7644, -0.000976562, 0, 0, 0.0625, 0.288086, -9.73145, 1.18.2022 20:12:21.425
899, 1.62031, 359.869, 87.7644, 0, 0, 0, 0.0410156, 0.283203, -9.74512, 1.18.2022 20:12:21.433
900, 1.62031, 359.869, 87.7644, -0.000976562, -0.000976562, 0, -0.0498047, 0.290039, -9.72949, 1.18.2022 20:12:21.441
901, 1.62031, 359.869, 87.7644, 0, -0.000976562, 0, 0.0791016, 0.27832, -9.74414, 1.18.2022 20:12:21.449
902, 1.62031, 359.869, 87.7644, -0.000976562, -0.000976562, 0, 0.046875, 0.269531, -9.77148, 1.18.2022 20:12:21.457
903, 1.62516, 359.864, 87.7644, -0.00195312, -0.000976562, 0, 0.00976562, 0.269531, -9.75488, 1.18.2022 20:12:21.465
904, 1.6302, 359.869, 87.7643, -0.000976562, -0.000976562, 0, 0.0693359, 0.256836, -9.74219, 1.18.2022 20:12:21.473
905, 1.6302, 359.869, 87.7643, -0.000976562, 0, -0.000976562, -0.0322266, 0.273438, -9.71387, 1.18.2022 20:12:21.481
906, 1.6302, 359.869, 87.7643, -0.000976562, 0, 0, 0.0439453, 0.298828, -9.70215, 1.18.2022 20:12:21.489
907, 1.6302, 359.869, 87.7643, 0, 0, -0.000976562, 0.0429688, 0.268555, -9.73828, 1.18.2022 20:12:21.497
908, 1.6302, 359.869, 87.7643, -0.000976562, -0.000976562, 0, -0.00683594, 0.27832, -9.72852, 1.18.2022 20:12:21.505
909, 1.6302, 359.869, 87.7643, -0.000976562, -0.000976562, -0.00195312, 0.0742188, 0.263672, -9.72559, 1.18.2022 20:12:21.513
910, 1.63505, 359.864, 87.7643, -0.00195312, -0.000976562, 0, 0.0263672, 0.290039, -9.72363, 1.18.2022 20:12:21.521
911, 1.63505, 359.864, 87.7643, -0.000976562, -0.000976562, 0, -0.0136719, 0.285156, -9.71094, 1.18.2022 20:12:21.529
912, 1.63505, 359.864, 87.7643, -0.000976562, -0.000976562, 0, 0.0566406, 0.243164, -9.76074, 1.18.2022 20:12:21.537
913, 1.63505, 359.864, 87.7643, -0.000976562, 0, 0, -0.0117188, 0.273438, -9.73242, 1.18.2022 20:12:21.545
914, 1.63505, 359.864, 87.7643, -0.000976562, -0.000976562, 0, 0.015625, 0.280273, -9.70508, 1.18.2022 20:12:21.553
915, 1.63505, 359.864, 87.7643, -0.000976562, -0.000976562, 0, 0.0605469, 0.255859, -9.7041, 1.18.2022 20:12:21.561
916, 1.63505, 359.864, 87.7643, -0.00195312, -0.000976562, 0, -0.0263672, 0.293945, -9.76074, 1.18.2022 20:12:21.569
917, 1.63505, 359.864, 87.7643, 0, -0.000976562, 0, 0.0361328, 0.251953, -9.74805, 1.18.2022 20:12:21.577
918, 1.63505, 359.864, 87.7643, -0.000976562, -0.000976562, 0, 0.0283203, 0.276367, -9.74805, 1.18.2022 20:12:21.585
919, 1.63505, 359.864, 87.7643, 0, 0, 0, -0.0234375, 0.265625, -9.70703, 1.18.2022 20:12:21.593
920, 1.63505, 359.864, 87.7643, -0.000976562, -0.000976562, 0, 0.0664062, 0.261719, -9.74414, 1.18.2022 20:12:21.601
921, 1.63505, 359.864, 87.7643, -0.000976562, -0.000976562, 0.000976562, 0.00683594, 0.276367, -9.75391, 1.18.2022 20:12:21.609
922, 1.63505, 359.864, 87.7643, 0, -0.000976562, 0.000976562, 0.00488281, 0.305664, -9.7627, 1.18.2022 20:12:21.617
923, 1.63505, 359.864, 87.7643, -0.000976562, -0.000976562, 0, 0.0693359, 0.259766, -9.74414, 1.18.2022 20:12:21.625
924, 1.63505, 359.864, 87.7643, -0.000976562, -0.000976562, 0, -0.0234375, 0.273438, -9.74414, 1.18.2022 20:12:21.633
925, 1.63505, 359.864, 87.7643, -0.000976562, -0.000976562, 0, 0.0458984, 0.256836, -9.72949, 1.18.2022 20:12:21.641
926, 1.63505, 359.864, 87.7643, 0, -0.000976562, 0, 0.0166016, 0.266602, -9.73633, 1.18.2022 20:12:21.649
927, 1.63001, 359.859, 87.7644, 0, 0, 0, -0.00878906, 0.302734, -9.73926, 1.18.2022 20:12:21.657
928, 1.63001, 359.859, 87.7644, -0.000976562, -0.000976562, 0, 0.046875, 0.25293, -9.76953, 1.18.2022 20:12:21.665
929, 1.63001, 359.859, 87.7644, -0.00195312, -0.000976562, 0, 0.0117188, 0.266602, -9.74023, 1.18.2022 20:12:21.673
930, 1.63001, 359.859, 87.7644, -0.000976562, -0.000976562, 0, -0.00488281, 0.269531, -9.75684, 1.18.2022 20:12:21.681
931, 1.62516, 359.864, 87.7644, 0, -0.000976562, 0, 0.0664062, 0.261719, -9.74414, 1.18.2022 20:12:21.689
932, 1.62516, 359.864, 87.7644, -0.000976562, -0.000976562, 0, -0.0244141, 0.303711, -9.76758, 1.18.2022 20:12:21.697
933, 1.62516, 359.864, 87.7644, -0.000976562, 0, 0, 0.0361328, 0.311523, -9.7207, 1.18.2022 20:12:21.705
934, 1.62494, 359.864, 87.7545, -0.000976562, 0, 0, 0.0263672, 0.291016, -9.75, 1.18.2022 20:12:21.713
935, 1.62494, 359.864, 87.7545, -0.000976562, 0, 0, -0.0351562, 0.318359, -9.70312, 1.18.2022 20:12:21.721
936, 1.62494, 359.864, 87.7545, 0, 0, 0, 0.0341797, 0.271484, -9.73145, 1.18.2022 20:12:21.729
937, 1.62494, 359.864, 87.7545, -0.000976562, -0.000976562, 0, 0.0429688, 0.243164, -9.74609, 1.18.2022 20:12:21.737
938, 1.62494, 359.864, 87.7545, -0.000976562, -0.00195312, 0.000976562, -0.0117188, 0.302734, -9.73926, 1.18.2022 20:12:21.745
939, 1.62494, 359.864, 87.7545, -0.000976562, -0.000976562, 0, 0.0839844, 0.255859, -9.71094, 1.18.2022 20:12:21.753
940, 1.62998, 359.869, 87.7544, -0.000976562, -0.000976562, 0, -0.0136719, 0.251953, -9.72363, 1.18.2022 20:12:21.761
941, 1.62998, 359.869, 87.7544, -0.000976562, 0, 0, 0.015625, 0.287109, -9.7002, 1.18.2022 20:12:21.769
942, 1.62998, 359.869, 87.7544, -0.000976562, -0.000976562, 0, 0.0234375, 0.240234, -9.75586, 1.18.2022 20:12:21.777
943, 1.62998, 359.869, 87.7544, -0.000976562, -0.000976562, -0.000976562, -0.0283203, 0.268555, -9.73535, 1.18.2022 20:12:21.785
944, 1.62998, 359.869, 87.7544, 0, 0, -0.000976562, 0.0507812, 0.266602, -9.73145, 1.18.2022 20:12:21.793
945, 1.62998, 359.869, 87.7544, -0.000976562, 0, -0.000976562, 0.0214844, 0.283203, -9.73535, 1.18.2022 20:12:21.801
946, 1.62998, 359.869, 87.7544, 0, -0.000976562, -0.00195312, -0.0107422, 0.282227, -9.70898, 1.18.2022 20:12:21.809
947, 1.62514, 359.874, 87.7544, -0.000976562, -0.000976562, -0.000976562, 0.0673828, 0.255859, -9.7207, 1.18.2022 20:12:21.817
948, 1.62514, 359.874, 87.7544, -0.000976562, -0.000976562, -0.000976562, -0.00292969, 0.269531, -9.75684, 1.18.2022 20:12:21.825
949, 1.62536, 359.874, 87.7643, -0.000976562, 0, -0.00195312, 0.0166016, 0.291016, -9.76074, 1.18.2022 20:12:21.833
950, 1.62536, 359.874, 87.7643, -0.000976562, -0.000976562, -0.000976562, 0.0712891, 0.271484, -9.76074, 1.18.2022 20:12:21.841
951, 1.62536, 359.874, 87.7643, -0.000976562, -0.000976562, -0.000976562, -0.0195312, 0.291016, -9.76562, 1.18.2022 20:12:21.849
952, 1.62536, 359.874, 87.7643, 0, -0.000976562, -0.000976562, 0.0429688, 0.269531, -9.77148, 1.18.2022 20:12:21.857
953, 1.62536, 359.874, 87.7643, 0, -0.000976562, 0.000976562, 0.0576172, 0.276367, -9.74609, 1.18.2022 20:12:21.865
954, 1.62514, 359.874, 87.7544, -0.000976562, 0, 0.000976562, -0.0400391, 0.285156, -9.71777, 1.18.2022 20:12:21.873
955, 1.62514, 359.874, 87.7544, -0.000976562, -0.000976562, -0.000976562, 0.0742188, 0.273438, -9.74609, 1.18.2022 20:12:21.881
956, 1.62514, 359.874, 87.7544, -0.000976562, 0, -0.000976562, 0.00683594, 0.28418, -9.77344, 1.18.2022 20:12:21.889
957, 1.62514, 359.874, 87.7544, -0.000976562, -0.000976562, -0.000976562, 0.00488281, 0.317383, -9.7627, 1.18.2022 20:12:21.897
958, 1.62514, 359.874, 87.7544, -0.000976562, -0.000976562, -0.00195312, 0.0195312, 0.233398, -9.74902, 1.18.2022 20:12:21.905
959, 1.62536, 359.874, 87.7643, 0, -0.000976562, -0.00195312, -0.0332031, 0.291016, -9.76074, 1.18.2022 20:12:21.913
960, 1.62536, 359.874, 87.7643, 0, 0, -0.000976562, 0.0341797, 0.266602, -9.72949, 1.18.2022 20:12:21.921
961, 1.62536, 359.874, 87.7643, -0.000976562, 0, 0.000976562, 0.0507812, 0.275391, -9.70801, 1.18.2022 20:12:21.929
962, 1.62514, 359.874, 87.7544, 0, 0, 0.000976562, -0.0175781, 0.276367, -9.68066, 1.18.2022 20:12:21.937
963, 1.62536, 359.874, 87.7643, -0.000976562, -0.000976562, -0.00195312, 0.0673828, 0.267578, -9.71094, 1.18.2022 20:12:21.945
964, 1.62536, 359.874, 87.7643, -0.000976562, 0, -0.000976562, -0.00976562, 0.272461, -9.77344, 1.18.2022 20:12:21.953
965, 1.62536, 359.874, 87.7643, -0.000976562, -0.000976562, 0.000976562, -0.00195312, 0.299805, -9.71582, 1.18.2022 20:12:21.959
966, 1.62514, 359.874, 87.7544, -0.000976562, -0.000976562, 0.000976562, 0.0429688, 0.265625, -9.72656, 1.18.2022 20:12:21.967
967, 1.62514, 359.874, 87.7544, 0, -0.000976562, 0.000976562, -0.0214844, 0.272461, -9.76367, 1.18.2022 20:12:21.975
968, 1.62514, 359.874, 87.7544, -0.000976562, 0, 0.000976562, 0.0126953, 0.259766, -9.68848, 1.18.2022 20:12:21.983
969, 1.62514, 359.874, 87.7544, -0.000976562, 0, 0.000976562, 0.0341797, 0.255859, -9.70801, 1.18.2022 20:12:21.991
970, 1.62514, 359.874, 87.7544, -0.000976562, 0, 0.000976562, -0.0390625, 0.306641, -9.78809, 1.18.2022 20:12:21.999
971, 1.62514, 359.874, 87.7544, -0.000976562, -0.000976562, 0.000976562, 0.0478516, 0.280273, -9.72168, 1.18.2022 20:12:22.007
972, 1.62514, 359.874, 87.7544, -0.000976562, -0.000976562, -0.000976562, 0, 0.245117, -9.75, 1.18.2022 20:12:22.015
973, 1.62514, 359.874, 87.7544, -0.000976562, -0.000976562, -0.000976562, -0.0449219, 0.269531, -9.74219, 1.18.2022 20:12:22.023
974, 1.62514, 359.874, 87.7544, 0, 0, -0.000976562, 0.0527344, 0.261719, -9.75586, 1.18.2022 20:12:22.031
975, 1.62029, 359.879, 87.7544, -0.000976562, 0, -0.00195312, -0.015625, 0.294922, -9.71289, 1.18.2022 20:12:22.039
976, 1.62029, 359.879, 87.7544, -0.00195312, -0.000976562, -0.000976562, -0.00195312, 0.295898, -9.74902, 1.18.2022 20:12:22.047
977, 1.62029, 359.879, 87.7544, -0.000976562, 0, -0.000976562, 0.0849609, 0.274414, -9.78125, 1.18.2022 20:12:22.055
978, 1.62029, 359.879, 87.7544, -0.000976562, -0.000976562, -0.000976562, -0.0410156, 0.298828, -9.7793, 1.18.2022 20:12:22.063
979, 1.62533, 359.884, 87.7542, 0, -0.000976562, -0.000976562, 0.0595703, 0.303711, -9.77344, 1.18.2022 20:12:22.071
980, 1.62533, 359.884, 87.7542, -0.000976562, -0.000976562, -0.000976562, 0.0537109, 0.275391, -9.79492, 1.18.2022 20:12:22.079
981, 1.62533, 359.884, 87.7542, -0.000976562, -0.000976562, -0.000976562, -0.00390625, 0.28125, -9.68555, 1.18.2022 20:12:22.087
982, 1.62533, 359.884, 87.7542, 0, -0.000976562, 0, 0.0478516, 0.245117, -9.74609, 1.18.2022 20:12:22.095
983, 1.62533, 359.884, 87.7542, -0.000976562, -0.000976562, -0.000976562, -0.00195312, 0.265625, -9.71484, 1.18.2022 20:12:22.103
984, 1.62533, 359.884, 87.7542, 0, 0, -0.000976562, 0.00976562, 0.285156, -9.7168, 1.18.2022 20:12:22.111
985, 1.62533, 359.884, 87.7542, 0, 0, -0.000976562, 0.0898438, 0.246094, -9.78516, 1.18.2022 20:12:22.119
986, 1.62533, 359.884, 87.7542, 0, 0, -0.000976562, -0.0263672, 0.28418, -9.75391, 1.18.2022 20:12:22.127
987, 1.62048, 359.889, 87.7542, 0, 0, -0.000976562, 0.0117188, 0.264648, -9.74805, 1.18.2022 20:12:22.135
988, 1.62048, 359.889, 87.7542, 0, 0, -0.000976562, 0.0488281, 0.296875, -9.71191, 1.18.2022 20:12:22.143
989, 1.62048, 359.889, 87.7542, -0.000976562, 0, -0.000976562, -0.00976562, 0.295898, -9.76074, 1.18.2022 20:12:22.151
990, 1.62533, 359.884, 87.7542, -0.00195312, 0, -0.00195312, 0.0449219, 0.28418, -9.77637, 1.18.2022 20:12:22.159
991, 1.62533, 359.884, 87.7542, -0.000976562, -0.000976562, -0.000976562, 0.0117188, 0.288086, -9.74902, 1.18.2022 20:12:22.167
992, 1.62533, 359.884, 87.7542, -0.00195312, -0.000976562, -0.000976562, -0.00976562, 0.305664, -9.76758, 1.18.2022 20:12:22.175
993, 1.62533, 359.884, 87.7542, -0.000976562, -0.000976562, -0.000976562, 0.0644531, 0.271484, -9.75586, 1.18.2022 20:12:22.183
994, 1.62533, 359.884, 87.7542, -0.000976562, -0.000976562, -0.00195312, -0.0234375, 0.308594, -9.71973, 1.18.2022 20:12:22.191
995, 1.62533, 359.884, 87.7542, -0.000976562, -0.000976562, -0.000976562, 0.00976562, 0.292969, -9.7373, 1.18.2022 20:12:22.199
996, 1.63059, 359.889, 87.764, -0.000976562, 0, -0.000976562, 0.0625, 0.269531, -9.74805, 1.18.2022 20:12:22.207
997, 1.63059, 359.889, 87.764, 0, 0, -0.000976562, -0.0205078, 0.285156, -9.71582, 1.18.2022 20:12:22.215
998, 1.63059, 359.889, 87.764, -0.000976562, -0.000976562, -0.00195312, 0.0791016, 0.291016, -9.75781, 1.18.2022 20:12:22.223
999, 1.63059, 359.889, 87.764, -0.000976562, 0, -0.000976562, 0.0224609, 0.282227, -9.70996, 1.18.2022 20:12:22.231
1000, 1.63059, 359.889, 87.764, -0.000976562, 0, -0.000976562, 0.0195312, 0.283203, -9.75391, 1.18.2022 20:12:22.239
1001, 1.63544, 359.884, 87.764, -0.000976562, -0.000976562, -0.000976562, 0.0859375, 0.274414, -9.76562, 1.18.2022 20:12:22.247
1002, 1.63544, 359.884, 87.764, 0, -0.000976562, 0, -0.0214844, 0.299805, -9.74609, 1.18.2022 20:12:22.255
1003, 1.63544, 359.884, 87.764, -0.000976562, -0.000976562, -0.000976562, 0.0410156, 0.270508, -9.72949, 1.18.2022 20:12:22.263
1004, 1.63544, 359.884, 87.764, -0.000976562, -0.000976562, -0.00195312, 0.0361328, 0.285156, -9.71484, 1.18.2022 20:12:22.271
1005, 1.63544, 359.884, 87.764, 0.000976562, 0, -0.000976562, -0.0234375, 0.283203, -9.7373, 1.18.2022 20:12:22.279
1006, 1.63544, 359.884, 87.764, -0.000976562, -0.00195312, -0.000976562, 0.0595703, 0.256836, -9.74414, 1.18.2022 20:12:22.287
1007, 1.64028, 359.879, 87.764, 0, 0, -0.000976562, 0.0410156, 0.27832, -9.74316, 1.18.2022 20:12:22.295
1008, 1.64028, 359.879, 87.764, -0.000976562, -0.000976562, 0, -0.0214844, 0.300781, -9.75586, 1.18.2022 20:12:22.303
1009, 1.64028, 359.879, 87.764, -0.000976562, -0.000976562, 0, 0.0859375, 0.249023, -9.72363, 1.18.2022 20:12:22.311
1010, 1.64028, 359.879, 87.764, -0.000976562, -0.000976562, 0.000976562, 0.0166016, 0.286133, -9.75391, 1.18.2022 20:12:22.319
1011, 1.64028, 359.879, 87.764, -0.000976562, -0.000976562, 0, 0.0175781, 0.285156, -9.7168, 1.18.2022 20:12:22.327
1012, 1.64028, 359.879, 87.764, -0.000976562, 0, 0, 0.0478516, 0.245117, -9.74609, 1.18.2022 20:12:22.335
1013, 1.64513, 359.874, 87.764, 0, 0, 0, -0.0263672, 0.288086, -9.73926, 1.18.2022 20:12:22.343
1014, 1.64513, 359.874, 87.764, -0.000976562, 0, 0, 0.0400391, 0.28418, -9.77344, 1.18.2022 20:12:22.351
1015, 1.64513, 359.874, 87.764, 0, 0, -0.00195312, 0.0576172, 0.261719, -9.72754, 1.18.2022 20:12:22.359
1016, 1.64513, 359.874, 87.764, -0.000976562, -0.000976562, 0, -0.0214844, 0.300781, -9.76758, 1.18.2022 20:12:22.367
1017, 1.64009, 359.869, 87.7641, -0.000976562, 0, 0, 0.0810547, 0.253906, -9.7373, 1.18.2022 20:12:22.375
1018, 1.64009, 359.869, 87.7641, -0.000976562, 0, 0, 0.00683594, 0.262695, -9.75977, 1.18.2022 20:12:22.383
1019, 1.64493, 359.864, 87.7641, 0, -0.00195312, 0.000976562, 0.00292969, 0.294922, -9.73926, 1.18.2022 20:12:22.391
1020, 1.64493, 359.864, 87.7641, -0.000976562, 0, 0, 0.0625, 0.256836, -9.73926, 1.18.2022 20:12:22.399
1021, 1.64493, 359.864, 87.7641, -0.000976562, 0, 0, 0.0117188, 0.293945, -9.76855, 1.18.2022 20:12:22.407
1022, 1.64493, 359.864, 87.7641, -0.000976562, -0.000976562, 0, 0.0214844, 0.279297, -9.77148, 1.18.2022 20:12:22.415
1023, 1.64493, 359.864, 87.7641, -0.000976562, -0.000976562, 0.000976562, 0.0546875, 0.269531, -9.75977, 1.18.2022 20:12:22.423
1024, 1.64471, 359.864, 87.7543, -0.000976562, -0.00195312, 0, -0.03125, 0.291016, -9.75781, 1.18.2022 20:12:22.431
1025, 1.64471, 359.864, 87.7543, 0, -0.000976562, 0, 0.09375, 0.263672, -9.73047, 1.18.2022 20:12:22.439
1026, 1.64471, 359.864, 87.7543, 0, -0.000976562, 0, 0.0214844, 0.276367, -9.75195, 1.18.2022 20:12:22.447
1027, 1.63989, 359.859, 87.7643, 0, 0, -0.00195312, -0.0117188, 0.288086, -9.72559, 1.18.2022 20:12:22.455
1028, 1.63989, 359.859, 87.7643, 0, 0, -0.00195312, 0.0693359, 0.275391, -9.72949, 1.18.2022 20:12:22.463
1029, 1.63989, 359.859, 87.7643, 0, -0.000976562, 0, -0.0546875, 0.283203, -9.73438, 1.18.2022 20:12:22.471
1030, 1.63989, 359.859, 87.7643, 0, -0.000976562, 0, 0.0175781, 0.275391, -9.7002, 1.18.2022 20:12:22.479
