Seq, Rot x, Rot y, Rot z, Vel x, Vel y, Vel z, Acc x, Acc y, Acc z, Time(m.d.y h:m:s.ms)
0, 1.77128, 0.163083, 86.7946, 0, 0, 0, 0.0078125, 0.297852, -9.74219, 1.18.2022 21:0:28.331
1, 1.77128, 0.163083, 86.7946, -0.000976562, -0.000976562, 0, -0.0205078, 0.306641, -9.70605, 1.18.2022 21:0:28.334
2, 1.77128, 0.163083, 86.7946, -0.000976562, -0.000976562, -0.000976562, -0.0380859, 0.307617, -9.75, 1.18.2022 21:0:28.340
3, 1.77128, 0.163083, 86.7946, -0.000976562, 0, -0.000976562, 0.0214844, 0.290039, -9.74023, 1.18.2022 21:0:28.348
4, 1.77585, 0.158087, 86.7949, 0, 0, 0, -0.0800781, 0.304688, -9.72656, 1.18.2022 21:0:28.356
5, 1.77585, 0.158087, 86.7949, 0, 0, 0.000976562, -0.0351562, 0.300781, -9.74609, 1.18.2022 21:0:28.364
6, 1.77105, 0.163169, 86.7949, 0, -0.000976562, 0, -0.0214844, 0.264648, -9.75391, 1.18.2022 21:0:28.372
7, 1.77105, 0.163169, 86.7949, 0, -0.000976562, 0, -0.0712891, 0.297852, -9.73145, 1.18.2022 21:0:28.380
8, 1.77105, 0.163169, 86.7949, 0, -0.000976562, 0, -0.00488281, 0.302734, -9.74414, 1.18.2022 21:0:28.388
9, 1.77105, 0.163169, 86.7949, -0.000976562, -0.000976562, 0.000976562, -0.00878906, 0.301758, -9.73242, 1.18.2022 21:0:28.396
10, 1.77105, 0.163169, 86.7949, -0.000976562, -0.000976562, 0, -0.0449219, 0.317383, -9.74805, 1.18.2022 21:0:28.404
11, 1.77613, 0.167973, 86.7947, -0.000976562, -0.000976562, 0, 0.0507812, 0.299805, -9.73535, 1.18.2022 21:0:28.412
12, 1.77613, 0.167973, 86.7947, 0, 0, 0, -0.0527344, 0.286133, -9.74609, 1.18.2022 21:0:28.420
13, 1.77105, 0.163169, 86.7949, 0, 0, 0, -0.0214844, 0.297852, -9.74121, 1.18.2022 21:0:28.428
14, 1.77105, 0.163169, 86.7949, -0.000976562, 0, 0, 0.00683594, 0.279297, -9.76367, 1.18.2022 21:0:28.436
15, 1.77105, 0.163169, 86.7949, 0, 0.000976562, 0, -0.0693359, 0.292969, -9.74316, 1.18.2022 21:0:28.444
16, 1.77585, 0.158087, 86.7949, 0, 0, -0.000976562, -0.0126953, 0.300781, -9.68945, 1.18.2022 21:0:28.452
17, 1.77585, 0.158087, 86.7949, -0.000976562, 0, -0.000976562, -0.0449219, 0.297852, -9.75293, 1.18.2022 21:0:28.460
18, 1.77585, 0.158087, 86.7949, 0, -0.000976562, 0, -0.0419922, 0.304688, -9.71973, 1.18.2022 21:0:28.468
19, 1.77105, 0.163169, 86.7949, 0, -0.00195312, 0, 0.0429688, 0.296875, -9.73047, 1.18.2022 21:0:28.476
20, 1.77128, 0.163236, 86.8048, 0, -0.000976562, -0.000976562, -0.0644531, 0.298828, -9.7832, 1.18.2022 21:0:28.484
21, 1.77128, 0.163236, 86.8048, -0.000976562, -0.000976562, 0, -0.0214844, 0.313477, -9.77441, 1.18.2022 21:0:28.492
22, 1.77128, 0.163236, 86.8048, -0.000976562, 0, 0, 0.0146484, 0.261719, -9.73828, 1.18.2022 21:0:28.500
23, 1.77128, 0.163236, 86.8048, 0, 0, 0, -0.078125, 0.294922, -9.73828, 1.18.2022 21:0:28.508
24, 1.77128, 0.163236, 86.8048, 0, 0, 0, -0.0263672, 0.28418, -9.75098, 1.18.2022 21:0:28.516
25, 1.77105, 0.163321, 86.8051, -0.000976562, 0, 0, -0.0234375, 0.271484, -9.7373, 1.18.2022 21:0:28.524
26, 1.77585, 0.15824, 86.8051, -0.000976562, 0, 0, -0.0878906, 0.300781, -9.74316, 1.18.2022 21:0:28.532
27, 1.77585, 0.15824, 86.8051, -0.00195312, -0.000976562, 0, 0, 0.286133, -9.74707, 1.18.2022 21:0:28.540
28, 1.77585, 0.15824, 86.8051, -0.000976562, -0.000976562, 0, -0.0283203, 0.301758, -9.71777, 1.18.2022 21:0:28.548
29, 1.77585, 0.15824, 86.8051, 0, -0.000976562, 0, -0.0498047, 0.3125, -9.75, 1.18.2022 21:0:28.556
30, 1.77585, 0.15824, 86.8051, -0.000976562, 0, -0.000976562, 0.0292969, 0.239258, -9.70898, 1.18.2022 21:0:28.564
31, 1.77585, 0.15824, 86.8051, -0.000976562, 0, -0.000976562, -0.0810547, 0.31543, -9.76367, 1.18.2022 21:0:28.572
32, 1.77608, 0.158308, 86.815, -0.000976562, 0, 0, -0.0595703, 0.292969, -9.74316, 1.18.2022 21:0:28.580
33, 1.77608, 0.158308, 86.815, 0, -0.000976562, 0, -0.00683594, 0.276367, -9.75391, 1.18.2022 21:0:28.588
34, 1.77608, 0.158308, 86.815, 0, -0.000976562, -0.000976562, -0.0800781, 0.305664, -9.69043, 1.18.2022 21:0:28.596
35, 1.77608, 0.158308, 86.815, 0.000976562, -0.000976562, 0, -0.00878906, 0.314453, -9.74121, 1.18.2022 21:0:28.604
36, 1.77128, 0.163388, 86.8149, -0.000976562, -0.000976562, 0, -0.0263672, 0.319336, -9.74512, 1.18.2022 21:0:28.612
37, 1.77105, 0.163474, 86.8152, -0.000976562, -0.000976562, 0, -0.0527344, 0.3125, -9.75, 1.18.2022 21:0:28.620
38, 1.77105, 0.163474, 86.8152, -0.000976562, 0, -0.000976562, 0.0214844, 0.28125, -9.74512, 1.18.2022 21:0:28.628
39, 1.77105, 0.163474, 86.8152, -0.000976562, -0.000976562, -0.000976562, -0.0712891, 0.324219, -9.7334, 1.18.2022 21:0:28.636
40, 1.77613, 0.168279, 86.8151, 0, -0.000976562, -0.000976562, -0.0136719, 0.322266, -9.69629, 1.18.2022 21:0:28.644
41, 1.77613, 0.168279, 86.8151, -0.000976562, 0, 0, 0.0078125, 0.329102, -9.73828, 1.18.2022 21:0:28.652
42, 1.77613, 0.168279, 86.8151, -0.000976562, 0, 0.000976562, -0.0546875, 0.30957, -9.72461, 1.18.2022 21:0:28.660
43, 1.77105, 0.163474, 86.8152, 0, 0, 0.000976562, 0.000976562, 0.295898, -9.69434, 1.18.2022 21:0:28.668
44, 1.77105, 0.163474, 86.8152, -0.000976562, -0.000976562, 0, -0.0136719, 0.287109, -9.7041, 1.18.2022 21:0:28.676
45, 1.77105, 0.163474, 86.8152, 0, -0.000976562, 0, -0.0791016, 0.332031, -9.75879, 1.18.2022 21:0:28.684
46, 1.77105, 0.163474, 86.8152, 0, -0.000976562, 0, 0.0380859, 0.286133, -9.75195, 1.18.2022 21:0:28.692
47, 1.77105, 0.163474, 86.8152, 0, -0.000976562, -0.000976562, -0.0332031, 0.28125, -9.75879, 1.18.2022 21:0:28.700
48, 1.77105, 0.163474, 86.8152, 0, -0.000976562, 0, -0.0449219, 0.306641, -9.72461, 1.18.2022 21:0:28.708
49, 1.77105, 0.163474, 86.8152, -0.000976562, -0.000976562, 0, 0.0166016, 0.293945, -9.77539, 1.18.2022 21:0:28.716
50, 1.77105, 0.163474, 86.8152, 0, 0, 0, -0.0742188, 0.319336, -9.74707, 1.18.2022 21:0:28.724
51, 1.77105, 0.163474, 86.8152, 0, -0.000976562, 0, -0.0263672, 0.297852, -9.75098, 1.18.2022 21:0:28.732
52, 1.77105, 0.163474, 86.8152, 0, 0, 0, 0.00292969, 0.299805, -9.73926, 1.18.2022 21:0:28.740
53, 1.77105, 0.163474, 86.8152, -0.00195312, 0, 0, -0.0693359, 0.317383, -9.75195, 1.18.2022 21:0:28.748
54, 1.77105, 0.163474, 86.8152, 0, -0.000976562, 0, 0.0214844, 0.290039, -9.7373, 1.18.2022 21:0:28.756
55, 1.77105, 0.163474, 86.8152, 0, 0, 0, -0.0517578, 0.290039, -9.73633, 1.18.2022 21:0:28.764
56, 1.77105, 0.163474, 86.8152, -0.000976562, -0.000976562, 0, -0.0400391, 0.306641, -9.72656, 1.18.2022 21:0:28.772
57, 1.77105, 0.163474, 86.8152, 0, -0.000976562, -0.000976562, -0.00195312, 0.28125, -9.74512, 1.18.2022 21:0:28.780
58, 1.77105, 0.163474, 86.8152, 0, -0.000976562, -0.000976562, -0.0830078, 0.285156, -9.73145, 1.18.2022 21:0:28.788
59, 1.77105, 0.163474, 86.8152, 0, 0, 0.000976562, -0.0400391, 0.311523, -9.73633, 1.18.2022 21:0:28.796
60, 1.77105, 0.163474, 86.8152, -0.000976562, 0, 0, 0.00683594, 0.298828, -9.7793, 1.18.2022 21:0:28.804
61, 1.77105, 0.163474, 86.8152, -0.000976562, -0.000976562, 0, -0.0761719, 0.335938, -9.74219, 1.18.2022 21:0:28.812
62, 1.77105, 0.163474, 86.8152, -0.000976562, -0.000976562, 0, 0.00488281, 0.316406, -9.73242, 1.18.2022 21:0:28.820
63, 1.77105, 0.163474, 86.8152, -0.000976562, -0.000976562, 0, -0.0166016, 0.304688, -9.73242, 1.18.2022 21:0:28.828
64, 1.77613, 0.168279, 86.8151, -0.000976562, -0.000976562, 0, -0.0517578, 0.319336, -9.72656, 1.18.2022 21:0:28.836
65, 1.77613, 0.168279, 86.8151, 0, 0, 0, 0.0292969, 0.290039, -9.73828, 1.18.2022 21:0:28.844
66, 1.77105, 0.163474, 86.8152, 0, -0.000976562, 0, -0.0546875, 0.297852, -9.74805, 1.18.2022 21:0:28.852
67, 1.77128, 0.163541, 86.8251, 0, -0.000976562, 0, -0.0332031, 0.314453, -9.75293, 1.18.2022 21:0:28.860
68, 1.77128, 0.163541, 86.8251, 0, -0.000976562, 0, -0.00878906, 0.296875, -9.71777, 1.18.2022 21:0:28.868
69, 1.77128, 0.163541, 86.8251, 0, -0.000976562, 0, -0.0830078, 0.329102, -9.74219, 1.18.2022 21:0:28.876
70, 1.77128, 0.163541, 86.8251, -0.000976562, -0.000976562, 0, 0.0126953, 0.298828, -9.69434, 1.18.2022 21:0:28.884
71, 1.77128, 0.163541, 86.8251, -0.000976562, 0, -0.000976562, -0.0136719, 0.286133, -9.7373, 1.18.2022 21:0:28.892
72, 1.77612, 0.168432, 86.8252, -0.00195312, 0, 0, -0.0400391, 0.304688, -9.74121, 1.18.2022 21:0:28.900
73, 1.77612, 0.168432, 86.8252, -0.000976562, -0.000976562, -0.000976562, 0.0429688, 0.267578, -9.76465, 1.18.2022 21:0:28.908
74, 1.77612, 0.168432, 86.8252, -0.000976562, -0.000976562, 0, -0.0214844, 0.310547, -9.75488, 1.18.2022 21:0:28.916
75, 1.77612, 0.168432, 86.8252, -0.000976562, -0.000976562, 0.000976562, -0.0546875, 0.310547, -9.75977, 1.18.2022 21:0:28.924
76, 1.77612, 0.168432, 86.8252, -0.000976562, -0.000976562, 0, -0.00488281, 0.273438, -9.7334, 1.18.2022 21:0:28.932
77, 1.77612, 0.168432, 86.8252, 0, -0.000976562, 0.000976562, -0.0595703, 0.286133, -9.75293, 1.18.2022 21:0:28.940
78, 1.77612, 0.168432, 86.8252, 0, -0.000976562, 0, 0.00488281, 0.28125, -9.76172, 1.18.2022 21:0:28.948
79, 1.77612, 0.168432, 86.8252, 0, -0.000976562, 0, 0, 0.298828, -9.77051, 1.18.2022 21:0:28.956
80, 1.77612, 0.168432, 86.8252, 0, -0.000976562, 0, -0.0742188, 0.322266, -9.74707, 1.18.2022 21:0:28.964
81, 1.77612, 0.168432, 86.8252, 0, 0, 0, 0.0195312, 0.316406, -9.74414, 1.18.2022 21:0:28.972
82, 1.77612, 0.168432, 86.8252, -0.000976562, -0.000976562, 0, -0.0566406, 0.291016, -9.74805, 1.18.2022 21:0:28.980
83, 1.77612, 0.168432, 86.8252, -0.000976562, 0, 0, -0.0615234, 0.333008, -9.71582, 1.18.2022 21:0:28.988
84, 1.77612, 0.168432, 86.8252, 0, 0, 0, -0.00195312, 0.304688, -9.73438, 1.18.2022 21:0:28.996
85, 1.77612, 0.168432, 86.8252, -0.000976562, 0, 0.000976562, -0.0683594, 0.326172, -9.73535, 1.18.2022 21:0:29.004
86, 1.77612, 0.168432, 86.8252, -0.000976562, 0, -0.000976562, -0.0234375, 0.305664, -9.75586, 1.18.2022 21:0:29.012
87, 1.77612, 0.168432, 86.8252, 0, -0.000976562, 0, -0.0136719, 0.285156, -9.70703, 1.18.2022 21:0:29.020
88, 1.77612, 0.168432, 86.8252, 0.000976562, -0.00195312, 0, -0.0576172, 0.332031, -9.75879, 1.18.2022 21:0:29.028
89, 1.77612, 0.168432, 86.8252, -0.000976562, -0.000976562, -0.000976562, 0.0283203, 0.28418, -9.77344, 1.18.2022 21:0:29.036
90, 1.77612, 0.168432, 86.8252, -0.000976562, -0.000976562, 0, -0.00878906, 0.296875, -9.71777, 1.18.2022 21:0:29.044
91, 1.77612, 0.168432, 86.8252, -0.000976562, 0, 0.000976562, -0.0449219, 0.3125, -9.74316, 1.18.2022 21:0:29.052
92, 1.77612, 0.168432, 86.8252, -0.000976562, 0, 0, 0.0244141, 0.282227, -9.69531, 1.18.2022 21:0:29.060
93, 1.77612, 0.168432, 86.8252, 0, -0.000976562, 0, -0.0683594, 0.304688, -9.73145, 1.18.2022 21:0:29.068
94, 1.77612, 0.168432, 86.8252, -0.000976562, 0, 0, -0.0273438, 0.316406, -9.70996, 1.18.2022 21:0:29.076
95, 1.77612, 0.168432, 86.8252, -0.000976562, -0.000976562, 0.000976562, 0.03125, 0.271484, -9.74805, 1.18.2022 21:0:29.084
96, 1.77612, 0.168432, 86.8252, -0.000976562, -0.000976562, 0.000976562, -0.0703125, 0.308594, -9.70312, 1.18.2022 21:0:29.092
97, 1.77612, 0.168432, 86.8252, 0, 0, -0.000976562, 0.0117188, 0.299805, -9.73926, 1.18.2022 21:0:29.100
98, 1.77612, 0.168432, 86.8252, -0.000976562, 0, -0.00195312, -0.0205078, 0.285156, -9.70605, 1.18.2022 21:0:29.108
99, 1.77612, 0.168432, 86.8252, -0.000976562, -0.000976562, -0.000976562, -0.0615234, 0.324219, -9.75, 1.18.2022 21:0:29.116
100, 1.77612, 0.168432, 86.8252, -0.000976562, -0.00195312, 0.000976562, 0.0244141, 0.273438, -9.74023, 1.18.2022 21:0:29.124
101, 1.77612, 0.168432, 86.8252, -0.000976562, -0.000976562, -0.000976562, -0.0566406, 0.3125, -9.74805, 1.18.2022 21:0:29.132
102, 1.77612, 0.168432, 86.8252, 0, 0, -0.000976562, -0.0332031, 0.294922, -9.73633, 1.18.2022 21:0:29.140
103, 1.78093, 0.163352, 86.8252, 0, 0, -0.000976562, -0.0205078, 0.244141, -9.72168, 1.18.2022 21:0:29.148
104, 1.77612, 0.168432, 86.8252, 0, -0.000976562, -0.000976562, -0.102539, 0.317383, -9.76074, 1.18.2022 21:0:29.156
105, 1.77612, 0.168432, 86.8252, -0.000976562, -0.000976562, -0.000976562, -0.00488281, 0.300781, -9.74902, 1.18.2022 21:0:29.164
106, 1.77612, 0.168432, 86.8252, 0, -0.000976562, -0.000976562, -0.0166016, 0.301758, -9.72461, 1.18.2022 21:0:29.172
107, 1.77612, 0.168432, 86.8252, 0, -0.000976562, -0.000976562, -0.0761719, 0.297852, -9.72852, 1.18.2022 21:0:29.180
108, 1.77105, 0.163626, 86.8254, 0, 0, -0.000976562, 0.00292969, 0.310547, -9.70117, 1.18.2022 21:0:29.188
109, 1.77105, 0.163626, 86.8254, -0.000976562, 0, 0, -0.0351562, 0.271484, -9.73926, 1.18.2022 21:0:29.196
110, 1.77105, 0.163626, 86.8254, 0, 0, -0.000976562, -0.0410156, 0.305664, -9.77441, 1.18.2022 21:0:29.204
111, 1.77585, 0.158546, 86.8254, -0.000976562, -0.000976562, -0.000976562, 0.00195312, 0.269531, -9.75, 1.18.2022 21:0:29.212
112, 1.77105, 0.163626, 86.8254, 0, -0.000976562, -0.000976562, -0.0566406, 0.283203, -9.73926, 1.18.2022 21:0:29.220
113, 1.77105, 0.163626, 86.8254, 0, -0.000976562, -0.000976562, -0.0380859, 0.291016, -9.73926, 1.18.2022 21:0:29.228
114, 1.77127, 0.163693, 86.8353, 0, -0.000976562, -0.000976562, -0.00390625, 0.294922, -9.73242, 1.18.2022 21:0:29.236
115, 1.77127, 0.163693, 86.8353, 0, -0.000976562, -0.000976562, -0.0683594, 0.295898, -9.68848, 1.18.2022 21:0:29.244
116, 1.77127, 0.163693, 86.8353, 0, -0.000976562, -0.000976562, 0, 0.299805, -9.73047, 1.18.2022 21:0:29.252
117, 1.77104, 0.163778, 86.8356, 0, 0, -0.00195312, -0.03125, 0.305664, -9.76953, 1.18.2022 21:0:29.260
118, 1.77104, 0.163778, 86.8356, -0.000976562, -0.000976562, -0.000976562, -0.0332031, 0.285156, -9.72949, 1.18.2022 21:0:29.266
119, 1.77104, 0.163778, 86.8356, -0.000976562, 0, -0.00195312, 0.0478516, 0.290039, -9.7168, 1.18.2022 21:0:29.274
120, 1.77104, 0.163778, 86.8356, -0.000976562, -0.000976562, -0.000976562, -0.0839844, 0.295898, -9.77148, 1.18.2022 21:0:29.282
121, 1.77104, 0.163778, 86.8356, -0.000976562, -0.000976562, -0.000976562, -0.0361328, 0.300781, -9.74805, 1.18.2022 21:0:29.290
122, 1.77104, 0.163778, 86.8356, 0, -0.000976562, -0.000976562, 0.00195312, 0.305664, -9.76074, 1.18.2022 21:0:29.298
123, 1.77104, 0.163778, 86.8356, 0, 0, -0.000976562, -0.0605469, 0.321289, -9.79883, 1.18.2022 21:0:29.306
124, 1.77104, 0.163778, 86.8356, -0.000976562, 0, 0, -0.00683594, 0.27832, -9.73242, 1.18.2022 21:0:29.314
125, 1.77104, 0.163778, 86.8356, -0.000976562, 0, 0, -0.0322266, 0.294922, -9.71094, 1.18.2022 21:0:29.322
126, 1.77104, 0.163778, 86.8356, -0.000976562, 0, 0, -0.046875, 0.313477, -9.69629, 1.18.2022 21:0:29.330
127, 1.77585, 0.158699, 86.8356, -0.000976562, 0, 0, 0.0439453, 0.299805, -9.71875, 1.18.2022 21:0:29.338
128, 1.77585, 0.158699, 86.8356, -0.000976562, -0.000976562, 0, -0.0791016, 0.297852, -9.75684, 1.18.2022 21:0:29.346
129, 1.77585, 0.158699, 86.8356, 0, -0.000976562, 0, -0.0332031, 0.283203, -9.7207, 1.18.2022 21:0:29.354
130, 1.77104, 0.163778, 86.8356, -0.000976562, -0.000976562, 0, 0.0380859, 0.283203, -9.75, 1.18.2022 21:0:29.362
131, 1.77585, 0.158699, 86.8356, -0.000976562, 0, 0.000976562, -0.0566406, 0.306641, -9.71973, 1.18.2022 21:0:29.370
132, 1.77585, 0.158699, 86.8356, -0.000976562, 0, 0, -0.0185547, 0.290039, -9.72949, 1.18.2022 21:0:29.378
133, 1.77585, 0.158699, 86.8356, 0, -0.000976562, 0, -0.00683594, 0.286133, -9.74219, 1.18.2022 21:0:29.386
134, 1.77608, 0.158613, 86.8353, 0, -0.00195312, -0.000976562, -0.0751953, 0.308594, -9.71484, 1.18.2022 21:0:29.394
135, 1.77127, 0.163693, 86.8353, -0.000976562, -0.000976562, 0, 0.00976562, 0.299805, -9.7207, 1.18.2022 21:0:29.402
136, 1.77105, 0.163626, 86.8254, -0.000976562, 0, 0, -0.0302734, 0.294922, -9.73242, 1.18.2022 21:0:29.410
137, 1.77585, 0.158546, 86.8254, -0.000976562, -0.000976562, -0.00195312, -0.0400391, 0.304688, -9.72949, 1.18.2022 21:0:29.418
138, 1.77105, 0.163626, 86.8254, 0, -0.000976562, -0.00195312, 0.00195312, 0.28125, -9.75195, 1.18.2022 21:0:29.426
139, 1.77105, 0.163626, 86.8254, 0, -0.000976562, -0.00195312, -0.0830078, 0.291016, -9.75, 1.18.2022 21:0:29.434
140, 1.77105, 0.163626, 86.8254, 0, 0, 0, -0.0517578, 0.296875, -9.71289, 1.18.2022 21:0:29.442
141, 1.77105, 0.163626, 86.8254, 0, 0, 0, -0.015625, 0.27832, -9.71582, 1.18.2022 21:0:29.450
142, 1.77105, 0.163626, 86.8254, -0.000976562, -0.000976562, 0, -0.0761719, 0.34082, -9.75391, 1.18.2022 21:0:29.458
143, 1.77105, 0.163626, 86.8254, 0, -0.000976562, 0.000976562, 0, 0.291016, -9.74219, 1.18.2022 21:0:29.466
144, 1.77105, 0.163626, 86.8254, 0, -0.000976562, 0, -0.0214844, 0.283203, -9.74414, 1.18.2022 21:0:29.474
145, 1.77105, 0.163626, 86.8254, 0, -0.000976562, 0, -0.0380859, 0.307617, -9.73828, 1.18.2022 21:0:29.482
146, 1.77105, 0.163626, 86.8254, 0, 0, -0.00195312, 0.0263672, 0.285156, -9.72168, 1.18.2022 21:0:29.490
147, 1.77105, 0.163626, 86.8254, 0, 0, -0.00195312, -0.0615234, 0.335938, -9.74414, 1.18.2022 21:0:29.498
148, 1.77105, 0.163626, 86.8254, -0.000976562, 0.000976562, 0, -0.0400391, 0.296875, -9.72266, 1.18.2022 21:0:29.506
149, 1.77105, 0.163626, 86.8254, -0.000976562, 0.000976562, -0.000976562, 0.00390625, 0.292969, -9.66602, 1.18.2022 21:0:29.514
150, 1.77105, 0.163626, 86.8254, -0.000976562, 0, 0, -0.0566406, 0.318359, -9.7168, 1.18.2022 21:0:29.522
151, 1.77585, 0.158546, 86.8254, -0.000976562, 0, 0, -0.015625, 0.301758, -9.80566, 1.18.2022 21:0:29.530
152, 1.77585, 0.158546, 86.8254, -0.000976562, 0, 0, 0.00976562, 0.319336, -9.73438, 1.18.2022 21:0:29.538
153, 1.77585, 0.158546, 86.8254, -0.000976562, 0, 0, -0.0908203, 0.298828, -9.7832, 1.18.2022 21:0:29.546
154, 1.77585, 0.158546, 86.8254, 0, -0.000976562, 0, 0.0175781, 0.296875, -9.71875, 1.18.2022 21:0:29.554
155, 1.77585, 0.158546, 86.8254, 0, -0.000976562, 0, -0.0693359, 0.319336, -9.74023, 1.18.2022 21:0:29.562
156, 1.77585, 0.158546, 86.8254, -0.000976562, -0.000976562, 0, -0.00585938, 0.31543, -9.70801, 1.18.2022 21:0:29.570
157, 1.77585, 0.158546, 86.8254, -0.000976562, -0.00195312, -0.000976562, -0.00195312, 0.28418, -9.75684, 1.18.2022 21:0:29.578
158, 1.77585, 0.158546, 86.8254, 0, 0, 0, -0.0810547, 0.327148, -9.74707, 1.18.2022 21:0:29.586
159, 1.77585, 0.158546, 86.8254, 0, -0.000976562, 0, -0.0214844, 0.299805, -9.73926, 1.18.2022 21:0:29.594
160, 1.77105, 0.163626, 86.8254, 0, 0, 0, -0.00976562, 0.295898, -9.75586, 1.18.2022 21:0:29.602
161, 1.77105, 0.163626, 86.8254, 0, -0.000976562, 0, -0.0839844, 0.310547, -9.7666, 1.18.2022 21:0:29.610
162, 1.77105, 0.163626, 86.8254, 0, -0.000976562, 0, 0.0380859, 0.294922, -9.74023, 1.18.2022 21:0:29.618
163, 1.77105, 0.163626, 86.8254, -0.000976562, -0.000976562, 0, -0.0214844, 0.289062, -9.77051, 1.18.2022 21:0:29.626
164, 1.77105, 0.163626, 86.8254, -0.000976562, 0, -0.000976562, -0.0498047, 0.324219, -9.74316, 1.18.2022 21:0:29.634
165, 1.77105, 0.163626, 86.8254, -0.000976562, 0.000976562, 0, 0.0527344, 0.273438, -9.71973, 1.18.2022 21:0:29.642
166, 1.77585, 0.158546, 86.8254, -0.000976562, -0.000976562, 0, -0.0761719, 0.321289, -9.72852, 1.18.2022 21:0:29.650
167, 1.77585, 0.158546, 86.8254, -0.000976562, 0, 0, -0.0234375, 0.316406, -9.71973, 1.18.2022 21:0:29.658
168, 1.77585, 0.158546, 86.8254, 0, -0.000976562, 0, -0.0253906, 0.285156, -9.72266, 1.18.2022 21:0:29.666
169, 1.77585, 0.158546, 86.8254, -0.000976562, 0, 0, -0.0449219, 0.316406, -9.71484, 1.18.2022 21:0:29.674
170, 1.77585, 0.158546, 86.8254, 0, -0.000976562, 0, 0.00292969, 0.314453, -9.74609, 1.18.2022 21:0:29.682
171, 1.77585, 0.158546, 86.8254, 0, -0.000976562, -0.000976562, -0.0253906, 0.302734, -9.73438, 1.18.2022 21:0:29.690
172, 1.77105, 0.163626, 86.8254, -0.000976562, -0.00195312, -0.00195312, -0.0742188, 0.338867, -9.75391, 1.18.2022 21:0:29.698
173, 1.77128, 0.163541, 86.8251, -0.000976562, -0.000976562, 0.000976562, 0.0380859, 0.283203, -9.74316, 1.18.2022 21:0:29.706
174, 1.77128, 0.163541, 86.8251, 0, -0.000976562, 0.000976562, -0.0595703, 0.298828, -9.75977, 1.18.2022 21:0:29.714
175, 1.77128, 0.163541, 86.8251, -0.000976562, 0, 0.000976562, -0.0205078, 0.283203, -9.72559, 1.18.2022 21:0:29.722
176, 1.77128, 0.163541, 86.8251, -0.000976562, -0.000976562, 0, -0.00683594, 0.286133, -9.75879, 1.18.2022 21:0:29.730
177, 1.77608, 0.158461, 86.8251, 0, 0, 0, -0.0683594, 0.314453, -9.72363, 1.18.2022 21:0:29.738
178, 1.77128, 0.163541, 86.8251, 0, -0.000976562, 0, -0.0126953, 0.293945, -9.77441, 1.18.2022 21:0:29.746
179, 1.77128, 0.163541, 86.8251, -0.000976562, 0, 0, -0.0263672, 0.271484, -9.73535, 1.18.2022 21:0:29.754
180, 1.77608, 0.158461, 86.8251, -0.000976562, 0, 0, -0.0976562, 0.34082, -9.73242, 1.18.2022 21:0:29.762
181, 1.77585, 0.158546, 86.8254, -0.000976562, 0, 0.000976562, 0.0380859, 0.283203, -9.7334, 1.18.2022 21:0:29.770
182, 1.77585, 0.158546, 86.8254, 0, 0, 0, -0.0527344, 0.300781, -9.75781, 1.18.2022 21:0:29.778
183, 1.77585, 0.158546, 86.8254, 0, 0, 0, -0.03125, 0.320312, -9.76172, 1.18.2022 21:0:29.786
184, 1.77585, 0.158546, 86.8254, 0, -0.000976562, 0, 0.0166016, 0.286133, -9.75, 1.18.2022 21:0:29.794
185, 1.77585, 0.158546, 86.8254, -0.000976562, -0.000976562, 0, -0.0839844, 0.302734, -9.67188, 1.18.2022 21:0:29.802
186, 1.77585, 0.158546, 86.8254, -0.000976562, -0.000976562, 0, -0.0498047, 0.294922, -9.71777, 1.18.2022 21:0:29.810
187, 1.77585, 0.158546, 86.8254, -0.000976562, 0, 0, -0.000976562, 0.299805, -9.6543, 1.18.2022 21:0:29.818
188, 1.77608, 0.158613, 86.8353, -0.000976562, 0, 0, -0.0761719, 0.333984, -9.76562, 1.18.2022 21:0:29.826
189, 1.77585, 0.158699, 86.8356, -0.000976562, 0, 0, 0.0136719, 0.291016, -9.76855, 1.18.2022 21:0:29.834
190, 1.77585, 0.158699, 86.8356, -0.000976562, -0.000976562, -0.000976562, -0.0478516, 0.286133, -9.75098, 1.18.2022 21:0:29.842
191, 1.77585, 0.158699, 86.8356, 0, -0.000976562, -0.000976562, -0.0517578, 0.301758, -9.71484, 1.18.2022 21:0:29.850
192, 1.77585, 0.158699, 86.8356, -0.000976562, -0.000976562, -0.000976562, -0.00683594, 0.27832, -9.73047, 1.18.2022 21:0:29.858
193, 1.77585, 0.158699, 86.8356, -0.000976562, 0, 0, -0.0654297, 0.321289, -9.79688, 1.18.2022 21:0:29.866
194, 1.77585, 0.158699, 86.8356, -0.000976562, 0, 0, -0.03125, 0.320312, -9.76172, 1.18.2022 21:0:29.874
195, 1.77585, 0.158699, 86.8356, -0.000976562, -0.000976562, -0.000976562, -0.00683594, 0.291016, -9.75879, 1.18.2022 21:0:29.882
196, 1.77585, 0.158699, 86.8356, -0.000976562, 0, 0, -0.0683594, 0.287109, -9.71484, 1.18.2022 21:0:29.890
197, 1.77608, 0.158766, 86.8454, -0.000976562, -0.00195312, -0.000976562, 0.0126953, 0.305664, -9.7041, 1.18.2022 21:0:29.898
198, 1.77608, 0.158766, 86.8454, -0.000976562, -0.000976562, -0.000976562, -0.0332031, 0.289062, -9.76074, 1.18.2022 21:0:29.906
199, 1.77608, 0.158766, 86.8454, -0.000976562, -0.000976562, -0.000976562, -0.0527344, 0.327148, -9.75, 1.18.2022 21:0:29.914
200, 1.77585, 0.158852, 86.8457, -0.000976562, -0.000976562, -0.000976562, 0.0332031, 0.30957, -9.73926, 1.18.2022 21:0:29.922
201, 1.77585, 0.158852, 86.8457, -0.000976562, 0, 0.000976562, -0.0693359, 0.305664, -9.76367, 1.18.2022 21:0:29.930
202, 1.77585, 0.158852, 86.8457, -0.000976562, 0, 0.000976562, -0.0400391, 0.301758, -9.72656, 1.18.2022 21:0:29.938
203, 1.77585, 0.158852, 86.8457, -0.000976562, 0, 0, -0.00976562, 0.257812, -9.76855, 1.18.2022 21:0:29.946
204, 1.77585, 0.158852, 86.8457, -0.000976562, 0, 0, -0.0732422, 0.318359, -9.69727, 1.18.2022 21:0:29.954
205, 1.77585, 0.158852, 86.8457, 0, -0.000976562, -0.000976562, -0.0078125, 0.291992, -9.78711, 1.18.2022 21:0:29.962
206, 1.77585, 0.158852, 86.8457, -0.000976562, -0.000976562, -0.000976562, -0.0146484, 0.292969, -9.75098, 1.18.2022 21:0:29.970
207, 1.77585, 0.158852, 86.8457, -0.000976562, -0.000976562, -0.000976562, -0.0830078, 0.311523, -9.73047, 1.18.2022 21:0:29.978
208, 1.77585, 0.158852, 86.8457, -0.000976562, -0.000976562, -0.000976562, 0.0263672, 0.285156, -9.71875, 1.18.2022 21:0:29.986
209, 1.77585, 0.158852, 86.8457, -0.000976562, -0.000976562, -0.000976562, -0.0927734, 0.302734, -9.74023, 1.18.2022 21:0:29.994
210, 1.77585, 0.158852, 86.8457, -0.000976562, -0.000976562, -0.00195312, -0.0263672, 0.291016, -9.74902, 1.18.2022 21:0:30.002
211, 1.77585, 0.158852, 86.8457, -0.00195312, -0.000976562, 0.000976562, -0.00292969, 0.279297, -9.76855, 1.18.2022 21:0:30.010
212, 1.78116, 0.163573, 86.8453, -0.00195312, 0, 0, -0.078125, 0.30957, -9.73828, 1.18.2022 21:0:30.018
213, 1.78116, 0.163573, 86.8453, 0, 0, -0.00195312, -0.0351562, 0.296875, -9.71582, 1.18.2022 21:0:30.026
214, 1.77608, 0.158766, 86.8454, -0.000976562, 0, 0, -0.0117188, 0.319336, -9.74121, 1.18.2022 21:0:30.034
215, 1.77608, 0.158766, 86.8454, -0.000976562, 0, 0.000976562, -0.0644531, 0.353516, -9.76074, 1.18.2022 21:0:30.042
216, 1.77608, 0.158766, 86.8454, -0.000976562, 0, 0, 0.0234375, 0.292969, -9.75879, 1.18.2022 21:0:30.050
217, 1.77608, 0.158766, 86.8454, -0.00195312, 0, 0, -0.0332031, 0.293945, -9.75781, 1.18.2022 21:0:30.058
218, 1.78116, 0.163573, 86.8453, -0.000976562, 0, 0, -0.0478516, 0.3125, -9.74805, 1.18.2022 21:0:30.066
219, 1.78116, 0.163573, 86.8453, -0.000976562, 0, 0, 0.0351562, 0.274414, -9.76172, 1.18.2022 21:0:30.074
220, 1.78093, 0.163505, 86.8354, -0.000976562, 0, 0, -0.0693359, 0.314453, -9.75195, 1.18.2022 21:0:30.082
221, 1.78093, 0.163505, 86.8354, -0.000976562, 0, 0, -0.0195312, 0.302734, -9.7627, 1.18.2022 21:0:30.090
222, 1.77585, 0.158699, 86.8356, 0, 0, 0, 0.00292969, 0.302734, -9.74609, 1.18.2022 21:0:30.098
223, 1.77585, 0.158699, 86.8356, 0.000976562, 0, 0, -0.078125, 0.326172, -9.72363, 1.18.2022 21:0:30.106
224, 1.77585, 0.158699, 86.8356, -0.000976562, -0.000976562, -0.000976562, 0.0263672, 0.30957, -9.73926, 1.18.2022 21:0:30.114
225, 1.77585, 0.158699, 86.8356, 0.000976562, 0, -0.000976562, -0.0214844, 0.30957, -9.73633, 1.18.2022 21:0:30.122
226, 1.77585, 0.158699, 86.8356, -0.000976562, 0, -0.000976562, -0.0351562, 0.323242, -9.72363, 1.18.2022 21:0:30.130
227, 1.77585, 0.158699, 86.8356, -0.000976562, 0, -0.000976562, 0.0351562, 0.287109, -9.78516, 1.18.2022 21:0:30.138
228, 1.77585, 0.158699, 86.8356, -0.000976562, -0.000976562, -0.000976562, -0.0625, 0.325195, -9.77832, 1.18.2022 21:0:30.146
229, 1.77585, 0.158699, 86.8356, 0.000976562, -0.000976562, -0.000976562, -0.0185547, 0.307617, -9.75098, 1.18.2022 21:0:30.154
230, 1.77585, 0.158699, 86.8356, 0.000976562, 0, -0.000976562, 0.0166016, 0.293945, -9.77051, 1.18.2022 21:0:30.162
231, 1.77585, 0.158699, 86.8356, -0.000976562, 0, -0.000976562, -0.0585938, 0.321289, -9.7168, 1.18.2022 21:0:30.170
232, 1.77585, 0.158699, 86.8356, -0.000976562, -0.000976562, -0.000976562, -0.00878906, 0.299805, -9.7373, 1.18.2022 21:0:30.178
233, 1.77585, 0.158699, 86.8356, 0.000976562, -0.000976562, -0.00195312, -0.00976562, 0.307617, -9.75098, 1.18.2022 21:0:30.186
234, 1.77585, 0.158699, 86.8356, 0.000976562, -0.000976562, -0.000976562, -0.0507812, 0.332031, -9.77344, 1.18.2022 21:0:30.194
235, 1.77585, 0.158699, 86.8356, -0.000976562, 0, -0.000976562, 0.03125, 0.28418, -9.75684, 1.18.2022 21:0:30.202
236, 1.77585, 0.158699, 86.8356, 0.000976562, -0.000976562, -0.000976562, -0.0361328, 0.296875, -9.79297, 1.18.2022 21:0:30.210
237, 1.77585, 0.158699, 86.8356, 0.000976562, -0.000976562, -0.000976562, -0.0205078, 0.320312, -9.70996, 1.18.2022 21:0:30.218
238, 1.77585, 0.158699, 86.8356, -0.000976562, 0, -0.000976562, 0.00292969, 0.292969, -9.74902, 1.18.2022 21:0:30.226
239, 1.77585, 0.158699, 86.8356, -0.000976562, 0, -0.000976562, -0.0478516, 0.338867, -9.75391, 1.18.2022 21:0:30.234
240, 1.77585, 0.158699, 86.8356, -0.000976562, 0, -0.000976562, 0.000976562, 0.321289, -9.72656, 1.18.2022 21:0:30.240
241, 1.77585, 0.158699, 86.8356, -0.000976562, 0, -0.000976562, -0.0117188, 0.321289, -9.71973, 1.18.2022 21:0:30.248
242, 1.77585, 0.158699, 86.8356, 0.000976562, 0, -0.00195312, -0.0917969, 0.332031, -9.69434, 1.18.2022 21:0:30.256
243, 1.77585, 0.158699, 86.8356, -0.000976562, 0, -0.000976562, 0, 0.293945, -9.76074, 1.18.2022 21:0:30.264
244, 1.77585, 0.158699, 86.8356, -0.000976562, -0.000976562, -0.000976562, -0.0400391, 0.273438, -9.72266, 1.18.2022 21:0:30.272
245, 1.77585, 0.158699, 86.8356, -0.000976562, 0, -0.000976562, -0.0761719, 0.326172, -9.74219, 1.18.2022 21:0:30.280
246, 1.77585, 0.158699, 86.8356, 0.000976562, 0, -0.000976562, 0.0214844, 0.279297, -9.75488, 1.18.2022 21:0:30.288
247, 1.77585, 0.158699, 86.8356, 0.000976562, -0.000976562, -0.000976562, -0.0566406, 0.292969, -9.72949, 1.18.2022 21:0:30.296
248, 1.77585, 0.158699, 86.8356, 0.000976562, 0, -0.000976562, -0.0302734, 0.34082, -9.7334, 1.18.2022 21:0:30.304
249, 1.77585, 0.158699, 86.8356, 0.000976562, -0.000976562, -0.000976562, 0.0078125, 0.299805, -9.73242, 1.18.2022 21:0:30.312
250, 1.77585, 0.158699, 86.8356, 0.000976562, 0, 0, -0.0595703, 0.319336, -9.73047, 1.18.2022 21:0:30.320
251, 1.77585, 0.158699, 86.8356, -0.000976562, -0.000976562, 0, 0.0292969, 0.308594, -9.70898, 1.18.2022 21:0:30.328
252, 1.77585, 0.158699, 86.8356, -0.000976562, 0, -0.00195312, -0.0498047, 0.314453, -9.7334, 1.18.2022 21:0:30.336
253, 1.77585, 0.158699, 86.8356, -0.000976562, -0.000976562, -0.000976562, -0.046875, 0.304688, -9.73145, 1.18.2022 21:0:30.344
254, 1.77585, 0.158699, 86.8356, -0.000976562, -0.000976562, -0.000976562, 0.00976562, 0.290039, -9.73047, 1.18.2022 21:0:30.352
255, 1.77585, 0.158699, 86.8356, -0.000976562, 0, -0.00195312, -0.0615234, 0.321289, -9.72363, 1.18.2022 21:0:30.360
256, 1.77585, 0.158699, 86.8356, -0.000976562, 0, 0.000976562, -0.0576172, 0.291016, -9.75293, 1.18.2022 21:0:30.368
257, 1.77585, 0.158699, 86.8356, -0.000976562, -0.000976562, 0, 0.00292969, 0.306641, -9.72949, 1.18.2022 21:0:30.376
258, 1.77585, 0.158699, 86.8356, 0, -0.000976562, -0.00195312, -0.0908203, 0.333984, -9.75781, 1.18.2022 21:0:30.384
259, 1.77585, 0.158699, 86.8356, -0.000976562, -0.000976562, 0, -0.0166016, 0.274414, -9.75195, 1.18.2022 21:0:30.392
260, 1.77585, 0.158699, 86.8356, 0, 0, 0.000976562, -0.0283203, 0.288086, -9.74414, 1.18.2022 21:0:30.400
261, 1.77585, 0.158699, 86.8356, -0.000976562, -0.000976562, 0, -0.0664062, 0.294922, -9.72461, 1.18.2022 21:0:30.408
262, 1.77585, 0.158699, 86.8356, 0, -0.000976562, 0, 0.00585938, 0.287109, -9.71387, 1.18.2022 21:0:30.416
263, 1.77585, 0.158699, 86.8356, -0.000976562, -0.000976562, -0.00195312, -0.0810547, 0.319336, -9.7373, 1.18.2022 21:0:30.424
264, 1.77585, 0.158699, 86.8356, -0.000976562, -0.000976562, -0.00195312, -0.0302734, 0.313477, -9.70508, 1.18.2022 21:0:30.432
265, 1.77585, 0.158699, 86.8356, 0, -0.000976562, 0, -0.0136719, 0.292969, -9.73438, 1.18.2022 21:0:30.440
266, 1.77585, 0.158699, 86.8356, -0.000976562, 0, 0, -0.078125, 0.30957, -9.7334, 1.18.2022 21:0:30.448
267, 1.77585, 0.158699, 86.8356, -0.000976562, -0.000976562, 0, -0.0283203, 0.305664, -9.75781, 1.18.2022 21:0:30.456
268, 1.77585, 0.158699, 86.8356, 0, 0, 0, -0.0283203, 0.292969, -9.73438, 1.18.2022 21:0:30.464
269, 1.77585, 0.158699, 86.8356, 0, -0.000976562, 0, -0.0683594, 0.323242, -9.70898, 1.18.2022 21:0:30.472
270, 1.77585, 0.158699, 86.8356, -0.000976562, 0, 0.000976562, 0.0078125, 0.290039, -9.73242, 1.18.2022 21:0:30.480
271, 1.77585, 0.158699, 86.8356, -0.000976562, 0, 0, -0.0371094, 0.316406, -9.71289, 1.18.2022 21:0:30.488
272, 1.77585, 0.158699, 86.8356, 0, 0, 0, -0.0585938, 0.326172, -9.72559, 1.18.2022 21:0:30.496
273, 1.77585, 0.158699, 86.8356, 0, -0.000976562, 0, 0.00292969, 0.276367, -9.7373, 1.18.2022 21:0:30.504
274, 1.77585, 0.158699, 86.8356, 0, 0, 0, -0.0761719, 0.319336, -9.72363, 1.18.2022 21:0:30.512
275, 1.77585, 0.158699, 86.8356, 0, -0.000976562, 0, -0.0117188, 0.304688, -9.7207, 1.18.2022 21:0:30.520
276, 1.77585, 0.158699, 86.8356, -0.000976562, 0, 0, 0.00390625, 0.280273, -9.79688, 1.18.2022 21:0:30.528
277, 1.77585, 0.158699, 86.8356, 0, -0.000976562, 0, -0.0839844, 0.330078, -9.77539, 1.18.2022 21:0:30.536
278, 1.77585, 0.158699, 86.8356, -0.000976562, 0, 0, 0.00488281, 0.268555, -9.72852, 1.18.2022 21:0:30.544
279, 1.77585, 0.158699, 86.8356, 0, -0.000976562, 0.000976562, -0.0283203, 0.294922, -9.72461, 1.18.2022 21:0:30.552
280, 1.77585, 0.158699, 86.8356, 0.000976562, 0, 0, -0.0683594, 0.304688, -9.71973, 1.18.2022 21:0:30.560
281, 1.77585, 0.158699, 86.8356, 0, -0.000976562, 0.000976562, 0.0166016, 0.268555, -9.73633, 1.18.2022 21:0:30.568
282, 1.77585, 0.158699, 86.8356, -0.000976562, -0.000976562, 0.000976562, -0.0664062, 0.3125, -9.74316, 1.18.2022 21:0:30.576
283, 1.77585, 0.158699, 86.8356, -0.000976562, 0, 0, -0.0410156, 0.313477, -9.77344, 1.18.2022 21:0:30.584
284, 1.77608, 0.158613, 86.8353, -0.000976562, -0.000976562, 0, 0.000976562, 0.306641, -9.72266, 1.18.2022 21:0:30.592
285, 1.77608, 0.158613, 86.8353, 0, -0.000976562, 0, -0.0849609, 0.304688, -9.72852, 1.18.2022 21:0:30.600
286, 1.77608, 0.158613, 86.8353, -0.000976562, -0.000976562, 0, 0.00488281, 0.306641, -9.72266, 1.18.2022 21:0:30.608
287, 1.77608, 0.158613, 86.8353, -0.000976562, 0, -0.000976562, -0.0214844, 0.293945, -9.7627, 1.18.2022 21:0:30.616
288, 1.77608, 0.158613, 86.8353, -0.000976562, 0, -0.000976562, -0.0546875, 0.306641, -9.72656, 1.18.2022 21:0:30.624
289, 1.77608, 0.158613, 86.8353, -0.000976562, -0.000976562, -0.000976562, 0.0214844, 0.283203, -9.7334, 1.18.2022 21:0:30.632
290, 1.77608, 0.158613, 86.8353, -0.000976562, -0.000976562, -0.000976562, -0.0683594, 0.311523, -9.71875, 1.18.2022 21:0:30.640
291, 1.77608, 0.158613, 86.8353, -0.000976562, -0.000976562, -0.00195312, -0.0400391, 0.30957, -9.72656, 1.18.2022 21:0:30.648
292, 1.77585, 0.158699, 86.8356, -0.000976562, 0, -0.000976562, 0.0214844, 0.286133, -9.76172, 1.18.2022 21:0:30.656
293, 1.77585, 0.158699, 86.8356, -0.000976562, -0.00195312, -0.000976562, -0.0703125, 0.321289, -9.71191, 1.18.2022 21:0:30.664
294, 1.78093, 0.163505, 86.8354, -0.000976562, -0.000976562, -0.000976562, -0.0136719, 0.291992, -9.7207, 1.18.2022 21:0:30.672
295, 1.78093, 0.163505, 86.8354, -0.000976562, -0.000976562, -0.000976562, -0.0195312, 0.302734, -9.75781, 1.18.2022 21:0:30.680
296, 1.78093, 0.163505, 86.8354, -0.000976562, 0, 0.000976562, -0.0761719, 0.298828, -9.76855, 1.18.2022 21:0:30.688
297, 1.78093, 0.163505, 86.8354, 0, 0, -0.000976562, 0.0214844, 0.276367, -9.7334, 1.18.2022 21:0:30.696
298, 1.78093, 0.163505, 86.8354, 0, -0.000976562, 0, -0.0410156, 0.271484, -9.75391, 1.18.2022 21:0:30.704
299, 1.78093, 0.163505, 86.8354, -0.000976562, 0, 0.000976562, -0.015625, 0.313477, -9.71777, 1.18.2022 21:0:30.712
300, 1.78116, 0.163419, 86.8351, -0.000976562, -0.000976562, 0, -0.00488281, 0.297852, -9.74609, 1.18.2022 21:0:30.720
301, 1.78116, 0.163419, 86.8351, -0.000976562, 0, -0.000976562, -0.0683594, 0.304688, -9.72656, 1.18.2022 21:0:30.728
302, 1.78093, 0.163505, 86.8354, -0.000976562, 0, -0.000976562, -0.0449219, 0.288086, -9.72461, 1.18.2022 21:0:30.736
303, 1.78093, 0.163505, 86.8354, 0, -0.000976562, -0.000976562, -0.0185547, 0.297852, -9.74121, 1.18.2022 21:0:30.744
304, 1.78093, 0.163505, 86.8354, -0.000976562, -0.000976562, -0.000976562, -0.0537109, 0.308594, -9.70801, 1.18.2022 21:0:30.752
305, 1.78093, 0.163505, 86.8354, 0, -0.000976562, -0.00195312, 0.0185547, 0.295898, -9.76074, 1.18.2022 21:0:30.760
306, 1.78093, 0.163505, 86.8354, -0.000976562, -0.000976562, -0.00195312, -0.046875, 0.288086, -9.71973, 1.18.2022 21:0:30.768
307, 1.78093, 0.163505, 86.8354, -0.000976562, -0.000976562, 0, -0.0527344, 0.329102, -9.76172, 1.18.2022 21:0:30.776
308, 1.78116, 0.163419, 86.8351, -0.000976562, -0.000976562, -0.000976562, 0.0185547, 0.298828, -9.76562, 1.18.2022 21:0:30.784
309, 1.78116, 0.163419, 86.8351, -0.000976562, -0.000976562, -0.000976562, -0.0732422, 0.324219, -9.74512, 1.18.2022 21:0:30.792
310, 1.78116, 0.163419, 86.8351, -0.000976562, -0.000976562, 0, -0.0429688, 0.324219, -9.74512, 1.18.2022 21:0:30.800
311, 1.78093, 0.163352, 86.8252, -0.00195312, -0.000976562, -0.000976562, 0.0078125, 0.306641, -9.7207, 1.18.2022 21:0:30.808
312, 1.78093, 0.163352, 86.8252, 0, 0, -0.000976562, -0.0810547, 0.336914, -9.75391, 1.18.2022 21:0:30.816
313, 1.78093, 0.163352, 86.8252, 0, 0, -0.000976562, 0.0195312, 0.31543, -9.70898, 1.18.2022 21:0:30.824
314, 1.78093, 0.163352, 86.8252, 0, -0.000976562, 0, -0.00976562, 0.268555, -9.7373, 1.18.2022 21:0:30.832
315, 1.78093, 0.163352, 86.8252, 0, 0, -0.000976562, -0.0400391, 0.300781, -9.75098, 1.18.2022 21:0:30.840
316, 1.78093, 0.163352, 86.8252, 0, 0, -0.00195312, 0.0195312, 0.292969, -9.74219, 1.18.2022 21:0:30.848
317, 1.78093, 0.163352, 86.8252, -0.000976562, 0, -0.00195312, -0.0810547, 0.300781, -9.75977, 1.18.2022 21:0:30.856
318, 1.78116, 0.163419, 86.8351, -0.000976562, 0, -0.00195312, -0.0449219, 0.305664, -9.75293, 1.18.2022 21:0:30.864
319, 1.78116, 0.163419, 86.8351, -0.000976562, -0.000976562, -0.000976562, 0.0175781, 0.308594, -9.72266, 1.18.2022 21:0:30.872
320, 1.78093, 0.163505, 86.8354, 0, 0, -0.000976562, -0.114258, 0.302734, -9.73242, 1.18.2022 21:0:30.880
321, 1.78093, 0.163505, 86.8354, -0.000976562, 0, -0.000976562, -0.00488281, 0.291016, -9.77246, 1.18.2022 21:0:30.888
322, 1.78093, 0.163505, 86.8354, 0, 0, -0.000976562, -0.00292969, 0.293945, -9.76074, 1.18.2022 21:0:30.896
323, 1.78093, 0.163505, 86.8354, -0.000976562, -0.000976562, -0.000976562, -0.0595703, 0.317383, -9.76172, 1.18.2022 21:0:30.904
324, 1.78093, 0.163505, 86.8354, 0, -0.000976562, -0.000976562, 0.0195312, 0.28125, -9.74512, 1.18.2022 21:0:30.912
325, 1.78093, 0.163505, 86.8354, -0.000976562, 0, -0.000976562, -0.0419922, 0.316406, -9.72656, 1.18.2022 21:0:30.920
326, 1.78093, 0.163505, 86.8354, -0.000976562, -0.000976562, -0.000976562, -0.0380859, 0.311523, -9.73633, 1.18.2022 21:0:30.928
327, 1.78093, 0.163505, 86.8354, -0.000976562, -0.000976562, 0.000976562, -0.0117188, 0.28125, -9.7373, 1.18.2022 21:0:30.936
328, 1.78093, 0.163505, 86.8354, 0, -0.000976562, 0.000976562, -0.0693359, 0.3125, -9.74707, 1.18.2022 21:0:30.944
329, 1.78093, 0.163505, 86.8354, -0.000976562, -0.000976562, -0.000976562, -0.0146484, 0.291016, -9.75586, 1.18.2022 21:0:30.952
330, 1.78093, 0.163505, 86.8354, -0.000976562, 0, -0.000976562, -0.0117188, 0.292969, -9.75098, 1.18.2022 21:0:30.960
331, 1.78093, 0.163505, 86.8354, -0.000976562, 0, -0.000976562, -0.0839844, 0.310547, -9.76367, 1.18.2022 21:0:30.968
332, 1.78093, 0.163505, 86.8354, -0.00195312, 0, 0, -0.00683594, 0.285156, -9.72754, 1.18.2022 21:0:30.976
333, 1.78093, 0.163505, 86.8354, -0.000976562, 0, -0.000976562, -0.0361328, 0.287109, -9.78125, 1.18.2022 21:0:30.984
334, 1.78093, 0.163505, 86.8354, -0.000976562, -0.000976562, -0.000976562, -0.0537109, 0.308594, -9.70801, 1.18.2022 21:0:30.992
335, 1.78093, 0.163505, 86.8354, -0.000976562, -0.000976562, -0.000976562, 0.0107422, 0.291992, -9.71191, 1.18.2022 21:0:31.000
336, 1.78093, 0.163505, 86.8354, -0.00195312, -0.000976562, -0.000976562, -0.0800781, 0.304688, -9.72656, 1.18.2022 21:0:31.008
337, 1.78093, 0.163505, 86.8354, 0, -0.000976562, -0.000976562, -0.00390625, 0.301758, -9.71777, 1.18.2022 21:0:31.016
338, 1.78093, 0.163505, 86.8354, -0.000976562, 0, -0.000976562, 0.00195312, 0.310547, -9.76758, 1.18.2022 21:0:31.024
339, 1.78093, 0.163505, 86.8354, -0.000976562, -0.000976562, 0.000976562, -0.0839844, 0.313477, -9.78223, 1.18.2022 21:0:31.032
340, 1.78093, 0.163505, 86.8354, -0.000976562, -0.000976562, -0.000976562, 0, 0.295898, -9.76758, 1.18.2022 21:0:31.040
341, 1.78093, 0.163505, 86.8354, -0.00195312, 0, 0.000976562, -0.03125, 0.289062, -9.7627, 1.18.2022 21:0:31.048
342, 1.78116, 0.163419, 86.8351, -0.00195312, -0.000976562, -0.000976562, -0.0859375, 0.295898, -9.76367, 1.18.2022 21:0:31.056
343, 1.78116, 0.163419, 86.8351, -0.000976562, -0.000976562, -0.000976562, 0.0146484, 0.300781, -9.75195, 1.18.2022 21:0:31.064
344, 1.78116, 0.163419, 86.8351, -0.000976562, -0.000976562, -0.000976562, -0.0576172, 0.295898, -9.75293, 1.18.2022 21:0:31.072
345, 1.78116, 0.163419, 86.8351, 0, -0.000976562, -0.00195312, -0.0380859, 0.331055, -9.73535, 1.18.2022 21:0:31.080
346, 1.78116, 0.163419, 86.8351, -0.000976562, -0.000976562, -0.000976562, -0.0332031, 0.272461, -9.76074, 1.18.2022 21:0:31.088
347, 1.78116, 0.163419, 86.8351, -0.000976562, -0.000976562, -0.000976562, -0.0712891, 0.3125, -9.75488, 1.18.2022 21:0:31.096
348, 1.78116, 0.163419, 86.8351, 0, -0.000976562, -0.000976562, 0.0185547, 0.291016, -9.76172, 1.18.2022 21:0:31.104
349, 1.78116, 0.163419, 86.8351, -0.000976562, -0.000976562, -0.000976562, -0.00683594, 0.294922, -9.73438, 1.18.2022 21:0:31.112
350, 1.78116, 0.163419, 86.8351, -0.00195312, -0.000976562, -0.00195312, -0.0585938, 0.328125, -9.71387, 1.18.2022 21:0:31.120
351, 1.78093, 0.163352, 86.8252, -0.000976562, -0.000976562, -0.000976562, 0.0283203, 0.303711, -9.77051, 1.18.2022 21:0:31.128
352, 1.78093, 0.163352, 86.8252, -0.000976562, 0, -0.000976562, -0.0576172, 0.305664, -9.75684, 1.18.2022 21:0:31.136
353, 1.78093, 0.163352, 86.8252, 0.000976562, 0, -0.000976562, -0.0566406, 0.294922, -9.71484, 1.18.2022 21:0:31.144
354, 1.78093, 0.163352, 86.8252, 0.000976562, -0.000976562, -0.000976562, -0.00683594, 0.289062, -9.75586, 1.18.2022 21:0:31.152
355, 1.78093, 0.163352, 86.8252, -0.000976562, -0.000976562, -0.000976562, -0.0810547, 0.317383, -9.7373, 1.18.2022 21:0:31.160
356, 1.78093, 0.163352, 86.8252, 0.000976562, -0.000976562, -0.000976562, 0.00390625, 0.308594, -9.78613, 1.18.2022 21:0:31.168
357, 1.78116, 0.163266, 86.825, -0.000976562, 0, -0.000976562, -0.0166016, 0.294922, -9.7373, 1.18.2022 21:0:31.176
358, 1.78116, 0.163266, 86.825, -0.000976562, -0.000976562, -0.000976562, -0.0732422, 0.302734, -9.73828, 1.18.2022 21:0:31.184
359, 1.78093, 0.163199, 86.8151, -0.000976562, -0.000976562, -0.000976562, -0.0117188, 0.299805, -9.72461, 1.18.2022 21:0:31.192
360, 1.78093, 0.163199, 86.8151, -0.000976562, 0, -0.000976562, -0.0576172, 0.295898, -9.75, 1.18.2022 21:0:31.200
361, 1.78093, 0.163199, 86.8151, -0.000976562, -0.000976562, -0.000976562, -0.0566406, 0.30957, -9.7334, 1.18.2022 21:0:31.208
362, 1.78093, 0.163199, 86.8151, 0.000976562, -0.000976562, -0.000976562, 0.0126953, 0.285156, -9.71875, 1.18.2022 21:0:31.216
363, 1.78116, 0.163113, 86.8148, 0.000976562, -0.000976562, -0.000976562, -0.0644531, 0.304688, -9.74512, 1.18.2022 21:0:31.224
364, 1.78116, 0.163113, 86.8148, -0.000976562, -0.000976562, -0.000976562, -0.0361328, 0.305664, -9.75977, 1.18.2022 21:0:31.230
365, 1.78116, 0.163113, 86.8148, -0.000976562, -0.000976562, -0.000976562, -0.0380859, 0.319336, -9.75488, 1.18.2022 21:0:31.238
366, 1.78093, 0.163045, 86.8049, 0.000976562, -0.000976562, 0, -0.0849609, 0.323242, -9.71875, 1.18.2022 21:0:31.246
367, 1.78093, 0.163045, 86.8049, -0.000976562, -0.000976562, -0.00195312, -0.00195312, 0.286133, -9.75586, 1.18.2022 21:0:31.254
368, 1.78093, 0.163045, 86.8049, -0.000976562, -0.000976562, -0.00195312, -0.00976562, 0.292969, -9.74219, 1.18.2022 21:0:31.262
369, 1.78093, 0.163045, 86.8049, -0.000976562, -0.000976562, -0.000976562, -0.0664062, 0.323242, -9.71875, 1.18.2022 21:0:31.270
370, 1.78093, 0.163045, 86.8049, -0.000976562, -0.000976562, -0.000976562, 0.0429688, 0.290039, -9.73535, 1.18.2022 21:0:31.278
371, 1.78093, 0.163045, 86.8049, -0.000976562, -0.00195312, -0.000976562, -0.0712891, 0.310547, -9.76855, 1.18.2022 21:0:31.286
372, 1.78093, 0.163045, 86.8049, -0.000976562, 0, -0.000976562, -0.0205078, 0.303711, -9.68945, 1.18.2022 21:0:31.294
373, 1.78116, 0.16296, 86.8046, -0.000976562, -0.000976562, -0.000976562, 0.0175781, 0.290039, -9.73047, 1.18.2022 21:0:31.302
374, 1.78116, 0.16296, 86.8046, 0.000976562, -0.000976562, -0.000976562, -0.0527344, 0.307617, -9.75, 1.18.2022 21:0:31.310
375, 1.77636, 0.16804, 86.8046, 0.000976562, -0.000976562, -0.000976562, 0.0214844, 0.3125, -9.75098, 1.18.2022 21:0:31.318
376, 1.77636, 0.16804, 86.8046, -0.000976562, 0, -0.00195312, -0.0224609, 0.320312, -9.78809, 1.18.2022 21:0:31.326
377, 1.77636, 0.16804, 86.8046, -0.000976562, -0.000976562, -0.000976562, -0.0673828, 0.325195, -9.77734, 1.18.2022 21:0:31.334
378, 1.77636, 0.16804, 86.8046, -0.000976562, -0.000976562, -0.000976562, 0.0234375, 0.271484, -9.75, 1.18.2022 21:0:31.342
379, 1.77613, 0.167973, 86.7947, 0.000976562, -0.00195312, -0.000976562, -0.0527344, 0.298828, -9.7627, 1.18.2022 21:0:31.350
380, 1.77613, 0.167973, 86.7947, 0.000976562, 0, -0.000976562, -0.0205078, 0.277344, -9.71387, 1.18.2022 21:0:31.358
381, 1.77613, 0.167973, 86.7947, 0.000976562, -0.000976562, 0, -0.0117188, 0.289062, -9.76562, 1.18.2022 21:0:31.366
382, 1.77613, 0.167973, 86.7947, 0.000976562, 0, -0.000976562, -0.0761719, 0.330078, -9.76562, 1.18.2022 21:0:31.374
383, 1.77613, 0.167973, 86.7947, -0.000976562, 0, 0, -0.0263672, 0.302734, -9.75977, 1.18.2022 21:0:31.382
384, 1.77613, 0.167973, 86.7947, -0.000976562, 0, 0.000976562, -0.0146484, 0.301758, -9.78418, 1.18.2022 21:0:31.390
385, 1.77613, 0.167973, 86.7947, 0, 0, 0, -0.109375, 0.329102, -9.73242, 1.18.2022 21:0:31.398
386, 1.77613, 0.167973, 86.7947, -0.000976562, -0.000976562, 0, -0.00585938, 0.279297, -9.7002, 1.18.2022 21:0:31.406
387, 1.77636, 0.167888, 86.7945, 0, 0, 0, -0.0498047, 0.286133, -9.73633, 1.18.2022 21:0:31.414
388, 1.77636, 0.167888, 86.7945, 0, 0, 0, -0.0615234, 0.316406, -9.71484, 1.18.2022 21:0:31.422
389, 1.77636, 0.167888, 86.7945, -0.000976562, 0, 0, 0.0244141, 0.275391, -9.71484, 1.18.2022 21:0:31.430
390, 1.77636, 0.167888, 86.7945, 0, -0.000976562, -0.00195312, -0.0615234, 0.321289, -9.73047, 1.18.2022 21:0:31.438
391, 1.77636, 0.167888, 86.7945, -0.000976562, 0, 0.000976562, -0.0234375, 0.296875, -9.72461, 1.18.2022 21:0:31.446
392, 1.77613, 0.167821, 86.7846, -0.000976562, 0, 0.000976562, -0.00878906, 0.303711, -9.69434, 1.18.2022 21:0:31.454
393, 1.77613, 0.167821, 86.7846, -0.000976562, -0.000976562, 0, -0.0849609, 0.324219, -9.73047, 1.18.2022 21:0:31.462
394, 1.77613, 0.167821, 86.7846, 0, -0.000976562, 0, 0.00488281, 0.290039, -9.73242, 1.18.2022 21:0:31.470
395, 1.77613, 0.167821, 86.7846, -0.000976562, -0.000976562, 0, -0.0205078, 0.280273, -9.71387, 1.18.2022 21:0:31.478
396, 1.77613, 0.167821, 86.7846, -0.000976562, -0.000976562, 0, -0.0449219, 0.306641, -9.72949, 1.18.2022 21:0:31.486
397, 1.77636, 0.167735, 86.7843, 0, -0.000976562, 0, 0.0244141, 0.287109, -9.70703, 1.18.2022 21:0:31.494
398, 1.77636, 0.167735, 86.7843, -0.000976562, -0.000976562, 0, -0.0634766, 0.296875, -9.7168, 1.18.2022 21:0:31.502
399, 1.77636, 0.167735, 86.7843, -0.000976562, -0.00195312, -0.000976562, -0.0234375, 0.306641, -9.73438, 1.18.2022 21:0:31.510
400, 1.77613, 0.167668, 86.7744, 0, -0.000976562, 0.000976562, 0.0078125, 0.291992, -9.70215, 1.18.2022 21:0:31.518
401, 1.77613, 0.167668, 86.7744, 0, 0, 0, -0.0966797, 0.321289, -9.71582, 1.18.2022 21:0:31.526
402, 1.77613, 0.167668, 86.7744, -0.000976562, 0, 0, -0.0234375, 0.331055, -9.74512, 1.18.2022 21:0:31.534
403, 1.77636, 0.167582, 86.7741, 0, 0, 0, -0.0185547, 0.290039, -9.73438, 1.18.2022 21:0:31.542
404, 1.77636, 0.167582, 86.7741, 0, -0.000976562, 0, -0.0800781, 0.326172, -9.7207, 1.18.2022 21:0:31.550
405, 1.77636, 0.167582, 86.7741, -0.000976562, -0.000976562, 0, 0.0185547, 0.291016, -9.75879, 1.18.2022 21:0:31.558
406, 1.77613, 0.167515, 86.7643, -0.000976562, 0, 0, -0.0546875, 0.321289, -9.72363, 1.18.2022 21:0:31.566
407, 1.77613, 0.167515, 86.7643, -0.000976562, 0, 0, -0.046875, 0.318359, -9.70703, 1.18.2022 21:0:31.574
408, 1.77636, 0.167429, 86.764, -0.000976562, -0.000976562, 0, -0.0146484, 0.276367, -9.76074, 1.18.2022 21:0:31.582
409, 1.77636, 0.167429, 86.764, -0.000976562, -0.000976562, -0.00195312, -0.0634766, 0.313477, -9.69531, 1.18.2022 21:0:31.590
410, 1.77636, 0.167429, 86.764, 0, -0.000976562, -0.00195312, -0.0185547, 0.287109, -9.71582, 1.18.2022 21:0:31.598
411, 1.77636, 0.167429, 86.764, -0.000976562, -0.000976562, 0, -0.0410156, 0.28418, -9.76074, 1.18.2022 21:0:31.606
412, 1.77613, 0.167362, 86.7541, -0.000976562, -0.000976562, 0.000976562, -0.0537109, 0.347656, -9.71387, 1.18.2022 21:0:31.614
413, 1.77613, 0.167362, 86.7541, -0.000976562, -0.000976562, 0, 0.0214844, 0.294922, -9.73047, 1.18.2022 21:0:31.622
414, 1.77637, 0.167276, 86.7538, -0.000976562, 0, 0.000976562, -0.0517578, 0.276367, -9.73438, 1.18.2022 21:0:31.630
415, 1.77637, 0.167276, 86.7538, -0.000976562, -0.000976562, 0, -0.0498047, 0.307617, -9.74512, 1.18.2022 21:0:31.638
416, 1.77637, 0.167276, 86.7538, -0.000976562, -0.000976562, -0.000976562, 0.0126953, 0.285156, -9.71875, 1.18.2022 21:0:31.646
417, 1.77637, 0.167276, 86.7538, 0, 0, -0.000976562, -0.0996094, 0.288086, -9.7168, 1.18.2022 21:0:31.654
418, 1.77614, 0.167209, 86.7439, 0, 0, -0.000976562, -0.0380859, 0.302734, -9.73633, 1.18.2022 21:0:31.662
419, 1.77614, 0.167209, 86.7439, -0.000976562, 0, -0.000976562, 0.00878906, 0.298828, -9.7793, 1.18.2022 21:0:31.670
420, 1.77637, 0.167123, 86.7436, -0.000976562, -0.000976562, -0.000976562, -0.0693359, 0.328125, -9.78027, 1.18.2022 21:0:31.678
421, 1.77637, 0.167123, 86.7436, 0, 0, -0.00195312, 0.0185547, 0.293945, -9.76074, 1.18.2022 21:0:31.686
422, 1.77637, 0.167123, 86.7436, -0.000976562, -0.000976562, -0.000976562, -0.00195312, 0.30957, -9.72754, 1.18.2022 21:0:31.694
423, 1.77637, 0.167123, 86.7436, 0, 0, -0.00195312, -0.0224609, 0.295898, -9.69434, 1.18.2022 21:0:31.702
424, 1.77637, 0.167123, 86.7436, 0, 0, -0.00195312, 0.0263672, 0.302734, -9.74414, 1.18.2022 21:0:31.710
425, 1.77637, 0.167123, 86.7436, -0.000976562, 0, -0.000976562, -0.0644531, 0.321289, -9.74023, 1.18.2022 21:0:31.718
426, 1.77637, 0.167123, 86.7436, -0.000976562, -0.000976562, -0.000976562, -0.0283203, 0.311523, -9.71289, 1.18.2022 21:0:31.726
427, 1.77637, 0.167123, 86.7436, -0.000976562, -0.000976562, -0.000976562, -0.00683594, 0.28125, -9.73535, 1.18.2022 21:0:31.734
428, 1.77637, 0.167123, 86.7436, 0, -0.000976562, -0.000976562, -0.078125, 0.331055, -9.73926, 1.18.2022 21:0:31.742
429, 1.77637, 0.167123, 86.7436, -0.000976562, 0, -0.00195312, 0.00488281, 0.294922, -9.73047, 1.18.2022 21:0:31.750
430, 1.77637, 0.167123, 86.7436, -0.000976562, 0, -0.00195312, -0.0380859, 0.273438, -9.7373, 1.18.2022 21:0:31.758
431, 1.77637, 0.167123, 86.7436, -0.000976562, -0.000976562, -0.000976562, -0.0517578, 0.324219, -9.74512, 1.18.2022 21:0:31.766
432, 1.77637, 0.167123, 86.7436, -0.000976562, -0.000976562, -0.000976562, 0.0253906, 0.289062, -9.78711, 1.18.2022 21:0:31.774
433, 1.77637, 0.167123, 86.7436, -0.000976562, -0.000976562, -0.000976562, -0.0615234, 0.297852, -9.74316, 1.18.2022 21:0:31.782
434, 1.77637, 0.167123, 86.7436, -0.00195312, -0.000976562, -0.000976562, -0.0664062, 0.335938, -9.73535, 1.18.2022 21:0:31.790
435, 1.77637, 0.167123, 86.7436, 0, -0.000976562, -0.000976562, 0.00195312, 0.274414, -9.75684, 1.18.2022 21:0:31.798
436, 1.77637, 0.167123, 86.7436, -0.000976562, -0.000976562, -0.000976562, -0.0976562, 0.295898, -9.75, 1.18.2022 21:0:31.806
437, 1.77637, 0.167123, 86.7436, -0.000976562, -0.000976562, -0.000976562, 0.00195312, 0.302734, -9.76074, 1.18.2022 21:0:31.814
438, 1.77637, 0.167123, 86.7436, -0.000976562, -0.000976562, -0.000976562, -0.0400391, 0.30957, -9.71973, 1.18.2022 21:0:31.822
439, 1.77637, 0.167123, 86.7436, -0.000976562, -0.000976562, -0.000976562, -0.0595703, 0.311523, -9.73145, 1.18.2022 21:0:31.830
440, 1.77637, 0.167123, 86.7436, 0, 0, -0.000976562, 0.0224609, 0.3125, -9.85059, 1.18.2022 21:0:31.838
441, 1.77637, 0.167123, 86.7436, 0, 0, -0.000976562, -0.00488281, 0.314453, -9.74805, 1.18.2022 21:0:31.846
442, 1.77637, 0.167123, 86.7436, -0.000976562, -0.000976562, -0.000976562, -0.0527344, 0.302734, -9.75977, 1.18.2022 21:0:31.854
443, 1.77637, 0.167123, 86.7436, 0, -0.000976562, -0.000976562, 0.0126953, 0.296875, -9.7207, 1.18.2022 21:0:31.862
444, 1.77637, 0.167123, 86.7436, 0, -0.000976562, -0.000976562, -0.0898438, 0.328125, -9.70898, 1.18.2022 21:0:31.870
445, 1.77637, 0.167123, 86.7436, -0.000976562, -0.00195312, -0.000976562, -0.00683594, 0.288086, -9.72266, 1.18.2022 21:0:31.878
446, 1.77637, 0.167123, 86.7436, -0.00195312, 0, -0.000976562, 0.0166016, 0.28125, -9.7666, 1.18.2022 21:0:31.886
447, 1.77637, 0.167123, 86.7436, -0.00195312, 0, 0, -0.0732422, 0.321289, -9.70898, 1.18.2022 21:0:31.894
448, 1.77637, 0.167123, 86.7436, 0, -0.000976562, 0, 0.0126953, 0.28418, -9.70215, 1.18.2022 21:0:31.902
449, 1.77637, 0.167123, 86.7436, 0, 0, -0.000976562, -0.0146484, 0.291016, -9.75098, 1.18.2022 21:0:31.910
450, 1.77637, 0.167123, 86.7436, -0.000976562, 0, 0, -0.0830078, 0.290039, -9.70801, 1.18.2022 21:0:31.918
451, 1.78117, 0.16204, 86.7436, -0.000976562, 0, 0.000976562, 0, 0.288086, -9.73242, 1.18.2022 21:0:31.926
452, 1.77637, 0.167123, 86.7436, 0, -0.000976562, 0, -0.0615234, 0.311523, -9.71973, 1.18.2022 21:0:31.934
453, 1.77637, 0.167123, 86.7436, 0, -0.000976562, 0, -0.0253906, 0.304688, -9.73438, 1.18.2022 21:0:31.942
454, 1.77637, 0.167123, 86.7436, 0, 0, 0, 0.0078125, 0.256836, -9.73145, 1.18.2022 21:0:31.950
455, 1.77637, 0.167123, 86.7436, 0, 0, 0, -0.0947266, 0.337891, -9.70898, 1.18.2022 21:0:31.958
456, 1.77637, 0.167123, 86.7436, -0.000976562, -0.000976562, 0, 0.0166016, 0.298828, -9.78418, 1.18.2022 21:0:31.966
457, 1.77637, 0.167123, 86.7436, -0.000976562, -0.000976562, 0, -0.0185547, 0.283203, -9.72754, 1.18.2022 21:0:31.974
458, 1.77637, 0.167123, 86.7436, -0.000976562, 0, 0, -0.078125, 0.282227, -9.69824, 1.18.2022 21:0:31.982
459, 1.77614, 0.167209, 86.7439, -0.000976562, 0, 0, 0.0244141, 0.25, -9.73633, 1.18.2022 21:0:31.990
460, 1.77614, 0.167209, 86.7439, -0.000976562, -0.000976562, 0, -0.0576172, 0.274414, -9.76562, 1.18.2022 21:0:31.998
461, 1.77614, 0.167209, 86.7439, -0.000976562, -0.000976562, -0.000976562, -0.0615234, 0.313477, -9.71875, 1.18.2022 21:0:32.006
462, 1.77614, 0.167209, 86.7439, -0.000976562, 0, 0, 0.00195312, 0.305664, -9.77441, 1.18.2022 21:0:32.014
463, 1.78094, 0.162126, 86.7439, -0.000976562, 0, 0, -0.0644531, 0.293945, -9.76465, 1.18.2022 21:0:32.022
464, 1.78117, 0.162193, 86.7538, -0.000976562, 0, -0.000976562, -0.0146484, 0.307617, -9.75977, 1.18.2022 21:0:32.030
465, 1.78117, 0.162193, 86.7538, -0.000976562, -0.000976562, 0, -0.0146484, 0.282227, -9.78223, 1.18.2022 21:0:32.038
466, 1.78117, 0.162193, 86.7538, 0, -0.000976562, 0, -0.0664062, 0.321289, -9.73535, 1.18.2022 21:0:32.046
467, 1.78117, 0.162193, 86.7538, 0, -0.000976562, 0, 0.0214844, 0.304688, -9.75098, 1.18.2022 21:0:32.054
468, 1.77637, 0.167276, 86.7538, -0.000976562, -0.000976562, -0.000976562, -0.0595703, 0.304688, -9.74512, 1.18.2022 21:0:32.062
469, 1.77637, 0.167276, 86.7538, -0.000976562, -0.000976562, 0, -0.0546875, 0.322266, -9.75684, 1.18.2022 21:0:32.070
470, 1.77613, 0.167362, 86.7541, -0.000976562, -0.000976562, 0, 0.03125, 0.285156, -9.74023, 1.18.2022 21:0:32.078
471, 1.77613, 0.167362, 86.7541, -0.00195312, 0, 0, -0.0761719, 0.308594, -9.77539, 1.18.2022 21:0:32.086
472, 1.78094, 0.162279, 86.7541, 0, -0.000976562, 0, -0.0244141, 0.291992, -9.78613, 1.18.2022 21:0:32.094
473, 1.77636, 0.167429, 86.764, 0, 0, 0, -0.0361328, 0.276367, -9.74902, 1.18.2022 21:0:32.102
474, 1.77636, 0.167429, 86.764, -0.000976562, -0.000976562, 0, -0.0849609, 0.306641, -9.71875, 1.18.2022 21:0:32.110
475, 1.77636, 0.167429, 86.764, 0, -0.000976562, 0, 0.00976562, 0.300781, -9.74902, 1.18.2022 21:0:32.118
476, 1.77636, 0.167429, 86.764, -0.000976562, -0.000976562, 0, -0.0332031, 0.283203, -9.73926, 1.18.2022 21:0:32.126
477, 1.77636, 0.167429, 86.764, -0.000976562, -0.000976562, 0, -0.0673828, 0.325195, -9.77539, 1.18.2022 21:0:32.134
478, 1.77636, 0.167429, 86.764, 0, 0, -0.000976562, 0.0361328, 0.268555, -9.74316, 1.18.2022 21:0:32.142
479, 1.77636, 0.167429, 86.764, -0.000976562, 0, 0, -0.0449219, 0.293945, -9.75781, 1.18.2022 21:0:32.150
480, 1.77613, 0.167515, 86.7643, -0.000976562, 0, 0, -0.0400391, 0.271484, -9.74414, 1.18.2022 21:0:32.158
481, 1.77613, 0.167515, 86.7643, 0, -0.000976562, 0, 0.00488281, 0.27832, -9.74023, 1.18.2022 21:0:32.166
482, 1.77613, 0.167515, 86.7643, 0, -0.000976562, 0, -0.046875, 0.323242, -9.71484, 1.18.2022 21:0:32.174
483, 1.77613, 0.167515, 86.7643, 0, -0.000976562, 0, 0.0126953, 0.3125, -9.68945, 1.18.2022 21:0:32.182
484, 1.77613, 0.167515, 86.7643, -0.00195312, -0.000976562, 0, -0.0234375, 0.268555, -9.72852, 1.18.2022 21:0:32.188
485, 1.77613, 0.167515, 86.7643, -0.000976562, -0.000976562, 0, -0.0478516, 0.295898, -9.76953, 1.18.2022 21:0:32.198
486, 1.77613, 0.167515, 86.7643, 0, 0, 0, 0.0244141, 0.27832, -9.74023, 1.18.2022 21:0:32.204
487, 1.77636, 0.167582, 86.7741, 0, 0, -0.000976562, -0.0576172, 0.298828, -9.7666, 1.18.2022 21:0:32.212
488, 1.77636, 0.167582, 86.7741, -0.000976562, 0, 0, -0.0185547, 0.348633, -9.74707, 1.18.2022 21:0:32.220
489, 1.77636, 0.167582, 86.7741, -0.00195312, 0, 0, -0.00878906, 0.290039, -9.71875, 1.18.2022 21:0:32.228
490, 1.77636, 0.167582, 86.7741, -0.00195312, 0.000976562, 0, -0.0771484, 0.307617, -9.67383, 1.18.2022 21:0:32.236
491, 1.78117, 0.1625, 86.7741, -0.000976562, 0, 0, -0.0117188, 0.299805, -9.72949, 1.18.2022 21:0:32.244
492, 1.78117, 0.1625, 86.7741, -0.000976562, 0, 0, 0.00976562, 0.27832, -9.72168, 1.18.2022 21:0:32.252
493, 1.78117, 0.1625, 86.7741, -0.000976562, 0, 0, -0.0761719, 0.31543, -9.75391, 1.18.2022 21:0:32.260
494, 1.78093, 0.162586, 86.7744, -0.000976562, 0, 0, 0.0390625, 0.294922, -9.7168, 1.18.2022 21:0:32.268
495, 1.78093, 0.162586, 86.7744, -0.00195312, -0.000976562, 0.000976562, -0.0507812, 0.287109, -9.77246, 1.18.2022 21:0:32.276
496, 1.78093, 0.162586, 86.7744, -0.000976562, -0.000976562, 0, -0.0263672, 0.305664, -9.75977, 1.18.2022 21:0:32.284
497, 1.78093, 0.162586, 86.7744, -0.000976562, -0.000976562, 0.000976562, 0.0234375, 0.300781, -9.75391, 1.18.2022 21:0:32.292
498, 1.78093, 0.162586, 86.7744, -0.000976562, -0.000976562, 0, -0.0830078, 0.324219, -9.74023, 1.18.2022 21:0:32.300
499, 1.78093, 0.162586, 86.7744, 0, -0.000976562, 0.000976562, -0.0166016, 0.327148, -9.75293, 1.18.2022 21:0:32.308
500, 1.78093, 0.162586, 86.7744, -0.000976562, 0, 0, 0.0263672, 0.292969, -9.7373, 1.18.2022 21:0:32.316
501, 1.78093, 0.162586, 86.7744, -0.000976562, -0.000976562, 0, -0.0859375, 0.324219, -9.75586, 1.18.2022 21:0:32.324
502, 1.78093, 0.162586, 86.7744, -0.00195312, 0, 0, 0.0263672, 0.299805, -9.72363, 1.18.2022 21:0:32.332
503, 1.78093, 0.162586, 86.7744, -0.000976562, -0.000976562, 0, 0.00488281, 0.316406, -9.73926, 1.18.2022 21:0:32.340
504, 1.78093, 0.162586, 86.7744, -0.000976562, 0, 0, -0.0419922, 0.292969, -9.72754, 1.18.2022 21:0:32.348
505, 1.78093, 0.162586, 86.7744, -0.000976562, 0, 0, 0.00292969, 0.275391, -9.70898, 1.18.2022 21:0:32.356
506, 1.78093, 0.162586, 86.7744, -0.000976562, 0, 0, -0.0683594, 0.30957, -9.73828, 1.18.2022 21:0:32.364
507, 1.78093, 0.162586, 86.7744, -0.000976562, -0.000976562, -0.000976562, -0.0449219, 0.304688, -9.71973, 1.18.2022 21:0:32.372
508, 1.78116, 0.162653, 86.7843, -0.000976562, -0.000976562, -0.000976562, -0.0214844, 0.283203, -9.73047, 1.18.2022 21:0:32.380
509, 1.78116, 0.162653, 86.7843, -0.000976562, 0, 0, -0.0732422, 0.306641, -9.71875, 1.18.2022 21:0:32.388
510, 1.78116, 0.162653, 86.7843, 0.000976562, 0, 0.000976562, 0.000976562, 0.289062, -9.6875, 1.18.2022 21:0:32.396
511, 1.78116, 0.162653, 86.7843, -0.000976562, -0.000976562, -0.000976562, 0.000976562, 0.291992, -9.71875, 1.18.2022 21:0:32.404
512, 1.78116, 0.162653, 86.7843, 0, 0, -0.000976562, -0.0732422, 0.331055, -9.71582, 1.18.2022 21:0:32.412
513, 1.78093, 0.162586, 86.7744, -0.000976562, 0, 0.000976562, 0.0449219, 0.292969, -9.75488, 1.18.2022 21:0:32.420
514, 1.78093, 0.162586, 86.7744, 0.000976562, 0, 0.000976562, -0.0400391, 0.311523, -9.72656, 1.18.2022 21:0:32.428
515, 1.78093, 0.162586, 86.7744, -0.000976562, 0, -0.000976562, -0.0400391, 0.286133, -9.74902, 1.18.2022 21:0:32.436
516, 1.78093, 0.162586, 86.7744, -0.000976562, -0.000976562, -0.000976562, 0, 0.299805, -9.73926, 1.18.2022 21:0:32.444
517, 1.78093, 0.162586, 86.7744, -0.000976562, -0.000976562, -0.000976562, -0.0644531, 0.307617, -9.75, 1.18.2022 21:0:32.452
518, 1.78093, 0.162586, 86.7744, -0.000976562, -0.000976562, -0.00195312, -0.0400391, 0.314453, -9.74512, 1.18.2022 21:0:32.460
519, 1.78093, 0.162586, 86.7744, -0.000976562, -0.000976562, -0.000976562, -0.0117188, 0.28125, -9.73535, 1.18.2022 21:0:32.468
520, 1.78093, 0.162586, 86.7744, -0.000976562, -0.00195312, -0.000976562, -0.0683594, 0.314453, -9.72168, 1.18.2022 21:0:32.476
521, 1.78093, 0.162586, 86.7744, 0, -0.000976562, -0.00195312, 0.0361328, 0.30957, -9.72559, 1.18.2022 21:0:32.484
522, 1.78093, 0.162586, 86.7744, -0.000976562, -0.000976562, -0.000976562, -0.0478516, 0.317383, -9.76172, 1.18.2022 21:0:32.492
523, 1.78093, 0.162586, 86.7744, -0.000976562, -0.000976562, -0.000976562, -0.0654297, 0.298828, -9.69336, 1.18.2022 21:0:32.500
524, 1.78093, 0.162586, 86.7744, -0.000976562, -0.000976562, -0.000976562, 0.0146484, 0.288086, -9.75684, 1.18.2022 21:0:32.508
525, 1.78093, 0.162586, 86.7744, -0.000976562, -0.000976562, -0.000976562, -0.0585938, 0.328125, -9.72559, 1.18.2022 21:0:32.516
526, 1.78093, 0.162586, 86.7744, -0.000976562, -0.000976562, -0.000976562, -0.0332031, 0.296875, -9.71973, 1.18.2022 21:0:32.524
527, 1.78093, 0.162586, 86.7744, -0.000976562, 0, 0.000976562, -0.0214844, 0.27832, -9.74414, 1.18.2022 21:0:32.532
528, 1.78093, 0.162586, 86.7744, -0.000976562, 0, -0.000976562, -0.0800781, 0.34082, -9.72266, 1.18.2022 21:0:32.540
529, 1.78093, 0.162586, 86.7744, -0.000976562, 0, 0.000976562, 0.00976562, 0.306641, -9.73242, 1.18.2022 21:0:32.548
530, 1.78093, 0.162586, 86.7744, -0.000976562, 0, -0.000976562, -0.0478516, 0.28418, -9.7627, 1.18.2022 21:0:32.556
531, 1.78093, 0.162586, 86.7744, -0.000976562, -0.000976562, -0.000976562, -0.0625, 0.336914, -9.76074, 1.18.2022 21:0:32.564
532, 1.78093, 0.162586, 86.7744, -0.000976562, -0.000976562, -0.000976562, 0.0273438, 0.308594, -9.70215, 1.18.2022 21:0:32.572
533, 1.78116, 0.162653, 86.7843, -0.000976562, -0.000976562, -0.000976562, -0.0566406, 0.304688, -9.72656, 1.18.2022 21:0:32.580
534, 1.78116, 0.162653, 86.7843, 0, -0.000976562, -0.000976562, -0.0273438, 0.316406, -9.70996, 1.18.2022 21:0:32.588
535, 1.78116, 0.162653, 86.7843, -0.00195312, -0.000976562, -0.000976562, 0.00683594, 0.293945, -9.77539, 1.18.2022 21:0:32.596
536, 1.78116, 0.162653, 86.7843, 0, 0, -0.000976562, -0.0859375, 0.297852, -9.75, 1.18.2022 21:0:32.604
537, 1.78116, 0.162653, 86.7843, -0.000976562, -0.000976562, -0.000976562, 0.00976562, 0.307617, -9.76562, 1.18.2022 21:0:32.612
538, 1.78116, 0.162653, 86.7843, -0.000976562, -0.000976562, -0.000976562, -0.0195312, 0.291016, -9.77051, 1.18.2022 21:0:32.620
539, 1.78116, 0.162653, 86.7843, -0.000976562, -0.000976562, -0.000976562, -0.0546875, 0.300781, -9.75, 1.18.2022 21:0:32.628
540, 1.78116, 0.162653, 86.7843, 0, 0, -0.000976562, 0.00683594, 0.272461, -9.76367, 1.18.2022 21:0:32.636
541, 1.77636, 0.167735, 86.7843, 0.000976562, 0, 0.000976562, -0.0498047, 0.280273, -9.72754, 1.18.2022 21:0:32.644
542, 1.77636, 0.167735, 86.7843, -0.000976562, 0, -0.000976562, -0.0595703, 0.300781, -9.7666, 1.18.2022 21:0:32.652
543, 1.78116, 0.162653, 86.7843, -0.000976562, 0, -0.000976562, 0.0166016, 0.288086, -9.7373, 1.18.2022 21:0:32.660
544, 1.78116, 0.162653, 86.7843, -0.000976562, 0, -0.000976562, -0.0683594, 0.316406, -9.72363, 1.18.2022 21:0:32.668
545, 1.78116, 0.162653, 86.7843, 0, -0.000976562, -0.00195312, -0.03125, 0.28125, -9.74219, 1.18.2022 21:0:32.676
546, 1.78116, 0.162653, 86.7843, -0.000976562, -0.000976562, -0.000976562, -0.0263672, 0.271484, -9.73535, 1.18.2022 21:0:32.684
547, 1.78116, 0.162653, 86.7843, 0, 0, -0.000976562, -0.0644531, 0.324219, -9.7373, 1.18.2022 21:0:32.692
548, 1.78116, 0.162653, 86.7843, -0.00195312, -0.000976562, -0.000976562, -0.0117188, 0.319336, -9.74121, 1.18.2022 21:0:32.700
549, 1.78116, 0.162653, 86.7843, -0.00195312, -0.000976562, -0.000976562, -0.0361328, 0.293945, -9.75781, 1.18.2022 21:0:32.708
550, 1.78116, 0.162653, 86.7843, -0.000976562, 0, 0.000976562, -0.0449219, 0.317383, -9.74512, 1.18.2022 21:0:32.716
551, 1.78093, 0.162586, 86.7744, 0, 0, -0.000976562, 0.0263672, 0.276367, -9.74805, 1.18.2022 21:0:32.724
552, 1.78093, 0.162586, 86.7744, -0.000976562, 0, -0.000976562, -0.0712891, 0.305664, -9.74805, 1.18.2022 21:0:32.732
553, 1.78093, 0.162586, 86.7744, -0.00195312, 0, -0.00195312, -0.0185547, 0.285156, -9.73047, 1.18.2022 21:0:32.740
554, 1.78093, 0.162586, 86.7744, -0.000976562, -0.000976562, -0.00195312, -0.0166016, 0.300781, -9.77734, 1.18.2022 21:0:32.748
555, 1.78093, 0.162586, 86.7744, -0.000976562, -0.000976562, -0.00195312, -0.0664062, 0.319336, -9.75391, 1.18.2022 21:0:32.756
556, 1.78093, 0.162586, 86.7744, -0.000976562, -0.00195312, -0.00195312, 0.00195312, 0.295898, -9.76367, 1.18.2022 21:0:32.764
557, 1.78093, 0.162586, 86.7744, -0.000976562, -0.000976562, -0.000976562, -0.00390625, 0.294922, -9.71582, 1.18.2022 21:0:32.772
558, 1.78093, 0.162586, 86.7744, -0.000976562, -0.000976562, -0.000976562, -0.0400391, 0.331055, -9.73828, 1.18.2022 21:0:32.780
559, 1.78093, 0.162586, 86.7744, 0, -0.000976562, -0.00195312, 0.0185547, 0.291992, -9.79883, 1.18.2022 21:0:32.788
560, 1.78093, 0.162586, 86.7744, 0, -0.000976562, -0.000976562, -0.114258, 0.311523, -9.72754, 1.18.2022 21:0:32.796
561, 1.78093, 0.162586, 86.7744, 0, 0, -0.00195312, -0.0302734, 0.304688, -9.73438, 1.18.2022 21:0:32.804
562, 1.78093, 0.162586, 86.7744, -0.000976562, -0.000976562, -0.000976562, -0.00683594, 0.296875, -9.72754, 1.18.2022 21:0:32.812
563, 1.77613, 0.167668, 86.7744, -0.000976562, -0.000976562, 0, -0.0810547, 0.329102, -9.73926, 1.18.2022 21:0:32.820
564, 1.77613, 0.167668, 86.7744, -0.000976562, -0.000976562, -0.000976562, -0.0185547, 0.304688, -9.74121, 1.18.2022 21:0:32.828
565, 1.77613, 0.167668, 86.7744, -0.000976562, 0, -0.000976562, -0.0185547, 0.314453, -9.72949, 1.18.2022 21:0:32.836
566, 1.78093, 0.162586, 86.7744, -0.000976562, 0, 0.000976562, -0.0458984, 0.330078, -9.77051, 1.18.2022 21:0:32.844
567, 1.78093, 0.162586, 86.7744, 0, 0, -0.00195312, 0.0078125, 0.290039, -9.72363, 1.18.2022 21:0:32.852
568, 1.78093, 0.162586, 86.7744, 0, 0, -0.00195312, -0.0537109, 0.301758, -9.70508, 1.18.2022 21:0:32.860
569, 1.78093, 0.162586, 86.7744, -0.000976562, -0.000976562, -0.000976562, -0.0498047, 0.302734, -9.74121, 1.18.2022 21:0:32.868
570, 1.78093, 0.162586, 86.7744, -0.000976562, -0.000976562, -0.00195312, -0.0126953, 0.299805, -9.80078, 1.18.2022 21:0:32.876
571, 1.78093, 0.162586, 86.7744, -0.000976562, -0.000976562, -0.000976562, -0.0830078, 0.329102, -9.73047, 1.18.2022 21:0:32.884
572, 1.77613, 0.167668, 86.7744, -0.000976562, -0.000976562, -0.000976562, -0.0136719, 0.297852, -9.7373, 1.18.2022 21:0:32.892
573, 1.77636, 0.167735, 86.7843, -0.000976562, -0.000976562, -0.000976562, -0.0195312, 0.305664, -9.76758, 1.18.2022 21:0:32.900
574, 1.78116, 0.162653, 86.7843, -0.000976562, 0, -0.000976562, -0.0585938, 0.304688, -9.71484, 1.18.2022 21:0:32.908
575, 1.78116, 0.162653, 86.7843, -0.000976562, -0.000976562, 0, 0.0166016, 0.294922, -9.7373, 1.18.2022 21:0:32.916
576, 1.77636, 0.167735, 86.7843, 0, -0.000976562, -0.000976562, -0.0693359, 0.297852, -9.73828, 1.18.2022 21:0:32.924
577, 1.77636, 0.167735, 86.7843, -0.000976562, -0.00195312, 0, -0.0517578, 0.314453, -9.72852, 1.18.2022 21:0:32.932
578, 1.77636, 0.167735, 86.7843, -0.000976562, -0.000976562, 0, 0.0214844, 0.28418, -9.76367, 1.18.2022 21:0:32.940
579, 1.77636, 0.167735, 86.7843, 0, 0, 0.000976562, -0.0888672, 0.293945, -9.77637, 1.18.2022 21:0:32.948
580, 1.77636, 0.167735, 86.7843, 0, -0.000976562, 0, -0.0380859, 0.28125, -9.75391, 1.18.2022 21:0:32.956
581, 1.77636, 0.167735, 86.7843, -0.000976562, -0.000976562, 0, -0.0332031, 0.298828, -9.77246, 1.18.2022 21:0:32.964
582, 1.77636, 0.167735, 86.7843, -0.000976562, -0.000976562, 0, -0.0634766, 0.326172, -9.72559, 1.18.2022 21:0:32.972
583, 1.77636, 0.167735, 86.7843, -0.000976562, -0.000976562, 0, 0.0146484, 0.317383, -9.75586, 1.18.2022 21:0:32.980
584, 1.77636, 0.167735, 86.7843, -0.00195312, -0.000976562, 0.000976562, -0.0351562, 0.285156, -9.72949, 1.18.2022 21:0:32.988
585, 1.77636, 0.167735, 86.7843, -0.000976562, -0.000976562, 0, -0.0849609, 0.294922, -9.72363, 1.18.2022 21:0:32.996
586, 1.77636, 0.167735, 86.7843, -0.000976562, 0, 0, 0.00488281, 0.272461, -9.77051, 1.18.2022 21:0:33.004
587, 1.77636, 0.167735, 86.7843, -0.000976562, -0.000976562, 0.000976562, -0.0400391, 0.292969, -9.72949, 1.18.2022 21:0:33.012
588, 1.77636, 0.167735, 86.7843, -0.000976562, -0.000976562, 0, -0.0205078, 0.313477, -9.71973, 1.18.2022 21:0:33.020
589, 1.77636, 0.167735, 86.7843, -0.000976562, -0.000976562, 0.000976562, -0.0195312, 0.274414, -9.77734, 1.18.2022 21:0:33.028
590, 1.77636, 0.167735, 86.7843, -0.000976562, -0.000976562, 0, -0.0859375, 0.317383, -9.74707, 1.18.2022 21:0:33.036
591, 1.77636, 0.167735, 86.7843, -0.000976562, -0.000976562, 0, 0.0136719, 0.308594, -9.80273, 1.18.2022 21:0:33.044
592, 1.77636, 0.167735, 86.7843, 0, 0, -0.000976562, 0.00390625, 0.320312, -9.78125, 1.18.2022 21:0:33.052
593, 1.77636, 0.167735, 86.7843, 0, 0, 0, -0.0478516, 0.297852, -9.75293, 1.18.2022 21:0:33.060
594, 1.77636, 0.167735, 86.7843, -0.000976562, 0, 0, 0.0332031, 0.267578, -9.76172, 1.18.2022 21:0:33.068
595, 1.77636, 0.167735, 86.7843, -0.000976562, 0, 0, -0.0419922, 0.285156, -9.7207, 1.18.2022 21:0:33.076
596, 1.77636, 0.167735, 86.7843, -0.000976562, 0, 0, -0.0585938, 0.333984, -9.68359, 1.18.2022 21:0:33.084
597, 1.77636, 0.167735, 86.7843, -0.00195312, 0, -0.000976562, -0.00488281, 0.288086, -9.73535, 1.18.2022 21:0:33.092
598, 1.77636, 0.167735, 86.7843, -0.00195312, -0.000976562, -0.000976562, -0.0830078, 0.292969, -9.73633, 1.18.2022 21:0:33.100
599, 1.77636, 0.167735, 86.7843, -0.000976562, 0, 0, -0.00976562, 0.310547, -9.75781, 1.18.2022 21:0:33.108
600, 1.77636, 0.167735, 86.7843, -0.000976562, -0.000976562, 0.000976562, -0.0117188, 0.260742, -9.7168, 1.18.2022 21:0:33.116
601, 1.77636, 0.167735, 86.7843, -0.000976562, -0.000976562, 0, -0.0683594, 0.308594, -9.70996, 1.18.2022 21:0:33.124
602, 1.77636, 0.167735, 86.7843, 0, -0.000976562, 0, 0.0283203, 0.288086, -9.75, 1.18.2022 21:0:33.132
603, 1.77636, 0.167735, 86.7843, -0.000976562, -0.000976562, 0.000976562, -0.0458984, 0.303711, -9.78125, 1.18.2022 21:0:33.140
604, 1.77636, 0.167735, 86.7843, -0.000976562, -0.000976562, 0, -0.0664062, 0.333008, -9.71582, 1.18.2022 21:0:33.148
605, 1.77636, 0.167735, 86.7843, 0, -0.000976562, -0.000976562, 0.0195312, 0.27832, -9.7334, 1.18.2022 21:0:33.156
606, 1.77636, 0.167735, 86.7843, -0.000976562, -0.000976562, 0, -0.0673828, 0.291016, -9.7627, 1.18.2022 21:0:33.164
607, 1.77636, 0.167735, 86.7843, -0.000976562, -0.000976562, -0.000976562, -0.0146484, 0.31543, -9.7793, 1.18.2022 21:0:33.172
608, 1.77636, 0.167735, 86.7843, -0.000976562, -0.000976562, -0.000976562, -0.00195312, 0.291992, -9.72559, 1.18.2022 21:0:33.178
609, 1.77613, 0.167821, 86.7846, 0, -0.000976562, -0.000976562, -0.0654297, 0.301758, -9.7002, 1.18.2022 21:0:33.186
610, 1.77613, 0.167821, 86.7846, -0.000976562, -0.000976562, -0.000976562, 0.0214844, 0.286133, -9.75684, 1.18.2022 21:0:33.194
611, 1.77613, 0.167821, 86.7846, -0.000976562, -0.000976562, 0.000976562, -0.0195312, 0.28418, -9.75391, 1.18.2022 21:0:33.202
612, 1.77613, 0.167821, 86.7846, -0.000976562, -0.000976562, -0.000976562, -0.0400391, 0.316406, -9.72852, 1.18.2022 21:0:33.210
613, 1.77613, 0.167821, 86.7846, -0.000976562, -0.000976562, -0.000976562, 0.0332031, 0.290039, -9.74023, 1.18.2022 21:0:33.218
614, 1.77613, 0.167821, 86.7846, -0.000976562, -0.000976562, -0.000976562, -0.0683594, 0.316406, -9.73535, 1.18.2022 21:0:33.226
615, 1.77636, 0.167888, 86.7945, 0, -0.000976562, -0.000976562, -0.0136719, 0.294922, -9.74219, 1.18.2022 21:0:33.234
616, 1.77636, 0.167888, 86.7945, -0.000976562, -0.00195312, -0.000976562, 0.0078125, 0.307617, -9.74414, 1.18.2022 21:0:33.242
617, 1.77636, 0.167888, 86.7945, -0.000976562, -0.000976562, -0.000976562, -0.0898438, 0.321289, -9.71387, 1.18.2022 21:0:33.250
618, 1.77636, 0.167888, 86.7945, -0.000976562, 0, -0.000976562, 0.00683594, 0.279297, -9.77832, 1.18.2022 21:0:33.258
619, 1.77636, 0.167888, 86.7945, 0, -0.000976562, -0.000976562, -0.0351562, 0.273438, -9.73242, 1.18.2022 21:0:33.266
620, 1.77636, 0.167888, 86.7945, -0.000976562, -0.000976562, 0.000976562, -0.0664062, 0.329102, -9.74023, 1.18.2022 21:0:33.274
621, 1.77636, 0.167888, 86.7945, -0.000976562, -0.00195312, 0.000976562, 0.0234375, 0.271484, -9.74805, 1.18.2022 21:0:33.282
622, 1.77636, 0.167888, 86.7945, -0.000976562, 0, -0.000976562, -0.0390625, 0.289062, -9.78418, 1.18.2022 21:0:33.290
623, 1.77636, 0.167888, 86.7945, -0.000976562, 0, 0.000976562, -0.0136719, 0.314453, -9.73145, 1.18.2022 21:0:33.298
624, 1.77636, 0.167888, 86.7945, -0.000976562, -0.000976562, -0.000976562, 0.00976562, 0.308594, -9.7207, 1.18.2022 21:0:33.306
625, 1.77636, 0.167888, 86.7945, 0, -0.000976562, -0.000976562, -0.0927734, 0.317383, -9.75684, 1.18.2022 21:0:33.314
626, 1.77636, 0.167888, 86.7945, -0.000976562, -0.00195312, -0.000976562, -0.00683594, 0.291016, -9.75098, 1.18.2022 21:0:33.322
627, 1.77636, 0.167888, 86.7945, -0.000976562, -0.000976562, -0.00195312, -0.0185547, 0.3125, -9.74805, 1.18.2022 21:0:33.330
628, 1.77613, 0.167973, 86.7947, -0.000976562, -0.000976562, -0.000976562, -0.0761719, 0.362305, -9.74121, 1.18.2022 21:0:33.338
629, 1.77613, 0.167973, 86.7947, -0.000976562, -0.000976562, -0.00195312, 0.0283203, 0.304688, -9.74902, 1.18.2022 21:0:33.346
630, 1.77613, 0.167973, 86.7947, -0.000976562, -0.000976562, -0.000976562, -0.0419922, 0.304688, -9.72949, 1.18.2022 21:0:33.354
631, 1.77613, 0.167973, 86.7947, -0.000976562, -0.000976562, -0.000976562, -0.0449219, 0.30957, -9.75, 1.18.2022 21:0:33.362
632, 1.77613, 0.167973, 86.7947, -0.000976562, -0.000976562, -0.000976562, 0.0078125, 0.304688, -9.72559, 1.18.2022 21:0:33.370
633, 1.77613, 0.167973, 86.7947, 0, -0.000976562, -0.000976562, -0.0957031, 0.303711, -9.76367, 1.18.2022 21:0:33.378
634, 1.77613, 0.167973, 86.7947, -0.000976562, 0, -0.00195312, -0.0244141, 0.310547, -9.76953, 1.18.2022 21:0:33.386
635, 1.77613, 0.167973, 86.7947, -0.000976562, 0, -0.000976562, -0.0117188, 0.306641, -9.72461, 1.18.2022 21:0:33.394
636, 1.77613, 0.167973, 86.7947, -0.000976562, -0.000976562, -0.000976562, -0.0683594, 0.304688, -9.72168, 1.18.2022 21:0:33.402
637, 1.77613, 0.167973, 86.7947, -0.000976562, 0, 0.000976562, 0.0078125, 0.283203, -9.7373, 1.18.2022 21:0:33.410
638, 1.77613, 0.167973, 86.7947, -0.000976562, 0, -0.000976562, -0.0410156, 0.295898, -9.77441, 1.18.2022 21:0:33.418
639, 1.77613, 0.167973, 86.7947, -0.000976562, 0, -0.000976562, -0.0683594, 0.319336, -9.73828, 1.18.2022 21:0:33.426
640, 1.77613, 0.167973, 86.7947, -0.000976562, -0.000976562, -0.000976562, 0.00683594, 0.291992, -9.77734, 1.18.2022 21:0:33.434
641, 1.77613, 0.167973, 86.7947, -0.000976562, -0.000976562, -0.00195312, -0.0761719, 0.31543, -9.75391, 1.18.2022 21:0:33.442
642, 1.77613, 0.167973, 86.7947, -0.000976562, 0, -0.000976562, -0.0449219, 0.304688, -9.73145, 1.18.2022 21:0:33.450
643, 1.77636, 0.16804, 86.8046, -0.000976562, 0, -0.000976562, -0.00390625, 0.27832, -9.73047, 1.18.2022 21:0:33.458
644, 1.77636, 0.16804, 86.8046, -0.000976562, 0, -0.000976562, -0.0810547, 0.317383, -9.75195, 1.18.2022 21:0:33.466
645, 1.77636, 0.16804, 86.8046, -0.000976562, -0.000976562, -0.00195312, -0.00390625, 0.313477, -9.70801, 1.18.2022 21:0:33.474
646, 1.77636, 0.16804, 86.8046, 0, -0.000976562, -0.000976562, -0.0146484, 0.298828, -9.76562, 1.18.2022 21:0:33.482
647, 1.77636, 0.16804, 86.8046, 0, 0, 0.000976562, -0.0449219, 0.326172, -9.73047, 1.18.2022 21:0:33.490
648, 1.77636, 0.16804, 86.8046, -0.000976562, -0.000976562, 0.000976562, 0.00976562, 0.287109, -9.71387, 1.18.2022 21:0:33.498
649, 1.77636, 0.16804, 86.8046, -0.000976562, 0, -0.000976562, -0.0527344, 0.295898, -9.76953, 1.18.2022 21:0:33.506
650, 1.77613, 0.168126, 86.8049, -0.000976562, 0, -0.000976562, -0.0332031, 0.328125, -9.72852, 1.18.2022 21:0:33.514
651, 1.77613, 0.168126, 86.8049, -0.000976562, -0.000976562, -0.000976562, -0.0136719, 0.285156, -9.72754, 1.18.2022 21:0:33.522
652, 1.77613, 0.168126, 86.8049, 0, -0.000976562, -0.000976562, -0.0761719, 0.297852, -9.74316, 1.18.2022 21:0:33.530
653, 1.77613, 0.168126, 86.8049, -0.000976562, 0, -0.000976562, -0.0263672, 0.302734, -9.74121, 1.18.2022 21:0:33.538
654, 1.77613, 0.168126, 86.8049, -0.000976562, 0, -0.000976562, -0.0292969, 0.303711, -9.77637, 1.18.2022 21:0:33.546
655, 1.77613, 0.168126, 86.8049, 0, 0, -0.000976562, -0.0361328, 0.307617, -9.75781, 1.18.2022 21:0:33.554
656, 1.77613, 0.168126, 86.8049, 0, 0, -0.000976562, 0.0214844, 0.268555, -9.73633, 1.18.2022 21:0:33.562
657, 1.77613, 0.168126, 86.8049, 0, -0.000976562, -0.000976562, -0.0400391, 0.285156, -9.72461, 1.18.2022 21:0:33.570
658, 1.77613, 0.168126, 86.8049, 0, -0.000976562, -0.00195312, -0.0410156, 0.310547, -9.75781, 1.18.2022 21:0:33.578
659, 1.77613, 0.168126, 86.8049, -0.000976562, -0.000976562, -0.000976562, 0.0351562, 0.291016, -9.76172, 1.18.2022 21:0:33.586
660, 1.77613, 0.168126, 86.8049, -0.000976562, -0.000976562, 0.000976562, -0.0644531, 0.333984, -9.73535, 1.18.2022 21:0:33.594
661, 1.77613, 0.168126, 86.8049, -0.000976562, -0.000976562, 0.000976562, 0, 0.319336, -9.73926, 1.18.2022 21:0:33.602
662, 1.77613, 0.168126, 86.8049, 0, -0.000976562, -0.00195312, -0.0117188, 0.297852, -9.75391, 1.18.2022 21:0:33.610
663, 1.77613, 0.168126, 86.8049, -0.000976562, -0.000976562, -0.000976562, -0.078125, 0.314453, -9.7334, 1.18.2022 21:0:33.618
664, 1.77613, 0.168126, 86.8049, -0.000976562, 0, -0.00195312, -0.0078125, 0.264648, -9.76367, 1.18.2022 21:0:33.626
665, 1.77613, 0.168126, 86.8049, 0, 0, -0.000976562, -0.0742188, 0.257812, -9.75391, 1.18.2022 21:0:33.634
666, 1.77613, 0.168126, 86.8049, 0, -0.000976562, -0.000976562, -0.046875, 0.306641, -9.72656, 1.18.2022 21:0:33.642
667, 1.77613, 0.168126, 86.8049, 0, -0.000976562, -0.000976562, 0.0380859, 0.272461, -9.78125, 1.18.2022 21:0:33.650
668, 1.77613, 0.168126, 86.8049, -0.000976562, -0.000976562, -0.00195312, -0.0673828, 0.317383, -9.77051, 1.18.2022 21:0:33.658
669, 1.77613, 0.168126, 86.8049, -0.000976562, -0.000976562, -0.000976562, -0.0351562, 0.318359, -9.71973, 1.18.2022 21:0:33.666
670, 1.77636, 0.16804, 86.8046, -0.000976562, -0.000976562, -0.000976562, 0.0322266, 0.289062, -9.69531, 1.18.2022 21:0:33.674
671, 1.77636, 0.16804, 86.8046, 0, -0.000976562, 0.000976562, -0.0859375, 0.305664, -9.77344, 1.18.2022 21:0:33.682
672, 1.77636, 0.16804, 86.8046, -0.000976562, -0.000976562, 0, 0, 0.314453, -9.73438, 1.18.2022 21:0:33.690
673, 1.77636, 0.16804, 86.8046, 0, 0, 0.000976562, -0.0546875, 0.303711, -9.76465, 1.18.2022 21:0:33.698
674, 1.77613, 0.167973, 86.7947, -0.00195312, 0, 0, -0.0566406, 0.299805, -9.72949, 1.18.2022 21:0:33.706
675, 1.77613, 0.167973, 86.7947, -0.000976562, 0, -0.00195312, 0.0117188, 0.286133, -9.74023, 1.18.2022 21:0:33.714
676, 1.77636, 0.16804, 86.8046, 0, -0.000976562, 0, -0.0478516, 0.298828, -9.78125, 1.18.2022 21:0:33.722
677, 1.77636, 0.16804, 86.8046, -0.000976562, -0.000976562, 0, -0.0498047, 0.308594, -9.7666, 1.18.2022 21:0:33.730
678, 1.77636, 0.16804, 86.8046, -0.000976562, 0, 0, 0.00195312, 0.298828, -9.78711, 1.18.2022 21:0:33.738
679, 1.77636, 0.16804, 86.8046, -0.000976562, -0.000976562, 0, -0.0878906, 0.307617, -9.73047, 1.18.2022 21:0:33.746
680, 1.77636, 0.16804, 86.8046, -0.000976562, -0.000976562, 0, -0.00976562, 0.297852, -9.74414, 1.18.2022 21:0:33.754
681, 1.77636, 0.16804, 86.8046, -0.000976562, -0.000976562, 0, -0.0244141, 0.297852, -9.76074, 1.18.2022 21:0:33.762
682, 1.77636, 0.16804, 86.8046, -0.000976562, 0, 0, -0.0712891, 0.297852, -9.73145, 1.18.2022 21:0:33.770
683, 1.77636, 0.16804, 86.8046, 0, 0, 0, 0.0214844, 0.274414, -9.75, 1.18.2022 21:0:33.778
684, 1.77636, 0.16804, 86.8046, -0.000976562, -0.000976562, 0, -0.0283203, 0.27832, -9.74707, 1.18.2022 21:0:33.786
685, 1.77636, 0.16804, 86.8046, -0.000976562, -0.000976562, 0, -0.0556641, 0.289062, -9.68457, 1.18.2022 21:0:33.794
686, 1.77636, 0.16804, 86.8046, 0, 0, 0, -0.00390625, 0.275391, -9.7207, 1.18.2022 21:0:33.802
687, 1.77636, 0.16804, 86.8046, -0.000976562, 0, 0.000976562, -0.0673828, 0.320312, -9.77051, 1.18.2022 21:0:33.810
688, 1.77636, 0.16804, 86.8046, -0.000976562, 0, 0, -0.00878906, 0.335938, -9.72656, 1.18.2022 21:0:33.818
689, 1.77613, 0.168126, 86.8049, -0.000976562, -0.000976562, 0, -0.0195312, 0.297852, -9.75293, 1.18.2022 21:0:33.826
690, 1.77613, 0.168126, 86.8049, -0.000976562, -0.000976562, 0, -0.078125, 0.316406, -9.72168, 1.18.2022 21:0:33.834
691, 1.77613, 0.168126, 86.8049, -0.00195312, -0.000976562, 0, 0.0244141, 0.280273, -9.72363, 1.18.2022 21:0:33.842
692, 1.77613, 0.168126, 86.8049, -0.00195312, -0.000976562, 0, -0.0244141, 0.298828, -9.77246, 1.18.2022 21:0:33.850
693, 1.78093, 0.163045, 86.8049, -0.000976562, -0.000976562, 0, -0.0400391, 0.30957, -9.72949, 1.18.2022 21:0:33.858
694, 1.78093, 0.163045, 86.8049, -0.000976562, -0.000976562, 0, 0.0214844, 0.286133, -9.74023, 1.18.2022 21:0:33.866
695, 1.77636, 0.168193, 86.8148, 0, 0, 0, -0.0458984, 0.307617, -9.76465, 1.18.2022 21:0:33.874
696, 1.77636, 0.168193, 86.8148, 0, -0.000976562, 0, -0.0351562, 0.306641, -9.73438, 1.18.2022 21:0:33.882
697, 1.77613, 0.168279, 86.8151, -0.000976562, 0, 0, 0.00585938, 0.250977, -9.70312, 1.18.2022 21:0:33.890
698, 1.77613, 0.168279, 86.8151, -0.000976562, -0.000976562, -0.00195312, -0.0927734, 0.314453, -9.74219, 1.18.2022 21:0:33.898
699, 1.78093, 0.163199, 86.8151, -0.000976562, 0, 0, -0.00683594, 0.276367, -9.7373, 1.18.2022 21:0:33.906
700, 1.78093, 0.163199, 86.8151, -0.000976562, -0.000976562, -0.00195312, -0.0214844, 0.304688, -9.74609, 1.18.2022 21:0:33.914
701, 1.78093, 0.163199, 86.8151, 0, -0.000976562, 0, -0.0634766, 0.308594, -9.71484, 1.18.2022 21:0:33.922
702, 1.78093, 0.163199, 86.8151, -0.000976562, 0, 0, 0.0214844, 0.292969, -9.75391, 1.18.2022 21:0:33.930
703, 1.78116, 0.163266, 86.825, -0.000976562, -0.000976562, 0, -0.0546875, 0.297852, -9.72949, 1.18.2022 21:0:33.938
704, 1.78116, 0.163266, 86.825, -0.000976562, -0.000976562, 0, -0.0361328, 0.30957, -9.75, 1.18.2022 21:0:33.946
705, 1.78116, 0.163266, 86.825, -0.000976562, 0, 0.000976562, 0.0146484, 0.271484, -9.73145, 1.18.2022 21:0:33.954
706, 1.77635, 0.168346, 86.825, 0, -0.000976562, 0, -0.0732422, 0.323242, -9.69727, 1.18.2022 21:0:33.962
707, 1.77635, 0.168346, 86.825, -0.000976562, 0, 0, -0.0136719, 0.285156, -9.72754, 1.18.2022 21:0:33.970
708, 1.77635, 0.168346, 86.825, -0.000976562, -0.000976562, -0.00195312, -0.0234375, 0.270508, -9.72559, 1.18.2022 21:0:33.978
709, 1.77612, 0.168432, 86.8252, -0.000976562, -0.000976562, 0, -0.0634766, 0.30957, -9.73145, 1.18.2022 21:0:33.986
710, 1.77612, 0.168432, 86.8252, -0.000976562, -0.000976562, 0, 0.0400391, 0.279297, -9.75684, 1.18.2022 21:0:33.994
711, 1.77612, 0.168432, 86.8252, -0.000976562, -0.000976562, 0, -0.0380859, 0.291016, -9.76074, 1.18.2022 21:0:34.002
712, 1.77612, 0.168432, 86.8252, 0, -0.000976562, 0, -0.0566406, 0.314453, -9.73828, 1.18.2022 21:0:34.010
713, 1.77612, 0.168432, 86.8252, 0, -0.00195312, -0.000976562, 0.00976562, 0.279297, -9.76367, 1.18.2022 21:0:34.018
714, 1.77612, 0.168432, 86.8252, 0, -0.000976562, 0, -0.0634766, 0.311523, -9.71191, 1.18.2022 21:0:34.026
715, 1.77612, 0.168432, 86.8252, 0, -0.000976562, 0, -0.0429688, 0.299805, -9.73633, 1.18.2022 21:0:34.034
716, 1.77635, 0.168346, 86.825, -0.000976562, -0.000976562, 0, -0.00585938, 0.282227, -9.7041, 1.18.2022 21:0:34.042
717, 1.77635, 0.168346, 86.825, -0.000976562, -0.00195312, -0.000976562, -0.0654297, 0.330078, -9.69727, 1.18.2022 21:0:34.050
718, 1.77635, 0.168346, 86.825, -0.000976562, -0.000976562, 0.000976562, 0.0195312, 0.3125, -9.75586, 1.18.2022 21:0:34.058
719, 1.77635, 0.168346, 86.825, -0.000976562, -0.000976562, 0, -0.0302734, 0.299805, -9.72949, 1.18.2022 21:0:34.066
720, 1.77635, 0.168346, 86.825, -0.000976562, -0.00195312, -0.00195312, -0.0615234, 0.332031, -9.74902, 1.18.2022 21:0:34.074
721, 1.77635, 0.168346, 86.825, -0.000976562, -0.000976562, 0, 0.0117188, 0.271484, -9.74023, 1.18.2022 21:0:34.082
722, 1.77635, 0.168346, 86.825, -0.000976562, -0.000976562, 0, -0.0683594, 0.285156, -9.73145, 1.18.2022 21:0:34.090
723, 1.77613, 0.168279, 86.8151, -0.000976562, -0.000976562, 0, -0.0332031, 0.322266, -9.75684, 1.18.2022 21:0:34.098
724, 1.77613, 0.168279, 86.8151, -0.000976562, -0.000976562, 0.000976562, -0.00683594, 0.292969, -9.73926, 1.18.2022 21:0:34.106
725, 1.77613, 0.168279, 86.8151, -0.000976562, -0.000976562, 0, -0.0976562, 0.314453, -9.74023, 1.18.2022 21:0:34.114
726, 1.77613, 0.168279, 86.8151, -0.000976562, 0, 0, 0.00683594, 0.317383, -9.76758, 1.18.2022 21:0:34.122
727, 1.77613, 0.168279, 86.8151, 0, 0, 0, -0.0136719, 0.27832, -9.73047, 1.18.2022 21:0:34.130
728, 1.77613, 0.168279, 86.8151, 0, 0, -0.00195312, -0.0527344, 0.324219, -9.75195, 1.18.2022 21:0:34.138
729, 1.77613, 0.168279, 86.8151, -0.000976562, -0.000976562, 0, 0.0195312, 0.294922, -9.72559, 1.18.2022 21:0:34.144
730, 1.77613, 0.168279, 86.8151, -0.000976562, 0, 0, -0.0615234, 0.297852, -9.74805, 1.18.2022 21:0:34.154
731, 1.77613, 0.168279, 86.8151, -0.000976562, 0, 0, -0.0498047, 0.317383, -9.76367, 1.18.2022 21:0:34.160
732, 1.77636, 0.168193, 86.8148, -0.000976562, -0.000976562, 0, 0.0195312, 0.30957, -9.74414, 1.18.2022 21:0:34.168
733, 1.77636, 0.168193, 86.8148, 0, -0.000976562, 0, -0.0732422, 0.333008, -9.73047, 1.18.2022 21:0:34.176
734, 1.77636, 0.168193, 86.8148, 0, -0.000976562, 0, 0.0126953, 0.337891, -9.74121, 1.18.2022 21:0:34.184
735, 1.77636, 0.168193, 86.8148, 0, -0.000976562, -0.000976562, -0.00195312, 0.286133, -9.74219, 1.18.2022 21:0:34.192
736, 1.77636, 0.168193, 86.8148, 0, -0.000976562, -0.000976562, -0.0615234, 0.294922, -9.72949, 1.18.2022 21:0:34.200
737, 1.77613, 0.168126, 86.8049, 0, 0, 0, 0.0244141, 0.280273, -9.72656, 1.18.2022 21:0:34.208
738, 1.77613, 0.168126, 86.8049, -0.000976562, -0.000976562, 0, -0.0566406, 0.304688, -9.72656, 1.18.2022 21:0:34.216
739, 1.77613, 0.168126, 86.8049, -0.000976562, -0.000976562, 0, -0.0517578, 0.296875, -9.71973, 1.18.2022 21:0:34.224
740, 1.77613, 0.168126, 86.8049, -0.000976562, -0.000976562, 0.000976562, 0.0244141, 0.266602, -9.7334, 1.18.2022 21:0:34.232
741, 1.77613, 0.168126, 86.8049, 0, -0.000976562, -0.000976562, -0.0878906, 0.290039, -9.70996, 1.18.2022 21:0:34.240
742, 1.77613, 0.168126, 86.8049, -0.000976562, -0.00195312, -0.000976562, -0.0185547, 0.288086, -9.73926, 1.18.2022 21:0:34.248
743, 1.77613, 0.168126, 86.8049, 0, -0.000976562, -0.00195312, 0.0283203, 0.289062, -9.78223, 1.18.2022 21:0:34.256
744, 1.77613, 0.168126, 86.8049, -0.000976562, -0.000976562, -0.00195312, -0.0957031, 0.291016, -9.76172, 1.18.2022 21:0:34.264
745, 1.77613, 0.168126, 86.8049, 0, 0, 0, 0.00585938, 0.282227, -9.71387, 1.18.2022 21:0:34.272
746, 1.77613, 0.168126, 86.8049, -0.000976562, -0.000976562, 0, -0.0576172, 0.305664, -9.75684, 1.18.2022 21:0:34.280
747, 1.77613, 0.168126, 86.8049, -0.000976562, -0.000976562, 0.000976562, -0.0517578, 0.324219, -9.74512, 1.18.2022 21:0:34.288
748, 1.77613, 0.168126, 86.8049, -0.000976562, -0.000976562, 0, 0.00488281, 0.280273, -9.7207, 1.18.2022 21:0:34.296
749, 1.77613, 0.168126, 86.8049, 0, -0.000976562, -0.000976562, -0.0664062, 0.299805, -9.7168, 1.18.2022 21:0:34.304
750, 1.77613, 0.168126, 86.8049, -0.000976562, -0.000976562, 0, -0.0351562, 0.291016, -9.74414, 1.18.2022 21:0:34.312
751, 1.77613, 0.168126, 86.8049, -0.000976562, 0, 0, -0.0117188, 0.28125, -9.74902, 1.18.2022 21:0:34.320
752, 1.77613, 0.168126, 86.8049, -0.000976562, -0.000976562, -0.000976562, -0.0859375, 0.3125, -9.73535, 1.18.2022 21:0:34.328
753, 1.77613, 0.168126, 86.8049, -0.000976562, 0, 0, 0.0146484, 0.279297, -9.75488, 1.18.2022 21:0:34.336
754, 1.77613, 0.168126, 86.8049, 0, -0.000976562, -0.000976562, -0.0478516, 0.320312, -9.77148, 1.18.2022 21:0:34.344
755, 1.77613, 0.168126, 86.8049, -0.000976562, -0.000976562, 0, -0.0498047, 0.329102, -9.76172, 1.18.2022 21:0:34.352
756, 1.77613, 0.168126, 86.8049, -0.000976562, 0, 0, 0.0595703, 0.271484, -9.74121, 1.18.2022 21:0:34.360
757, 1.77613, 0.168126, 86.8049, -0.000976562, 0, 0, -0.0595703, 0.30957, -9.74023, 1.18.2022 21:0:34.368
758, 1.77613, 0.168126, 86.8049, -0.000976562, 0, 0.000976562, -0.0136719, 0.295898, -9.69238, 1.18.2022 21:0:34.376
759, 1.77636, 0.16804, 86.8046, -0.000976562, -0.000976562, 0, -0.00683594, 0.292969, -9.74219, 1.18.2022 21:0:34.384
760, 1.77636, 0.16804, 86.8046, -0.000976562, -0.000976562, 0, -0.0664062, 0.307617, -9.75, 1.18.2022 21:0:34.392
761, 1.77636, 0.16804, 86.8046, -0.000976562, -0.000976562, 0.000976562, 0.00976562, 0.288086, -9.75195, 1.18.2022 21:0:34.400
762, 1.77636, 0.16804, 86.8046, -0.000976562, -0.000976562, 0, -0.0429688, 0.259766, -9.74219, 1.18.2022 21:0:34.408
763, 1.77636, 0.16804, 86.8046, -0.000976562, -0.000976562, 0, -0.0683594, 0.304688, -9.72656, 1.18.2022 21:0:34.416
764, 1.77613, 0.167973, 86.7947, -0.000976562, 0, 0, 0.0166016, 0.283203, -9.7334, 1.18.2022 21:0:34.424
765, 1.77613, 0.167973, 86.7947, 0, -0.000976562, -0.000976562, -0.0380859, 0.276367, -9.73242, 1.18.2022 21:0:34.432
766, 1.77613, 0.167973, 86.7947, 0, 0, 0, -0.03125, 0.322266, -9.74512, 1.18.2022 21:0:34.440
767, 1.77613, 0.167973, 86.7947, 0, -0.000976562, -0.000976562, 0.0332031, 0.298828, -9.77344, 1.18.2022 21:0:34.448
768, 1.77613, 0.167973, 86.7947, -0.000976562, -0.000976562, -0.000976562, -0.078125, 0.311523, -9.70996, 1.18.2022 21:0:34.456
769, 1.77613, 0.167973, 86.7947, -0.000976562, 0, 0.000976562, -0.0283203, 0.327148, -9.75684, 1.18.2022 21:0:34.464
770, 1.77613, 0.167973, 86.7947, 0, -0.000976562, 0.000976562, -0.0234375, 0.304688, -9.74316, 1.18.2022 21:0:34.472
771, 1.77636, 0.167888, 86.7945, 0, -0.000976562, -0.000976562, -0.107422, 0.300781, -9.76172, 1.18.2022 21:0:34.480
772, 1.77128, 0.163083, 86.7946, -0.000976562, 0, -0.000976562, 0.0283203, 0.282227, -9.77344, 1.18.2022 21:0:34.488
773, 1.77128, 0.163083, 86.7946, 0, -0.000976562, 0.000976562, -0.0449219, 0.310547, -9.75488, 1.18.2022 21:0:34.496
774, 1.77128, 0.163083, 86.7946, -0.000976562, 0, -0.000976562, -0.0683594, 0.316406, -9.72363, 1.18.2022 21:0:34.504
775, 1.77128, 0.163083, 86.7946, -0.000976562, 0, 0.000976562, 0.00976562, 0.283203, -9.73047, 1.18.2022 21:0:34.512
776, 1.77105, 0.163016, 86.7848, 0, 0, -0.000976562, -0.0595703, 0.300781, -9.75977, 1.18.2022 21:0:34.520
777, 1.77105, 0.163016, 86.7848, 0.000976562, -0.000976562, -0.000976562, -0.0351562, 0.303711, -9.70605, 1.18.2022 21:0:34.528
778, 1.77105, 0.163016, 86.7848, -0.000976562, -0.000976562, -0.000976562, -0.0214844, 0.286133, -9.76074, 1.18.2022 21:0:34.536
779, 1.77105, 0.163016, 86.7848, -0.000976562, 0, -0.000976562, -0.0927734, 0.310547, -9.76855, 1.18.2022 21:0:34.544
780, 1.77105, 0.163016, 86.7848, -0.000976562, 0, -0.000976562, 0.000976562, 0.306641, -9.72461, 1.18.2022 21:0:34.552
781, 1.77105, 0.163016, 86.7848, 0, 0, -0.000976562, -0.00683594, 0.292969, -9.73438, 1.18.2022 21:0:34.560
782, 1.77105, 0.163016, 86.7848, 0, 0, -0.000976562, -0.0449219, 0.323242, -9.72656, 1.18.2022 21:0:34.568
783, 1.77105, 0.163016, 86.7848, 0, 0, -0.00195312, 0.0146484, 0.287109, -9.71387, 1.18.2022 21:0:34.576
784, 1.77105, 0.163016, 86.7848, 0.000976562, 0, -0.000976562, -0.0615234, 0.301758, -9.72461, 1.18.2022 21:0:34.584
785, 1.77105, 0.163016, 86.7848, 0, 0, -0.00195312, -0.0263672, 0.307617, -9.74609, 1.18.2022 21:0:34.592
786, 1.77105, 0.163016, 86.7848, 0, 0, -0.00195312, 0.0234375, 0.323242, -9.7959, 1.18.2022 21:0:34.600
787, 1.77105, 0.163016, 86.7848, -0.000976562, 0, -0.000976562, -0.0761719, 0.317383, -9.75391, 1.18.2022 21:0:34.608
788, 1.77105, 0.163016, 86.7848, 0, -0.000976562, -0.000976562, -0.00195312, 0.283203, -9.74414, 1.18.2022 21:0:34.616
789, 1.77105, 0.163016, 86.7848, -0.000976562, -0.000976562, -0.000976562, -0.00976562, 0.279297, -9.76367, 1.18.2022 21:0:34.624
790, 1.77105, 0.163016, 86.7848, -0.000976562, -0.000976562, 0.000976562, -0.0732422, 0.30957, -9.72363, 1.18.2022 21:0:34.632
791, 1.77105, 0.163016, 86.7848, -0.000976562, 0, -0.000976562, 0.0263672, 0.283203, -9.72656, 1.18.2022 21:0:34.640
792, 1.77105, 0.163016, 86.7848, -0.000976562, -0.000976562, -0.000976562, -0.0351562, 0.30957, -9.71973, 1.18.2022 21:0:34.648
793, 1.77105, 0.163016, 86.7848, -0.000976562, -0.000976562, -0.000976562, -0.0683594, 0.321289, -9.7373, 1.18.2022 21:0:34.656
794, 1.77105, 0.163016, 86.7848, -0.000976562, -0.000976562, -0.000976562, 0.03125, 0.269531, -9.75977, 1.18.2022 21:0:34.664
795, 1.77105, 0.163016, 86.7848, 0, -0.000976562, -0.000976562, -0.0654297, 0.320312, -9.7002, 1.18.2022 21:0:34.672
796, 1.77105, 0.163016, 86.7848, -0.000976562, 0, -0.00195312, 0.00292969, 0.328125, -9.70312, 1.18.2022 21:0:34.680
797, 1.77105, 0.163016, 86.7848, -0.000976562, 0, -0.00195312, 0.000976562, 0.260742, -9.69531, 1.18.2022 21:0:34.688
798, 1.77105, 0.163016, 86.7848, -0.000976562, -0.000976562, -0.00195312, -0.0595703, 0.321289, -9.73047, 1.18.2022 21:0:34.696
799, 1.77105, 0.163016, 86.7848, -0.000976562, 0, 0, -0.00683594, 0.298828, -9.71094, 1.18.2022 21:0:34.704
800, 1.77105, 0.163016, 86.7848, -0.000976562, 0, 0, -0.0400391, 0.285156, -9.71582, 1.18.2022 21:0:34.712
801, 1.77105, 0.163016, 86.7848, -0.000976562, 0, 0, -0.0683594, 0.306641, -9.72852, 1.18.2022 21:0:34.720
802, 1.77105, 0.163016, 86.7848, -0.000976562, 0, 0, 0.00195312, 0.310547, -9.75781, 1.18.2022 21:0:34.728
803, 1.77105, 0.163016, 86.7848, -0.000976562, 0, 0, -0.0498047, 0.302734, -9.75, 1.18.2022 21:0:34.736
804, 1.77105, 0.163016, 86.7848, -0.00195312, 0, 0, -0.0449219, 0.329102, -9.76367, 1.18.2022 21:0:34.744
805, 1.77105, 0.163016, 86.7848, 0, -0.00195312, 0.000976562, -0.0234375, 0.28125, -9.7373, 1.18.2022 21:0:34.752
806, 1.77105, 0.163016, 86.7848, 0, -0.000976562, 0.000976562, -0.0693359, 0.305664, -9.75684, 1.18.2022 21:0:34.760
807, 1.77105, 0.163016, 86.7848, -0.000976562, -0.000976562, -0.00195312, -0.00488281, 0.286133, -9.75586, 1.18.2022 21:0:34.768
808, 1.77128, 0.162931, 86.7845, -0.000976562, 0, 0, -0.0263672, 0.292969, -9.75293, 1.18.2022 21:0:34.776
809, 1.77128, 0.162931, 86.7845, 0, 0, 0, -0.0634766, 0.313477, -9.70703, 1.18.2022 21:0:34.784
810, 1.77128, 0.162931, 86.7845, -0.000976562, -0.000976562, 0, -0.00683594, 0.307617, -9.75293, 1.18.2022 21:0:34.792
811, 1.77128, 0.162931, 86.7845, 0, -0.000976562, 0, -0.0546875, 0.301758, -9.71973, 1.18.2022 21:0:34.800
812, 1.77128, 0.162931, 86.7845, 0, -0.000976562, 0, -0.0205078, 0.328125, -9.70996, 1.18.2022 21:0:34.808
813, 1.77105, 0.162864, 86.7746, 0, 0, -0.00195312, 0.0224609, 0.270508, -9.71484, 1.18.2022 21:0:34.816
814, 1.77105, 0.162864, 86.7746, -0.000976562, -0.000976562, -0.00195312, -0.0664062, 0.318359, -9.71191, 1.18.2022 21:0:34.824
815, 1.77105, 0.162864, 86.7746, 0, -0.000976562, 0, 0.0078125, 0.303711, -9.70605, 1.18.2022 21:0:34.832
816, 1.77105, 0.162864, 86.7746, -0.000976562, -0.000976562, 0, -0.0166016, 0.28418, -9.75586, 1.18.2022 21:0:34.840
817, 1.77105, 0.162864, 86.7746, -0.000976562, -0.000976562, 0, -0.0683594, 0.318359, -9.71875, 1.18.2022 21:0:34.848
818, 1.77105, 0.162864, 86.7746, -0.000976562, -0.000976562, 0, 0.0283203, 0.286133, -9.75195, 1.18.2022 21:0:34.856
819, 1.77128, 0.162779, 86.7743, -0.000976562, -0.000976562, 0.000976562, -0.00683594, 0.297852, -9.75098, 1.18.2022 21:0:34.864
820, 1.77128, 0.162779, 86.7743, -0.00195312, -0.000976562, 0, -0.0361328, 0.332031, -9.75879, 1.18.2022 21:0:34.872
821, 1.77128, 0.162779, 86.7743, -0.000976562, -0.000976562, 0, 0.00585938, 0.275391, -9.70508, 1.18.2022 21:0:34.880
822, 1.77128, 0.162779, 86.7743, 0, -0.000976562, 0, -0.0927734, 0.295898, -9.75488, 1.18.2022 21:0:34.888
823, 1.77128, 0.162779, 86.7743, 0, 0, -0.00195312, -0.0253906, 0.301758, -9.71973, 1.18.2022 21:0:34.896
824, 1.77128, 0.162779, 86.7743, 0, -0.000976562, 0, -0.0302734, 0.276367, -9.73242, 1.18.2022 21:0:34.904
825, 1.77128, 0.162779, 86.7743, 0, -0.000976562, 0, -0.0732422, 0.318359, -9.71387, 1.18.2022 21:0:34.912
826, 1.77128, 0.162779, 86.7743, 0, -0.000976562, 0, -0.00195312, 0.302734, -9.74414, 1.18.2022 21:0:34.920
827, 1.77128, 0.162779, 86.7743, 0, -0.000976562, 0, -0.0166016, 0.295898, -9.75391, 1.18.2022 21:0:34.928
828, 1.77128, 0.162779, 86.7743, -0.000976562, -0.000976562, 0.000976562, -0.0712891, 0.300781, -9.76172, 1.18.2022 21:0:34.936
829, 1.77128, 0.162779, 86.7743, -0.00195312, -0.000976562, 0.000976562, 0.0078125, 0.261719, -9.7334, 1.18.2022 21:0:34.944
830, 1.77128, 0.162779, 86.7743, -0.00195312, 0, 0, -0.0527344, 0.293945, -9.77441, 1.18.2022 21:0:34.952
831, 1.77128, 0.162779, 86.7743, -0.000976562, 0, -0.000976562, -0.0507812, 0.289062, -9.76953, 1.18.2022 21:0:34.960
832, 1.77128, 0.162779, 86.7743, -0.000976562, 0, -0.000976562, -0.0185547, 0.297852, -9.74609, 1.18.2022 21:0:34.968
833, 1.77128, 0.162779, 86.7743, 0, 0, -0.000976562, -0.0830078, 0.319336, -9.75391, 1.18.2022 21:0:34.976
834, 1.77128, 0.162779, 86.7743, 0, 0, -0.000976562, 0.00976562, 0.28125, -9.76367, 1.18.2022 21:0:34.984
835, 1.77128, 0.162779, 86.7743, 0, 0, -0.000976562, -0.0214844, 0.301758, -9.78125, 1.18.2022 21:0:34.992
836, 1.77128, 0.162779, 86.7743, -0.000976562, -0.000976562, -0.00195312, -0.0615234, 0.306641, -9.73145, 1.18.2022 21:0:35.000
837, 1.77128, 0.162779, 86.7743, 0, -0.000976562, -0.000976562, 0.0166016, 0.28125, -9.74707, 1.18.2022 21:0:35.008
838, 1.77128, 0.162779, 86.7743, 0, -0.000976562, -0.000976562, -0.0585938, 0.299805, -9.71289, 1.18.2022 21:0:35.016
839, 1.77105, 0.162864, 86.7746, -0.000976562, -0.000976562, -0.000976562, -0.0703125, 0.301758, -9.70508, 1.18.2022 21:0:35.024
840, 1.77105, 0.162864, 86.7746, -0.000976562, -0.000976562, -0.000976562, 0.0263672, 0.276367, -9.75195, 1.18.2022 21:0:35.032
841, 1.77105, 0.162864, 86.7746, -0.000976562, 0, 0.000976562, -0.0839844, 0.31543, -9.76172, 1.18.2022 21:0:35.040
842, 1.77105, 0.162864, 86.7746, 0, -0.000976562, 0.000976562, -0.015625, 0.303711, -9.70801, 1.18.2022 21:0:35.048
843, 1.77128, 0.162779, 86.7743, -0.000976562, -0.000976562, -0.000976562, -0.0253906, 0.285156, -9.72949, 1.18.2022 21:0:35.056
844, 1.77105, 0.162864, 86.7746, 0, 0, -0.00195312, -0.0546875, 0.317383, -9.76367, 1.18.2022 21:0:35.064
845, 1.77105, 0.162864, 86.7746, 0, -0.000976562, -0.000976562, 0.00195312, 0.306641, -9.80273, 1.18.2022 21:0:35.072
846, 1.77128, 0.162779, 86.7743, 0, 0, 0.000976562, -0.0410156, 0.291016, -9.7627, 1.18.2022 21:0:35.080
847, 1.77128, 0.162779, 86.7743, -0.000976562, -0.000976562, -0.000976562, -0.0478516, 0.293945, -9.77148, 1.18.2022 21:0:35.088
848, 1.77128, 0.162779, 86.7743, -0.000976562, 0, -0.000976562, 0.0390625, 0.294922, -9.71875, 1.18.2022 21:0:35.096
849, 1.77128, 0.162779, 86.7743, -0.000976562, 0, -0.000976562, -0.0878906, 0.286133, -9.74121, 1.18.2022 21:0:35.104
850, 1.77128, 0.162779, 86.7743, -0.000976562, -0.000976562, -0.000976562, -0.0136719, 0.27832, -9.72363, 1.18.2022 21:0:35.112
851, 1.77128, 0.162779, 86.7743, -0.000976562, -0.000976562, -0.000976562, 0.00585938, 0.282227, -9.68848, 1.18.2022 21:0:35.120
852, 1.77105, 0.162712, 86.7644, -0.000976562, 0, -0.000976562, -0.0761719, 0.291016, -9.75977, 1.18.2022 21:0:35.128
853, 1.77105, 0.162712, 86.7644, -0.000976562, -0.000976562, -0.00195312, 0.0195312, 0.27832, -9.75, 1.18.2022 21:0:35.134
854, 1.77105, 0.162712, 86.7644, -0.000976562, -0.000976562, -0.00195312, -0.0449219, 0.283203, -9.7207, 1.18.2022 21:0:35.142
855, 1.77105, 0.162712, 86.7644, 0, -0.000976562, -0.000976562, -0.078125, 0.331055, -9.73242, 1.18.2022 21:0:35.150
856, 1.77105, 0.162712, 86.7644, -0.000976562, -0.000976562, -0.000976562, 0.0166016, 0.28125, -9.75195, 1.18.2022 21:0:35.158
857, 1.77105, 0.162712, 86.7644, -0.000976562, -0.000976562, -0.000976562, -0.0810547, 0.304688, -9.72852, 1.18.2022 21:0:35.166
858, 1.77105, 0.162712, 86.7644, -0.000976562, 0, -0.000976562, -0.0224609, 0.313477, -9.70117, 1.18.2022 21:0:35.174
859, 1.77128, 0.162626, 86.7641, -0.000976562, 0, -0.000976562, 0.00292969, 0.288086, -9.74414, 1.18.2022 21:0:35.182
860, 1.77128, 0.162626, 86.7641, 0, 0, -0.000976562, -0.0732422, 0.328125, -9.69727, 1.18.2022 21:0:35.190
861, 1.77128, 0.162626, 86.7641, 0, -0.000976562, -0.000976562, -0.0117188, 0.300781, -9.76953, 1.18.2022 21:0:35.198
862, 1.77128, 0.162626, 86.7641, 0, 0, -0.000976562, -0.0351562, 0.290039, -9.7207, 1.18.2022 21:0:35.206
863, 1.77128, 0.162626, 86.7641, 0, 0, 0, -0.0703125, 0.320312, -9.69043, 1.18.2022 21:0:35.214
864, 1.77128, 0.162626, 86.7641, 0, -0.000976562, 0, 0.00488281, 0.302734, -9.73438, 1.18.2022 21:0:35.222
865, 1.77128, 0.162626, 86.7641, -0.000976562, 0, -0.00195312, -0.0449219, 0.316406, -9.7168, 1.18.2022 21:0:35.230
866, 1.77128, 0.162626, 86.7641, -0.000976562, -0.000976562, 0, -0.0380859, 0.31543, -9.75684, 1.18.2022 21:0:35.238
867, 1.77128, 0.162626, 86.7641, -0.000976562, 0, 0, 0.0263672, 0.299805, -9.74219, 1.18.2022 21:0:35.246
868, 1.77105, 0.162559, 86.7542, 0, 0, 0, -0.0830078, 0.333984, -9.75586, 1.18.2022 21:0:35.254
869, 1.77105, 0.162559, 86.7542, 0, 0, 0.000976562, -0.0332031, 0.280273, -9.7207, 1.18.2022 21:0:35.262
870, 1.77105, 0.162559, 86.7542, -0.000976562, -0.000976562, 0, 0.000976562, 0.273438, -9.71387, 1.18.2022 21:0:35.270
871, 1.77105, 0.162559, 86.7542, -0.000976562, -0.000976562, 0, -0.0351562, 0.283203, -9.72559, 1.18.2022 21:0:35.278
872, 1.77105, 0.162559, 86.7542, -0.000976562, 0, 0, 0.0166016, 0.274414, -9.76172, 1.18.2022 21:0:35.286
873, 1.77105, 0.162559, 86.7542, 0, 0, 0, -0.0253906, 0.285156, -9.72754, 1.18.2022 21:0:35.294
874, 1.77105, 0.162559, 86.7542, -0.000976562, -0.000976562, 0, -0.0693359, 0.317383, -9.75195, 1.18.2022 21:0:35.302
875, 1.77105, 0.162559, 86.7542, -0.000976562, -0.000976562, 0, 0.0410156, 0.286133, -9.74805, 1.18.2022 21:0:35.310
876, 1.77105, 0.162559, 86.7542, -0.000976562, -0.000976562, 0, -0.09375, 0.313477, -9.78027, 1.18.2022 21:0:35.318
877, 1.77105, 0.162559, 86.7542, -0.000976562, -0.000976562, 0, -0.0283203, 0.301758, -9.72461, 1.18.2022 21:0:35.326
878, 1.77105, 0.162559, 86.7542, -0.000976562, -0.000976562, 0, -0.00683594, 0.27832, -9.7373, 1.18.2022 21:0:35.334
879, 1.77105, 0.162559, 86.7542, 0, -0.000976562, 0, -0.0566406, 0.297852, -9.73828, 1.18.2022 21:0:35.342
880, 1.77105, 0.162559, 86.7542, -0.000976562, -0.000976562, 0, 0.0195312, 0.292969, -9.73047, 1.18.2022 21:0:35.350
881, 1.77105, 0.162559, 86.7542, 0, 0, -0.00195312, -0.0478516, 0.319336, -9.75, 1.18.2022 21:0:35.358
882, 1.77105, 0.162559, 86.7542, -0.000976562, -0.000976562, -0.00195312, -0.0634766, 0.318359, -9.70703, 1.18.2022 21:0:35.366
883, 1.77105, 0.162559, 86.7542, -0.00195312, 0, 0, 0.0322266, 0.287109, -9.70703, 1.18.2022 21:0:35.374
884, 1.77105, 0.162559, 86.7542, -0.000976562, -0.000976562, 0, -0.0546875, 0.326172, -9.7334, 1.18.2022 21:0:35.382
885, 1.77105, 0.162559, 86.7542, 0, 0, 0, -0.0136719, 0.307617, -9.73633, 1.18.2022 21:0:35.390
886, 1.77105, 0.162559, 86.7542, 0, 0, 0, -0.0195312, 0.302734, -9.76074, 1.18.2022 21:0:35.398
887, 1.77105, 0.162559, 86.7542, 0.000976562, 0, -0.00195312, -0.0761719, 0.314453, -9.73047, 1.18.2022 21:0:35.406
888, 1.77105, 0.162559, 86.7542, 0, -0.000976562, 0, 0.0078125, 0.295898, -9.69238, 1.18.2022 21:0:35.414
889, 1.77105, 0.162559, 86.7542, 0, -0.000976562, 0, -0.0214844, 0.283203, -9.73047, 1.18.2022 21:0:35.422
890, 1.77105, 0.162559, 86.7542, 0, 0, 0, -0.0634766, 0.308594, -9.70996, 1.18.2022 21:0:35.430
891, 1.77105, 0.162559, 86.7542, 0, 0, 0, 0.0615234, 0.274414, -9.77441, 1.18.2022 21:0:35.438
892, 1.77105, 0.162559, 86.7542, -0.000976562, 0.000976562, 0, -0.0302734, 0.291992, -9.71582, 1.18.2022 21:0:35.446
893, 1.77105, 0.162559, 86.7542, -0.000976562, 0, 0, -0.0839844, 0.322266, -9.76855, 1.18.2022 21:0:35.454
894, 1.77128, 0.162474, 86.754, 0, 0, 0, 0.000976562, 0.273438, -9.72363, 1.18.2022 21:0:35.462
895, 1.77128, 0.162474, 86.754, 0, 0, 0, -0.0664062, 0.314453, -9.72363, 1.18.2022 21:0:35.470
896, 1.77128, 0.162474, 86.754, -0.000976562, -0.000976562, 0, 0.0224609, 0.287109, -9.71387, 1.18.2022 21:0:35.478
897, 1.77128, 0.162474, 86.754, 0, -0.000976562, 0, -0.0117188, 0.298828, -9.7627, 1.18.2022 21:0:35.486
898, 1.77128, 0.162474, 86.754, 0, -0.000976562, 0.000976562, -0.0517578, 0.326172, -9.74512, 1.18.2022 21:0:35.494
899, 1.77128, 0.162474, 86.754, -0.000976562, -0.000976562, 0, 0.0263672, 0.295898, -9.75195, 1.18.2022 21:0:35.502
900, 1.77128, 0.162474, 86.754, -0.000976562, 0, 0, -0.0302734, 0.311523, -9.72168, 1.18.2022 21:0:35.510
901, 1.77128, 0.162474, 86.754, 0, -0.000976562, 0, -0.0654297, 0.294922, -9.79297, 1.18.2022 21:0:35.518
902, 1.77128, 0.162474, 86.754, -0.000976562, -0.000976562, -0.00195312, 0.0234375, 0.271484, -9.74805, 1.18.2022 21:0:35.526
903, 1.77128, 0.162474, 86.754, -0.000976562, -0.000976562, 0, -0.0849609, 0.313477, -9.70703, 1.18.2022 21:0:35.534
904, 1.76648, 0.167557, 86.754, 0, -0.000976562, 0, -0.0136719, 0.306641, -9.71973, 1.18.2022 21:0:35.542
905, 1.76625, 0.16749, 86.7441, 0, -0.000976562, 0, -0.0117188, 0.307617, -9.75586, 1.18.2022 21:0:35.550
906, 1.76625, 0.16749, 86.7441, 0, 0, 0, -0.0615234, 0.333008, -9.73047, 1.18.2022 21:0:35.558
907, 1.76625, 0.16749, 86.7441, 0, -0.000976562, 0, -0.0117188, 0.289062, -9.77051, 1.18.2022 21:0:35.566
908, 1.76648, 0.167405, 86.7438, 0, -0.000976562, 0.000976562, -0.0214844, 0.291016, -9.75586, 1.18.2022 21:0:35.574
909, 1.76648, 0.167405, 86.7438, 0, -0.000976562, 0, -0.0683594, 0.321289, -9.73047, 1.18.2022 21:0:35.582
910, 1.76648, 0.167405, 86.7438, 0, 0, -0.000976562, 0.0429688, 0.310547, -9.75879, 1.18.2022 21:0:35.590
911, 1.76648, 0.167405, 86.7438, 0, 0, 0, -0.0732422, 0.324219, -9.74023, 1.18.2022 21:0:35.598
912, 1.76648, 0.167405, 86.7438, 0, 0, 0, -0.0166016, 0.3125, -9.76758, 1.18.2022 21:0:35.606
913, 1.76648, 0.167405, 86.7438, -0.000976562, -0.000976562, 0, 0.00976562, 0.27832, -9.75, 1.18.2022 21:0:35.614
914, 1.76648, 0.167405, 86.7438, -0.000976562, -0.000976562, 0.000976562, -0.0976562, 0.300781, -9.7666, 1.18.2022 21:0:35.622
915, 1.76648, 0.167405, 86.7438, -0.000976562, -0.000976562, 0, 0.0166016, 0.295898, -9.74707, 1.18.2022 21:0:35.630
916, 1.76626, 0.167338, 86.7339, -0.00195312, -0.000976562, 0, -0.03125, 0.292969, -9.74414, 1.18.2022 21:0:35.638
917, 1.76626, 0.167338, 86.7339, 0, -0.00195312, 0.000976562, -0.0585938, 0.330078, -9.69727, 1.18.2022 21:0:35.646
918, 1.76626, 0.167338, 86.7339, 0, -0.000976562, 0, 0.0214844, 0.292969, -9.73535, 1.18.2022 21:0:35.654
919, 1.76626, 0.167338, 86.7339, 0, 0, 0, -0.0566406, 0.298828, -9.69336, 1.18.2022 21:0:35.662
920, 1.76626, 0.167338, 86.7339, 0, 0, 0, -0.0625, 0.300781, -9.76953, 1.18.2022 21:0:35.670
921, 1.76626, 0.167338, 86.7339, -0.000976562, -0.000976562, 0, -0.0166016, 0.273438, -9.7373, 1.18.2022 21:0:35.678
922, 1.76649, 0.167253, 86.7336, -0.000976562, -0.000976562, 0, -0.112305, 0.305664, -9.75684, 1.18.2022 21:0:35.686
923, 1.76649, 0.167253, 86.7336, -0.000976562, 0, 0, -0.00878906, 0.267578, -9.70508, 1.18.2022 21:0:35.694
924, 1.76649, 0.167253, 86.7336, -0.000976562, -0.000976562, 0, -0.0166016, 0.28418, -9.76074, 1.18.2022 21:0:35.702
925, 1.76649, 0.167253, 86.7336, 0, 0, 0, -0.0800781, 0.310547, -9.69043, 1.18.2022 21:0:35.710
926, 1.76649, 0.167253, 86.7336, 0, -0.000976562, 0, 0.0166016, 0.289062, -9.77539, 1.18.2022 21:0:35.718
927, 1.76649, 0.167253, 86.7336, -0.000976562, 0, -0.000976562, -0.0429688, 0.297852, -9.73633, 1.18.2022 21:0:35.726
928, 1.76649, 0.167253, 86.7336, 0, -0.000976562, 0.000976562, -0.0595703, 0.31543, -9.75977, 1.18.2022 21:0:35.734
929, 1.76649, 0.167253, 86.7336, -0.000976562, -0.000976562, -0.000976562, 0.0361328, 0.288086, -9.74512, 1.18.2022 21:0:35.742
930, 1.76649, 0.167253, 86.7336, -0.000976562, 0, -0.000976562, -0.0625, 0.326172, -9.80371, 1.18.2022 21:0:35.750
931, 1.76649, 0.167253, 86.7336, 0, -0.000976562, -0.000976562, 0.00488281, 0.290039, -9.72754, 1.18.2022 21:0:35.758
932, 1.76649, 0.167253, 86.7336, 0, -0.000976562, -0.000976562, 0, 0.286133, -9.74902, 1.18.2022 21:0:35.766
933, 1.76626, 0.167186, 86.7238, 0, -0.000976562, -0.000976562, -0.0478516, 0.310547, -9.75293, 1.18.2022 21:0:35.774
934, 1.76626, 0.167186, 86.7238, -0.000976562, -0.000976562, -0.000976562, -0.00390625, 0.291992, -9.7207, 1.18.2022 21:0:35.782
935, 1.76626, 0.167186, 86.7238, -0.000976562, 0, 0.000976562, -0.0419922, 0.303711, -9.70117, 1.18.2022 21:0:35.790
936, 1.76626, 0.167186, 86.7238, -0.00195312, 0, -0.000976562, -0.0498047, 0.304688, -9.74512, 1.18.2022 21:0:35.798
937, 1.76649, 0.167101, 86.7235, -0.000976562, 0, -0.000976562, 0.0195312, 0.283203, -9.72852, 1.18.2022 21:0:35.806
938, 1.76649, 0.167101, 86.7235, -0.000976562, 0, -0.000976562, -0.0732422, 0.326172, -9.71875, 1.18.2022 21:0:35.814
939, 1.76649, 0.167101, 86.7235, -0.000976562, 0, -0.000976562, -0.0488281, 0.318359, -9.7002, 1.18.2022 21:0:35.822
940, 1.77129, 0.162017, 86.7235, -0.000976562, 0, -0.000976562, -0.00683594, 0.292969, -9.73926, 1.18.2022 21:0:35.830
941, 1.77129, 0.162017, 86.7235, -0.000976562, -0.000976562, -0.000976562, -0.0732422, 0.322266, -9.74219, 1.18.2022 21:0:35.838
942, 1.77129, 0.162017, 86.7235, -0.000976562, -0.000976562, -0.000976562, -0.00488281, 0.291016, -9.76367, 1.18.2022 21:0:35.846
943, 1.77129, 0.162017, 86.7235, 0, 0, 0.000976562, -0.0166016, 0.287109, -9.77051, 1.18.2022 21:0:35.854
944, 1.77129, 0.162017, 86.7235, -0.000976562, -0.000976562, -0.000976562, -0.0615234, 0.311523, -9.73145, 1.18.2022 21:0:35.862
945, 1.77129, 0.162017, 86.7235, -0.000976562, -0.000976562, -0.000976562, 0.0361328, 0.287109, -9.71875, 1.18.2022 21:0:35.870
946, 1.77129, 0.162017, 86.7235, 0, 0, -0.000976562, -0.0732422, 0.316406, -9.72559, 1.18.2022 21:0:35.878
947, 1.77129, 0.162017, 86.7235, 0, 0, -0.000976562, -0.0371094, 0.291992, -9.71582, 1.18.2022 21:0:35.886
948, 1.77129, 0.162017, 86.7235, -0.000976562, 0, -0.000976562, 0.0166016, 0.276367, -9.75879, 1.18.2022 21:0:35.894
949, 1.77129, 0.162017, 86.7235, 0, -0.000976562, -0.000976562, -0.101562, 0.331055, -9.72949, 1.18.2022 21:0:35.902
950, 1.77129, 0.162017, 86.7235, -0.000976562, -0.00195312, -0.000976562, -0.00292969, 0.293945, -9.76367, 1.18.2022 21:0:35.910
951, 1.77129, 0.162017, 86.7235, -0.000976562, -0.000976562, 0.000976562, -0.0166016, 0.30957, -9.72754, 1.18.2022 21:0:35.918
952, 1.77106, 0.16195, 86.7136, -0.000976562, -0.000976562, -0.000976562, -0.078125, 0.335938, -9.71875, 1.18.2022 21:0:35.926
953, 1.77106, 0.16195, 86.7136, 0, 0, 0.000976562, 0.0244141, 0.306641, -9.71875, 1.18.2022 21:0:35.934
954, 1.77106, 0.16195, 86.7136, -0.000976562, 0, -0.000976562, -0.0205078, 0.279297, -9.69434, 1.18.2022 21:0:35.942
955, 1.77129, 0.161864, 86.7133, 0, -0.000976562, -0.000976562, -0.0517578, 0.333008, -9.73047, 1.18.2022 21:0:35.950
956, 1.77129, 0.161864, 86.7133, -0.000976562, 0, 0.000976562, 0.00683594, 0.289062, -9.76562, 1.18.2022 21:0:35.958
957, 1.77129, 0.161864, 86.7133, -0.000976562, -0.000976562, -0.000976562, -0.0976562, 0.322266, -9.76074, 1.18.2022 21:0:35.966
958, 1.77129, 0.161864, 86.7133, -0.000976562, -0.000976562, -0.000976562, -0.0263672, 0.302734, -9.74805, 1.18.2022 21:0:35.974
959, 1.77129, 0.161864, 86.7133, -0.000976562, -0.000976562, -0.000976562, -0.0214844, 0.291016, -9.74414, 1.18.2022 21:0:35.982
960, 1.77129, 0.161864, 86.7133, 0, -0.000976562, 0, -0.0527344, 0.307617, -9.75, 1.18.2022 21:0:35.990
961, 1.77129, 0.161864, 86.7133, 0, -0.000976562, -0.000976562, 0.0166016, 0.304688, -9.74707, 1.18.2022 21:0:35.998
962, 1.77129, 0.161864, 86.7133, -0.000976562, -0.000976562, -0.000976562, -0.00683594, 0.27832, -9.71875, 1.18.2022 21:0:36.006
963, 1.77129, 0.161864, 86.7133, 0, -0.000976562, -0.000976562, -0.0429688, 0.3125, -9.73828, 1.18.2022 21:0:36.014
964, 1.77129, 0.161864, 86.7133, -0.000976562, 0, -0.000976562, 0.0166016, 0.283203, -9.74219, 1.18.2022 21:0:36.022
965, 1.77129, 0.161864, 86.7133, 0, -0.000976562, -0.00195312, -0.0888672, 0.296875, -9.78809, 1.18.2022 21:0:36.030
966, 1.77129, 0.161864, 86.7133, -0.000976562, 0, -0.000976562, -0.0234375, 0.326172, -9.7334, 1.18.2022 21:0:36.038
967, 1.77106, 0.161797, 86.7034, -0.000976562, 0, -0.000976562, -0.0117188, 0.290039, -9.73242, 1.18.2022 21:0:36.046
968, 1.77129, 0.161712, 86.7031, -0.000976562, 0, -0.000976562, -0.0673828, 0.28418, -9.76465, 1.18.2022 21:0:36.054
969, 1.77129, 0.161712, 86.7031, -0.000976562, -0.000976562, -0.000976562, 0.0341797, 0.291992, -9.7002, 1.18.2022 21:0:36.062
970, 1.77129, 0.161712, 86.7031, -0.000976562, -0.000976562, -0.00195312, -0.0292969, 0.28418, -9.77246, 1.18.2022 21:0:36.070
971, 1.77129, 0.161712, 86.7031, -0.000976562, -0.00195312, -0.000976562, -0.046875, 0.339844, -9.7168, 1.18.2022 21:0:36.078
972, 1.77129, 0.161712, 86.7031, -0.00195312, -0.000976562, -0.000976562, 0.0234375, 0.300781, -9.77051, 1.18.2022 21:0:36.086
973, 1.77129, 0.161712, 86.7031, 0, -0.000976562, -0.00195312, -0.0654297, 0.299805, -9.79492, 1.18.2022 21:0:36.094
974, 1.77129, 0.161712, 86.7031, -0.000976562, 0, -0.000976562, -0.0458984, 0.320312, -9.76855, 1.18.2022 21:0:36.100
975, 1.77129, 0.161559, 86.693, -0.000976562, -0.000976562, -0.000976562, 0.00195312, 0.290039, -9.79688, 1.18.2022 21:0:36.108
976, 1.77129, 0.161559, 86.693, -0.000976562, 0, -0.000976562, -0.0849609, 0.294922, -9.71191, 1.18.2022 21:0:36.116
977, 1.77129, 0.161559, 86.693, -0.000976562, -0.000976562, -0.000976562, 0.00585938, 0.310547, -9.69629, 1.18.2022 21:0:36.124
978, 1.77129, 0.161559, 86.693, -0.000976562, -0.000976562, -0.000976562, -0.0136719, 0.299805, -9.72266, 1.18.2022 21:0:36.132
979, 1.77129, 0.161559, 86.693, 0, -0.000976562, -0.000976562, -0.0996094, 0.331055, -9.71582, 1.18.2022 21:0:36.140
980, 1.77129, 0.161559, 86.693, 0, 0, -0.000976562, 0.00976562, 0.264648, -9.74805, 1.18.2022 21:0:36.148
981, 1.77129, 0.161559, 86.693, -0.000976562, -0.000976562, -0.000976562, -0.0400391, 0.285156, -9.71777, 1.18.2022 21:0:36.156
982, 1.77129, 0.161559, 86.693, -0.000976562, -0.000976562, -0.000976562, -0.0439453, 0.320312, -9.70508, 1.18.2022 21:0:36.164
983, 1.77129, 0.161559, 86.693, -0.000976562, 0, -0.00195312, 0.0195312, 0.316406, -9.73242, 1.18.2022 21:0:36.172
984, 1.77129, 0.161559, 86.693, 0, 0, -0.000976562, -0.0605469, 0.308594, -9.7832, 1.18.2022 21:0:36.180
985, 1.77129, 0.161559, 86.693, -0.000976562, 0, -0.000976562, -0.00488281, 0.302734, -9.73926, 1.18.2022 21:0:36.188
986, 1.77129, 0.161559, 86.693, 0, -0.000976562, -0.000976562, -0.0214844, 0.266602, -9.72559, 1.18.2022 21:0:36.196
987, 1.77129, 0.161559, 86.693, 0, 0, -0.000976562, -0.0585938, 0.305664, -9.68164, 1.18.2022 21:0:36.204
988, 1.77129, 0.161559, 86.693, 0, 0, -0.000976562, 0.00292969, 0.30957, -9.73438, 1.18.2022 21:0:36.212
989, 1.77129, 0.161559, 86.693, 0, 0, 0, -0.0136719, 0.299805, -9.7373, 1.18.2022 21:0:36.220
990, 1.77129, 0.161559, 86.693, 0, 0, 0, -0.0478516, 0.30957, -9.74512, 1.18.2022 21:0:36.228
991, 1.77129, 0.161559, 86.693, -0.000976562, -0.000976562, 0, 0.0283203, 0.259766, -9.75977, 1.18.2022 21:0:36.236
992, 1.77129, 0.161559, 86.693, -0.000976562, 0, -0.00195312, -0.0712891, 0.308594, -9.7666, 1.18.2022 21:0:36.244
993, 1.77106, 0.161645, 86.6933, 0, 0, -0.00195312, -0.0361328, 0.320312, -9.75977, 1.18.2022 21:0:36.252
994, 1.77129, 0.161712, 86.7031, 0, 0, 0.000976562, 0.0166016, 0.286133, -9.75391, 1.18.2022 21:0:36.260
995, 1.77129, 0.161712, 86.7031, 0, 0, 0, -0.0732422, 0.347656, -9.7207, 1.18.2022 21:0:36.268
996, 1.77129, 0.161712, 86.7031, -0.000976562, -0.000976562, 0, -0.000976562, 0.296875, -9.79395, 1.18.2022 21:0:36.276
997, 1.77129, 0.161712, 86.7031, -0.000976562, -0.000976562, 0, -0.0244141, 0.291992, -9.77441, 1.18.2022 21:0:36.284
998, 1.77129, 0.161712, 86.7031, -0.000976562, -0.000976562, 0.000976562, -0.0400391, 0.302734, -9.74609, 1.18.2022 21:0:36.292
999, 1.77129, 0.161712, 86.7031, -0.000976562, 0, 0, 0.0166016, 0.297852, -9.74707, 1.18.2022 21:0:36.300
1000, 1.77129, 0.161712, 86.7031, -0.000976562, -0.000976562, 0, -0.0615234, 0.294922, -9.71777, 1.18.2022 21:0:36.308
1001, 1.77129, 0.161712, 86.7031, -0.000976562, 0, 0, -0.0498047, 0.302734, -9.74316, 1.18.2022 21:0:36.316
1002, 1.77129, 0.161712, 86.7031, -0.000976562, 0, 0.000976562, -0.00878906, 0.290039, -9.72559, 1.18.2022 21:0:36.324
1003, 1.77129, 0.161712, 86.7031, -0.000976562, -0.000976562, 0, -0.0878906, 0.317383, -9.74512, 1.18.2022 21:0:36.332
1004, 1.77129, 0.161712, 86.7031, -0.000976562, -0.000976562, 0, 0.00683594, 0.298828, -9.77246, 1.18.2022 21:0:36.340
1005, 1.77129, 0.161712, 86.7031, -0.00195312, -0.000976562, 0, -0.0117188, 0.314453, -9.75293, 1.18.2022 21:0:36.348
1006, 1.77129, 0.161712, 86.7031, -0.000976562, -0.000976562, 0, -0.0615234, 0.307617, -9.74805, 1.18.2022 21:0:36.356
1007, 1.77129, 0.161712, 86.7031, 0, -0.000976562, 0, 0.0263672, 0.288086, -9.72852, 1.18.2022 21:0:36.364
1008, 1.77106, 0.161797, 86.7034, 0, 0, 0, -0.0449219, 0.295898, -9.75977, 1.18.2022 21:0:36.372
1009, 1.77106, 0.161797, 86.7034, 0, -0.000976562, 0, -0.0664062, 0.291016, -9.75, 1.18.2022 21:0:36.380
1010, 1.77106, 0.161797, 86.7034, 0, -0.000976562, 0, 0.0361328, 0.290039, -9.71387, 1.18.2022 21:0:36.388
1011, 1.77129, 0.161864, 86.7133, -0.000976562, -0.000976562, 0, -0.0810547, 0.338867, -9.75098, 1.18.2022 21:0:36.396
1012, 1.77129, 0.161864, 86.7133, -0.000976562, -0.000976562, 0, -0.0273438, 0.291992, -9.70898, 1.18.2022 21:0:36.404
1013, 1.77129, 0.161864, 86.7133, 0, -0.000976562, 0, 0.000976562, 0.296875, -9.69727, 1.18.2022 21:0:36.412
1014, 1.77106, 0.161797, 86.7034, -0.000976562, -0.000976562, 0, -0.0761719, 0.305664, -9.74707, 1.18.2022 21:0:36.420
1015, 1.77106, 0.161797, 86.7034, -0.000976562, 0, 0, 0.0332031, 0.310547, -9.78906, 1.18.2022 21:0:36.428
1016, 1.77106, 0.161797, 86.7034, -0.000976562, 0, 0, -0.0234375, 0.316406, -9.7334, 1.18.2022 21:0:36.436
1017, 1.77106, 0.161797, 86.7034, 0, -0.000976562, 0.000976562, -0.0566406, 0.30957, -9.72363, 1.18.2022 21:0:36.444
1018, 1.77129, 0.161712, 86.7031, -0.000976562, -0.000976562, 0, 0.0449219, 0.276367, -9.7666, 1.18.2022 21:0:36.452
1019, 1.77129, 0.161712, 86.7031, -0.000976562, -0.00195312, -0.000976562, -0.0712891, 0.288086, -9.74609, 1.18.2022 21:0:36.460
1020, 1.77106, 0.161797, 86.7034, 0, -0.000976562, 0, -0.0234375, 0.311523, -9.72656, 1.18.2022 21:0:36.468
1021, 1.77106, 0.161797, 86.7034, 0, -0.00195312, -0.000976562, -0.00292969, 0.287109, -9.77539, 1.18.2022 21:0:36.476
1022, 1.77106, 0.161797, 86.7034, 0, -0.000976562, -0.00195312, -0.0800781, 0.321289, -9.72559, 1.18.2022 21:0:36.484
1023, 1.77106, 0.161797, 86.7034, 0, 0, -0.000976562, 0, 0.294922, -9.74219, 1.18.2022 21:0:36.492
1024, 1.77129, 0.161864, 86.7133, 0, -0.000976562, -0.00195312, -0.0527344, 0.279297, -9.76758, 1.18.2022 21:0:36.500
1025, 1.77129, 0.161864, 86.7133, -0.000976562, -0.000976562, -0.00195312, -0.0566406, 0.314453, -9.72656, 1.18.2022 21:0:36.508
1026, 1.77129, 0.161864, 86.7133, 0, -0.000976562, -0.00195312, 0.0380859, 0.283203, -9.73535, 1.18.2022 21:0:36.516
1027, 1.77129, 0.161864, 86.7133, -0.000976562, -0.000976562, -0.000976562, -0.0478516, 0.300781, -9.75781, 1.18.2022 21:0:36.524
1028, 1.77129, 0.161864, 86.7133, 0, -0.000976562, 0.000976562, -0.0380859, 0.297852, -9.72949, 1.18.2022 21:0:36.532
1029, 1.77129, 0.161864, 86.7133, -0.000976562, -0.000976562, 0.000976562, 0.00585938, 0.285156, -9.7168, 1.18.2022 21:0:36.540
1030, 1.77129, 0.161864, 86.7133, -0.000976562, -0.000976562, -0.000976562, -0.0908203, 0.307617, -9.75195, 1.18.2022 21:0:36.548
1031, 1.77129, 0.161864, 86.7133, 0, -0.000976562, -0.00195312, -0.0380859, 0.30957, -9.74316, 1.18.2022 21:0:36.556
1032, 1.77129, 0.161864, 86.7133, 0, -0.000976562, -0.00195312, -0.0292969, 0.298828, -9.77637, 1.18.2022 21:0:36.564
1033, 1.77129, 0.161864, 86.7133, 0, 0, -0.00195312, -0.0830078, 0.329102, -9.73926, 1.18.2022 21:0:36.572
1034, 1.77129, 0.161864, 86.7133, -0.000976562, -0.000976562, -0.000976562, 0.0361328, 0.311523, -9.71875, 1.18.2022 21:0:36.580
1035, 1.77129, 0.161864, 86.7133, 0, 0, 0.000976562, -0.00488281, 0.293945, -9.76758, 1.18.2022 21:0:36.588
1036, 1.77129, 0.161864, 86.7133, -0.000976562, 0, 0.000976562, -0.0380859, 0.322266, -9.76855, 1.18.2022 21:0:36.596
1037, 1.77129, 0.161864, 86.7133, -0.000976562, -0.000976562, 0.000976562, 0.0234375, 0.276367, -9.75195, 1.18.2022 21:0:36.604
