Seq, Rot x, Rot y, Rot z, Vel x, Vel y, Vel z, Acc x, Acc y, Acc z, Time(m.d.y h:m:s.ms)
0, 1.7935, 0.0399831, 81.482, -0.00195312, 0, 0, -0.0234375, 0.335938, -9.73828, 1.18.2022 20:48:31.562
1, 1.7935, 0.0399831, 81.482, -0.00195312, 0, 0, 0.0126953, 0.294922, -9.72559, 1.18.2022 20:48:31.566
2, 1.7935, 0.0399831, 81.482, -0.00195312, 0, 0, -0.0449219, 0.326172, -9.7334, 1.18.2022 20:48:31.574
3, 1.7935, 0.0399831, 81.482, -0.000976562, 0, 0.000976562, 0.00683594, 0.303711, -9.77441, 1.18.2022 20:48:31.582
4, 1.7935, 0.0399831, 81.482, -0.000976562, 0, 0, -0.00683594, 0.304688, -9.72461, 1.18.2022 20:48:31.590
5, 1.7935, 0.0399831, 81.482, -0.000976562, 0.000976562, 0, 0.00488281, 0.335938, -9.72949, 1.18.2022 20:48:31.598
6, 1.7935, 0.0399831, 81.482, -0.000976562, -0.000976562, 0, 0.0195312, 0.296875, -9.72559, 1.18.2022 20:48:31.606
7, 1.7935, 0.0399831, 81.482, -0.000976562, -0.000976562, 0, -0.046875, 0.299805, -9.73145, 1.18.2022 20:48:31.614
8, 1.7935, 0.0399831, 81.482, -0.000976562, 0, 0, -0.00488281, 0.317383, -9.75781, 1.18.2022 20:48:31.622
9, 1.7935, 0.0399831, 81.482, -0.000976562, 0, 0, 0.0410156, 0.303711, -9.71875, 1.18.2022 20:48:31.630
10, 1.7935, 0.0399831, 81.482, -0.000976562, -0.000976562, 0, -0.0527344, 0.333984, -9.74902, 1.18.2022 20:48:31.638
11, 1.7935, 0.0399831, 81.482, -0.000976562, -0.000976562, 0, 0.0283203, 0.307617, -9.74902, 1.18.2022 20:48:31.646
12, 1.7988, 0.0445469, 81.4818, -0.00195312, -0.000976562, 0, -0.00976562, 0.299805, -9.74414, 1.18.2022 20:48:31.654
13, 1.7988, 0.0445469, 81.4818, 0, -0.000976562, 0, -0.0332031, 0.310547, -9.75293, 1.18.2022 20:48:31.662
14, 1.7988, 0.0445469, 81.4818, 0, 0, 0, 0.0576172, 0.302734, -9.75, 1.18.2022 20:48:31.670
15, 1.7935, 0.0399831, 81.482, -0.000976562, 0, 0, -0.0234375, 0.314453, -9.74609, 1.18.2022 20:48:31.678
16, 1.7935, 0.0399831, 81.482, -0.000976562, -0.000976562, 0, -0.0166016, 0.328125, -9.7334, 1.18.2022 20:48:31.686
17, 1.7988, 0.0445469, 81.4818, 0, -0.00195312, -0.00195312, 0.0146484, 0.31543, -9.71094, 1.18.2022 20:48:31.694
18, 1.7988, 0.0445469, 81.4818, 0, -0.000976562, -0.00195312, -0.0664062, 0.30957, -9.74316, 1.18.2022 20:48:31.702
19, 1.7935, 0.0399831, 81.482, -0.000976562, 0, -0.00195312, -0.00292969, 0.305664, -9.76562, 1.18.2022 20:48:31.710
20, 1.7988, 0.0445469, 81.4818, -0.000976562, -0.000976562, -0.00195312, 0.0244141, 0.299805, -9.72754, 1.18.2022 20:48:31.718
21, 1.7988, 0.0445469, 81.4818, -0.000976562, -0.000976562, 0, -0.046875, 0.298828, -9.70312, 1.18.2022 20:48:31.726
22, 1.7988, 0.0445469, 81.4818, 0, -0.000976562, 0, 0.0380859, 0.273438, -9.73828, 1.18.2022 20:48:31.734
23, 1.79423, 0.0498454, 81.4818, -0.000976562, -0.000976562, 0, -0.0214844, 0.30957, -9.73633, 1.18.2022 20:48:31.742
24, 1.79423, 0.0498454, 81.4818, 0, -0.000976562, 0, -0.0292969, 0.31543, -9.78613, 1.18.2022 20:48:31.750
25, 1.79423, 0.0498454, 81.4818, -0.00195312, 0, 0, 0.0214844, 0.27832, -9.7334, 1.18.2022 20:48:31.758
26, 1.79423, 0.0498454, 81.4818, 0, 0, 0, -0.0546875, 0.317383, -9.74512, 1.18.2022 20:48:31.766
27, 1.79423, 0.0498454, 81.4818, 0, -0.000976562, 0, -0.0214844, 0.316406, -9.74121, 1.18.2022 20:48:31.774
28, 1.79423, 0.0498454, 81.4818, -0.000976562, -0.000976562, 0, 0.00683594, 0.272461, -9.79492, 1.18.2022 20:48:31.782
29, 1.79423, 0.0498454, 81.4818, -0.000976562, -0.000976562, 0, -0.0517578, 0.345703, -9.74707, 1.18.2022 20:48:31.790
30, 1.79423, 0.0498454, 81.4818, 0, 0, -0.00195312, 0.0498047, 0.300781, -9.76172, 1.18.2022 20:48:31.798
31, 1.79423, 0.0498454, 81.4818, -0.000976562, 0, 0, -0.00195312, 0.294922, -9.7373, 1.18.2022 20:48:31.806
32, 1.79423, 0.0498454, 81.4818, -0.000976562, -0.000976562, 0, -0.03125, 0.329102, -9.74512, 1.18.2022 20:48:31.814
33, 1.79423, 0.0498454, 81.4818, -0.000976562, 0, 0.000976562, 0.0644531, 0.301758, -9.72656, 1.18.2022 20:48:31.822
34, 1.79423, 0.0498454, 81.4818, -0.000976562, 0, 0, -0.03125, 0.317383, -9.75977, 1.18.2022 20:48:31.830
35, 1.79423, 0.0498454, 81.4818, -0.000976562, 0, 0, -0.0283203, 0.27832, -9.74219, 1.18.2022 20:48:31.838
36, 1.79423, 0.0498454, 81.4818, -0.000976562, -0.000976562, 0, 0.00195312, 0.271484, -9.75488, 1.18.2022 20:48:31.846
37, 1.79423, 0.0498454, 81.4818, -0.000976562, -0.000976562, -0.00195312, -0.0615234, 0.299805, -9.72168, 1.18.2022 20:48:31.854
38, 1.79423, 0.0498454, 81.4818, 0, 0, -0.000976562, 0.0292969, 0.311523, -9.7373, 1.18.2022 20:48:31.862
39, 1.78894, 0.0452816, 81.4819, 0, -0.000976562, -0.00195312, 0.0078125, 0.297852, -9.7373, 1.18.2022 20:48:31.870
40, 1.79448, 0.0499146, 81.4916, -0.000976562, -0.000976562, 0, -0.046875, 0.321289, -9.72852, 1.18.2022 20:48:31.878
41, 1.79448, 0.0499146, 81.4916, -0.000976562, -0.000976562, 0, 0.0429688, 0.283203, -9.74316, 1.18.2022 20:48:31.886
42, 1.79423, 0.0498454, 81.4818, 0, -0.000976562, 0, -0.0214844, 0.305664, -9.75586, 1.18.2022 20:48:31.894
43, 1.78918, 0.0453508, 81.4917, 0, 0, 0, -0.0380859, 0.314453, -9.73145, 1.18.2022 20:48:31.902
44, 1.78897, 0.0454353, 81.4925, -0.000976562, 0.000976562, 0, 0.00976562, 0.299805, -9.72754, 1.18.2022 20:48:31.910
45, 1.78897, 0.0454353, 81.4925, -0.000976562, 0, 0, -0.0546875, 0.306641, -9.73145, 1.18.2022 20:48:31.918
46, 1.78922, 0.0455044, 81.5023, -0.000976562, -0.000976562, -0.00195312, 0.0214844, 0.322266, -9.75098, 1.18.2022 20:48:31.926
47, 1.789, 0.045589, 81.5031, -0.000976562, -0.000976562, -0.00195312, 0.0146484, 0.304688, -9.73438, 1.18.2022 20:48:31.934
48, 1.789, 0.045589, 81.5031, -0.000976562, -0.000976562, 0, -0.046875, 0.314453, -9.7334, 1.18.2022 20:48:31.942
49, 1.789, 0.045589, 81.5031, -0.000976562, -0.000976562, 0, 0.0380859, 0.295898, -9.75684, 1.18.2022 20:48:31.950
50, 1.78903, 0.0457426, 81.5137, -0.000976562, -0.000976562, -0.00195312, -0.0283203, 0.286133, -9.75586, 1.18.2022 20:48:31.958
51, 1.78903, 0.0457426, 81.5137, -0.000976562, -0.000976562, 0, -0.0410156, 0.307617, -9.76465, 1.18.2022 20:48:31.966
52, 1.78903, 0.0457426, 81.5137, -0.000976562, -0.000976562, 0, 0.0390625, 0.275391, -9.72461, 1.18.2022 20:48:31.974
53, 1.79411, 0.0503927, 81.5143, -0.000976562, -0.000976562, 0, -0.0644531, 0.31543, -9.77539, 1.18.2022 20:48:31.982
54, 1.79411, 0.0503927, 81.5143, 0, -0.00195312, 0, 0.000976562, 0.328125, -9.72168, 1.18.2022 20:48:31.990
55, 1.79411, 0.0503927, 81.5143, -0.000976562, -0.000976562, 0, 0.00976562, 0.292969, -9.73535, 1.18.2022 20:48:31.998
56, 1.79411, 0.0503927, 81.5143, 0, -0.000976562, 0.000976562, -0.0576172, 0.321289, -9.80371, 1.18.2022 20:48:32.006
57, 1.79411, 0.0503927, 81.5143, 0, -0.000976562, 0, 0.00976562, 0.292969, -9.73535, 1.18.2022 20:48:32.014
58, 1.79411, 0.0503927, 81.5143, -0.000976562, -0.000976562, 0, -0.0195312, 0.300781, -9.75293, 1.18.2022 20:48:32.022
59, 1.79411, 0.0503927, 81.5143, -0.000976562, -0.000976562, 0, -0.0351562, 0.319336, -9.74512, 1.18.2022 20:48:32.030
60, 1.79411, 0.0503927, 81.5143, -0.000976562, -0.000976562, 0, 0.0390625, 0.290039, -9.71191, 1.18.2022 20:48:32.038
61, 1.79411, 0.0503927, 81.5143, -0.000976562, 0, -0.000976562, -0.0703125, 0.306641, -9.70312, 1.18.2022 20:48:32.044
62, 1.79411, 0.0503927, 81.5143, -0.000976562, -0.000976562, 0, -0.0234375, 0.318359, -9.72168, 1.18.2022 20:48:32.052
63, 1.79411, 0.0503927, 81.5143, -0.000976562, -0.000976562, 0, 0.0195312, 0.311523, -9.73242, 1.18.2022 20:48:32.060
64, 1.79411, 0.0503927, 81.5143, 0, -0.000976562, 0, -0.0566406, 0.306641, -9.7002, 1.18.2022 20:48:32.068
65, 1.79411, 0.0503927, 81.5143, -0.000976562, -0.000976562, 0.000976562, -0.00683594, 0.292969, -9.73926, 1.18.2022 20:48:32.078
66, 1.79433, 0.0503078, 81.5135, 0, 0, 0.000976562, -0.0234375, 0.333984, -9.75, 1.18.2022 20:48:32.084
67, 1.79433, 0.0503078, 81.5135, -0.000976562, -0.000976562, 0, -0.0810547, 0.314453, -9.74023, 1.18.2022 20:48:32.092
68, 1.79433, 0.0503078, 81.5135, 0, -0.000976562, 0, 0.0478516, 0.290039, -9.72852, 1.18.2022 20:48:32.100
69, 1.79433, 0.0503078, 81.5135, 0, 0, 0.000976562, -0.0302734, 0.306641, -9.72656, 1.18.2022 20:48:32.108
70, 1.79433, 0.0503078, 81.5135, 0, -0.000976562, 0, -0.0185547, 0.30957, -9.73145, 1.18.2022 20:48:32.116
71, 1.78903, 0.0457426, 81.5137, -0.000976562, 0, 0, 0.0234375, 0.286133, -9.7666, 1.18.2022 20:48:32.124
72, 1.78903, 0.0457426, 81.5137, -0.000976562, 0, 0, -0.0615234, 0.305664, -9.75, 1.18.2022 20:48:32.132
73, 1.78903, 0.0457426, 81.5137, -0.000976562, 0, 0, -0.0146484, 0.288086, -9.75391, 1.18.2022 20:48:32.140
74, 1.78903, 0.0457426, 81.5137, -0.000976562, 0, 0, 0.0214844, 0.28418, -9.77051, 1.18.2022 20:48:32.148
75, 1.78903, 0.0457426, 81.5137, -0.000976562, 0, 0, -0.0449219, 0.298828, -9.70996, 1.18.2022 20:48:32.156
76, 1.78903, 0.0457426, 81.5137, -0.000976562, 0, 0, 0.03125, 0.275391, -9.7168, 1.18.2022 20:48:32.164
77, 1.78903, 0.0457426, 81.5137, -0.000976562, -0.000976562, 0, -0.0517578, 0.290039, -9.73633, 1.18.2022 20:48:32.172
78, 1.78903, 0.0457426, 81.5137, -0.000976562, 0, 0, -0.00878906, 0.306641, -9.71289, 1.18.2022 20:48:32.180
79, 1.78903, 0.0457426, 81.5137, -0.000976562, -0.00195312, 0, 0.0332031, 0.28125, -9.74023, 1.18.2022 20:48:32.188
80, 1.79436, 0.0504619, 81.5241, -0.000976562, -0.000976562, 0, -0.0449219, 0.301758, -9.71973, 1.18.2022 20:48:32.196
81, 1.79436, 0.0504619, 81.5241, -0.000976562, -0.000976562, 0, 0.000976562, 0.294922, -9.7207, 1.18.2022 20:48:32.204
82, 1.79436, 0.0504619, 81.5241, 0, -0.000976562, 0, 0.00976562, 0.280273, -9.7168, 1.18.2022 20:48:32.212
83, 1.79436, 0.0504619, 81.5241, -0.000976562, -0.000976562, -0.000976562, -0.0664062, 0.323242, -9.71191, 1.18.2022 20:48:32.220
84, 1.79436, 0.0504619, 81.5241, -0.000976562, 0, 0, 0.0292969, 0.320312, -9.70605, 1.18.2022 20:48:32.228
85, 1.79414, 0.0505468, 81.5249, -0.00195312, -0.000976562, 0, 0.00292969, 0.302734, -9.74414, 1.18.2022 20:48:32.236
86, 1.79439, 0.050616, 81.5347, -0.000976562, -0.000976562, 0.000976562, -0.0498047, 0.302734, -9.74805, 1.18.2022 20:48:32.244
87, 1.79439, 0.050616, 81.5347, 0, 0, 0, 0.0351562, 0.302734, -9.76562, 1.18.2022 20:48:32.252
88, 1.79439, 0.050616, 81.5347, -0.000976562, 0, 0.000976562, -0.0712891, 0.322266, -9.75684, 1.18.2022 20:48:32.260
89, 1.79439, 0.050616, 81.5347, 0, -0.000976562, 0, -0.0185547, 0.314453, -9.73828, 1.18.2022 20:48:32.268
90, 1.78909, 0.04605, 81.5349, 0, -0.000976562, 0, 0.0410156, 0.290039, -9.71875, 1.18.2022 20:48:32.276
91, 1.78909, 0.04605, 81.5349, -0.000976562, -0.000976562, 0, -0.0634766, 0.321289, -9.73047, 1.18.2022 20:48:32.284
92, 1.79439, 0.050616, 81.5347, -0.000976562, -0.000976562, -0.000976562, 0, 0.289062, -9.77246, 1.18.2022 20:48:32.292
93, 1.79439, 0.050616, 81.5347, -0.000976562, 0, 0, 0.0078125, 0.299805, -9.73926, 1.18.2022 20:48:32.300
94, 1.78909, 0.04605, 81.5349, -0.000976562, 0, 0, -0.0400391, 0.319336, -9.75, 1.18.2022 20:48:32.308
95, 1.78909, 0.04605, 81.5349, -0.000976562, -0.000976562, 0, 0.0644531, 0.285156, -9.72656, 1.18.2022 20:48:32.316
96, 1.79439, 0.050616, 81.5347, -0.000976562, -0.000976562, 0, -0.03125, 0.293945, -9.76953, 1.18.2022 20:48:32.324
97, 1.79439, 0.050616, 81.5347, 0, -0.000976562, -0.000976562, -0.0234375, 0.305664, -9.75781, 1.18.2022 20:48:32.332
98, 1.79439, 0.050616, 81.5347, -0.000976562, -0.000976562, -0.000976562, 0.0283203, 0.293945, -9.78027, 1.18.2022 20:48:32.340
99, 1.79439, 0.050616, 81.5347, -0.000976562, -0.000976562, -0.00195312, -0.0595703, 0.314453, -9.7334, 1.18.2022 20:48:32.348
100, 1.79417, 0.0507009, 81.5355, 0, -0.00195312, -0.000976562, 0.0224609, 0.301758, -9.71387, 1.18.2022 20:48:32.356
101, 1.79439, 0.050616, 81.5347, 0, -0.000976562, 0, 0.0166016, 0.286133, -9.74512, 1.18.2022 20:48:32.364
102, 1.79439, 0.050616, 81.5347, -0.000976562, 0, -0.000976562, -0.0537109, 0.316406, -9.70996, 1.18.2022 20:48:32.372
103, 1.79439, 0.050616, 81.5347, -0.000976562, 0, 0.000976562, 0.0429688, 0.292969, -9.74023, 1.18.2022 20:48:32.380
104, 1.79439, 0.050616, 81.5347, 0, -0.000976562, -0.000976562, -0.0400391, 0.307617, -9.74609, 1.18.2022 20:48:32.388
105, 1.79439, 0.050616, 81.5347, -0.000976562, 0, -0.000976562, -0.0361328, 0.3125, -9.75293, 1.18.2022 20:48:32.396
106, 1.79439, 0.050616, 81.5347, -0.000976562, 0, -0.000976562, 0.0527344, 0.296875, -9.72656, 1.18.2022 20:48:32.404
107, 1.78909, 0.04605, 81.5349, -0.000976562, 0, -0.000976562, -0.0634766, 0.313477, -9.70703, 1.18.2022 20:48:32.412
108, 1.79439, 0.050616, 81.5347, -0.000976562, -0.000976562, 0.000976562, -0.0234375, 0.329102, -9.74805, 1.18.2022 20:48:32.420
109, 1.79439, 0.050616, 81.5347, -0.00195312, 0, 0.000976562, 0.0195312, 0.290039, -9.72363, 1.18.2022 20:48:32.428
110, 1.79439, 0.050616, 81.5347, -0.000976562, -0.000976562, -0.000976562, -0.0576172, 0.310547, -9.75684, 1.18.2022 20:48:32.436
111, 1.79439, 0.050616, 81.5347, -0.000976562, -0.000976562, -0.00195312, 0.0625, 0.313477, -9.70898, 1.18.2022 20:48:32.444
112, 1.79439, 0.050616, 81.5347, -0.000976562, -0.00195312, -0.000976562, 0.0126953, 0.295898, -9.68262, 1.18.2022 20:48:32.452
113, 1.79439, 0.050616, 81.5347, -0.000976562, -0.000976562, 0.000976562, -0.0332031, 0.316406, -9.74121, 1.18.2022 20:48:32.460
114, 1.79439, 0.050616, 81.5347, -0.000976562, -0.000976562, -0.00195312, 0.0449219, 0.287109, -9.78027, 1.18.2022 20:48:32.468
115, 1.79439, 0.050616, 81.5347, -0.000976562, 0, -0.000976562, -0.0429688, 0.292969, -9.75293, 1.18.2022 20:48:32.476
116, 1.79439, 0.050616, 81.5347, 0, 0, -0.000976562, -0.00195312, 0.294922, -9.73047, 1.18.2022 20:48:32.484
117, 1.79439, 0.050616, 81.5347, -0.000976562, 0, -0.000976562, 0.0263672, 0.264648, -9.75781, 1.18.2022 20:48:32.492
118, 1.79439, 0.050616, 81.5347, -0.000976562, 0, 0.000976562, -0.0683594, 0.323242, -9.72559, 1.18.2022 20:48:32.500
119, 1.79439, 0.050616, 81.5347, -0.000976562, -0.000976562, -0.000976562, 0.0234375, 0.305664, -9.78418, 1.18.2022 20:48:32.508
120, 1.79439, 0.050616, 81.5347, 0, -0.000976562, -0.000976562, 0.0166016, 0.276367, -9.74512, 1.18.2022 20:48:32.516
121, 1.79439, 0.050616, 81.5347, 0, -0.000976562, -0.000976562, -0.0322266, 0.310547, -9.68945, 1.18.2022 20:48:32.524
122, 1.79439, 0.050616, 81.5347, -0.000976562, 0, -0.000976562, 0.0361328, 0.280273, -9.72363, 1.18.2022 20:48:32.532
123, 1.79439, 0.050616, 81.5347, -0.000976562, 0, -0.000976562, -0.0449219, 0.294922, -9.72949, 1.18.2022 20:48:32.540
124, 1.79439, 0.050616, 81.5347, -0.000976562, 0, -0.000976562, -0.00878906, 0.299805, -9.7373, 1.18.2022 20:48:32.548
125, 1.79439, 0.050616, 81.5347, -0.00195312, -0.000976562, -0.000976562, 0.0224609, 0.280273, -9.71484, 1.18.2022 20:48:32.556
126, 1.79439, 0.050616, 81.5347, -0.000976562, 0, -0.000976562, -0.0351562, 0.291992, -9.72266, 1.18.2022 20:48:32.564
127, 1.79439, 0.050616, 81.5347, -0.000976562, 0, -0.000976562, 0.00292969, 0.323242, -9.71289, 1.18.2022 20:48:32.572
128, 1.79439, 0.050616, 81.5347, -0.000976562, 0, -0.00195312, 0, 0.288086, -9.74707, 1.18.2022 20:48:32.580
129, 1.79417, 0.0507009, 81.5355, 0, -0.000976562, -0.000976562, -0.0615234, 0.304688, -9.73633, 1.18.2022 20:48:32.588
130, 1.78887, 0.0461345, 81.5357, 0, 0, -0.000976562, 0.0292969, 0.298828, -9.71387, 1.18.2022 20:48:32.596
131, 1.78887, 0.0461345, 81.5357, -0.000976562, 0, -0.000976562, -0.00878906, 0.321289, -9.72949, 1.18.2022 20:48:32.604
132, 1.78912, 0.0462037, 81.5455, -0.000976562, 0, -0.00195312, -0.0166016, 0.332031, -9.75684, 1.18.2022 20:48:32.612
133, 1.78912, 0.0462037, 81.5455, -0.000976562, 0, -0.00195312, 0.0722656, 0.291992, -9.7168, 1.18.2022 20:48:32.620
134, 1.78912, 0.0462037, 81.5455, 0, 0, -0.000976562, -0.0332031, 0.300781, -9.75977, 1.18.2022 20:48:32.628
135, 1.78912, 0.0462037, 81.5455, 0, -0.000976562, 0, -0.0117188, 0.304688, -9.73633, 1.18.2022 20:48:32.636
136, 1.7889, 0.0462882, 81.5462, -0.000976562, 0, -0.000976562, 0.0361328, 0.283203, -9.72656, 1.18.2022 20:48:32.644
137, 1.7889, 0.0462882, 81.5462, -0.000976562, -0.000976562, -0.000976562, -0.0683594, 0.311523, -9.71484, 1.18.2022 20:48:32.652
138, 1.7889, 0.0462882, 81.5462, -0.000976562, 0, -0.000976562, 0.0292969, 0.27832, -9.73535, 1.18.2022 20:48:32.660
139, 1.7889, 0.0462882, 81.5462, -0.000976562, -0.000976562, -0.00195312, 0.0078125, 0.291992, -9.71875, 1.18.2022 20:48:32.668
140, 1.7889, 0.0462882, 81.5462, -0.000976562, -0.000976562, -0.000976562, -0.0371094, 0.322266, -9.68359, 1.18.2022 20:48:32.676
141, 1.7889, 0.0462882, 81.5462, 0, 0, -0.000976562, 0.0429688, 0.301758, -9.73535, 1.18.2022 20:48:32.684
142, 1.7889, 0.0462882, 81.5462, 0, 0, -0.000976562, -0.0136719, 0.301758, -9.71289, 1.18.2022 20:48:32.692
143, 1.7889, 0.0462882, 81.5462, 0, -0.000976562, -0.000976562, -0.00878906, 0.299805, -9.72949, 1.18.2022 20:48:32.700
144, 1.7889, 0.0462882, 81.5462, 0, -0.000976562, 0, 0.0195312, 0.311523, -9.72949, 1.18.2022 20:48:32.708
145, 1.7889, 0.0462882, 81.5462, -0.000976562, 0, -0.000976562, -0.0712891, 0.307617, -9.74512, 1.18.2022 20:48:32.716
146, 1.7889, 0.0462882, 81.5462, -0.000976562, -0.000976562, 0.000976562, 0.03125, 0.317383, -9.75391, 1.18.2022 20:48:32.724
147, 1.7889, 0.0462882, 81.5462, -0.000976562, 0, -0.000976562, -0.0117188, 0.262695, -9.7666, 1.18.2022 20:48:32.732
148, 1.7889, 0.0462882, 81.5462, -0.000976562, 0, -0.00195312, -0.0712891, 0.324219, -9.72852, 1.18.2022 20:48:32.740
149, 1.7889, 0.0462882, 81.5462, -0.000976562, -0.000976562, -0.000976562, 0.046875, 0.289062, -9.78027, 1.18.2022 20:48:32.748
150, 1.7889, 0.0462882, 81.5462, -0.000976562, -0.000976562, -0.000976562, -0.0302734, 0.311523, -9.72656, 1.18.2022 20:48:32.756
151, 1.7889, 0.0462882, 81.5462, -0.000976562, -0.000976562, -0.000976562, -0.0146484, 0.325195, -9.77148, 1.18.2022 20:48:32.764
152, 1.7889, 0.0462882, 81.5462, -0.000976562, 0, -0.000976562, 0.0361328, 0.282227, -9.71484, 1.18.2022 20:48:32.772
153, 1.7889, 0.0462882, 81.5462, 0, 0, -0.000976562, -0.0576172, 0.296875, -9.77441, 1.18.2022 20:48:32.780
154, 1.7889, 0.0462882, 81.5462, -0.000976562, -0.000976562, -0.000976562, -0.0078125, 0.280273, -9.78516, 1.18.2022 20:48:32.788
155, 1.7889, 0.0462882, 81.5462, -0.000976562, -0.000976562, -0.000976562, 0.00292969, 0.294922, -9.71875, 1.18.2022 20:48:32.796
156, 1.7889, 0.0462882, 81.5462, -0.000976562, 0, -0.000976562, -0.078125, 0.338867, -9.74609, 1.18.2022 20:48:32.804
157, 1.7889, 0.0462882, 81.5462, -0.000976562, -0.000976562, -0.000976562, 0.0244141, 0.289062, -9.7002, 1.18.2022 20:48:32.812
158, 1.7889, 0.0462882, 81.5462, -0.000976562, -0.000976562, -0.000976562, -0.0253906, 0.292969, -9.72949, 1.18.2022 20:48:32.820
159, 1.7889, 0.0462882, 81.5462, 0, -0.000976562, -0.000976562, -0.00878906, 0.289062, -9.69922, 1.18.2022 20:48:32.828
160, 1.7889, 0.0462882, 81.5462, -0.000976562, -0.000976562, -0.00195312, 0.0527344, 0.283203, -9.72656, 1.18.2022 20:48:32.836
161, 1.7889, 0.0462882, 81.5462, 0, 0, 0, -0.0322266, 0.316406, -9.71484, 1.18.2022 20:48:32.844
162, 1.7889, 0.0462882, 81.5462, 0, -0.000976562, 0, 0.00976562, 0.324219, -9.73438, 1.18.2022 20:48:32.852
163, 1.7889, 0.0462882, 81.5462, -0.000976562, -0.000976562, 0, 0.0175781, 0.289062, -9.70703, 1.18.2022 20:48:32.860
164, 1.7889, 0.0462882, 81.5462, -0.000976562, 0, 0.000976562, -0.0449219, 0.344727, -9.72363, 1.18.2022 20:48:32.868
165, 1.7889, 0.0462882, 81.5462, 0, -0.000976562, 0, 0.03125, 0.318359, -9.7207, 1.18.2022 20:48:32.876
166, 1.7889, 0.0462882, 81.5462, -0.000976562, -0.000976562, 0, 0, 0.311523, -9.73926, 1.18.2022 20:48:32.884
167, 1.7889, 0.0462882, 81.5462, 0, -0.000976562, 0, -0.0527344, 0.331055, -9.74707, 1.18.2022 20:48:32.892
168, 1.7889, 0.0462882, 81.5462, 0, -0.000976562, 0, 0.0429688, 0.294922, -9.74707, 1.18.2022 20:48:32.900
169, 1.7889, 0.0462882, 81.5462, 0, -0.000976562, 0, -0.0488281, 0.308594, -9.69141, 1.18.2022 20:48:32.908
170, 1.7889, 0.0462882, 81.5462, 0, -0.000976562, 0, 0.0126953, 0.318359, -9.70605, 1.18.2022 20:48:32.916
171, 1.7889, 0.0462882, 81.5462, -0.000976562, -0.000976562, 0, 0.0195312, 0.290039, -9.71191, 1.18.2022 20:48:32.924
172, 1.7889, 0.0462882, 81.5462, 0, -0.000976562, 0, -0.0615234, 0.333984, -9.75879, 1.18.2022 20:48:32.932
173, 1.7889, 0.0462882, 81.5462, 0, 0, 0, -0.00683594, 0.306641, -9.71094, 1.18.2022 20:48:32.940
174, 1.7889, 0.0462882, 81.5462, -0.000976562, 0, 0, -0.00683594, 0.302734, -9.75098, 1.18.2022 20:48:32.948
175, 1.7889, 0.0462882, 81.5462, -0.000976562, 0, 0, -0.0380859, 0.316406, -9.72852, 1.18.2022 20:48:32.956
176, 1.7889, 0.0462882, 81.5462, 0, -0.000976562, -0.00195312, 0.0605469, 0.289062, -9.69629, 1.18.2022 20:48:32.964
177, 1.7889, 0.0462882, 81.5462, 0, -0.000976562, 0, -0.0302734, 0.316406, -9.73145, 1.18.2022 20:48:32.972
178, 1.7889, 0.0462882, 81.5462, -0.000976562, 0, 0, -0.0292969, 0.306641, -9.7959, 1.18.2022 20:48:32.980
179, 1.7889, 0.0462882, 81.5462, -0.000976562, 0, 0, 0.0380859, 0.259766, -9.75488, 1.18.2022 20:48:32.988
180, 1.7889, 0.0462882, 81.5462, -0.000976562, 0, 0, -0.0498047, 0.324219, -9.7334, 1.18.2022 20:48:32.996
181, 1.7889, 0.0462882, 81.5462, -0.000976562, 0, 0.000976562, 0.00195312, 0.305664, -9.76758, 1.18.2022 20:48:33.004
182, 1.7889, 0.0462882, 81.5462, -0.000976562, 0, 0.000976562, 0.0185547, 0.293945, -9.77539, 1.18.2022 20:48:33.012
183, 1.7889, 0.0462882, 81.5462, -0.000976562, 0, 0.000976562, -0.0664062, 0.308594, -9.71484, 1.18.2022 20:48:33.018
184, 1.7889, 0.0462882, 81.5462, 0, -0.000976562, 0, 0.0283203, 0.319336, -9.76074, 1.18.2022 20:48:33.028
185, 1.7889, 0.0462882, 81.5462, 0, 0, 0, -0.0263672, 0.294922, -9.73633, 1.18.2022 20:48:33.034
186, 1.7889, 0.0462882, 81.5462, -0.000976562, -0.000976562, 0, -0.0332031, 0.307617, -9.75977, 1.18.2022 20:48:33.042
187, 1.7889, 0.0462882, 81.5462, 0, -0.000976562, 0.000976562, 0.0214844, 0.283203, -9.73828, 1.18.2022 20:48:33.050
188, 1.78912, 0.0462037, 81.5455, 0, -0.000976562, 0, -0.0810547, 0.307617, -9.74023, 1.18.2022 20:48:33.058
189, 1.78912, 0.0462037, 81.5455, -0.000976562, -0.000976562, 0, -0.0185547, 0.288086, -9.74609, 1.18.2022 20:48:33.066
190, 1.78912, 0.0462037, 81.5455, -0.00195312, 0, 0, 0.0166016, 0.302734, -9.75879, 1.18.2022 20:48:33.074
191, 1.7889, 0.0462882, 81.5462, -0.00195312, 0, -0.000976562, -0.0644531, 0.322266, -9.75195, 1.18.2022 20:48:33.082
192, 1.7889, 0.0462882, 81.5462, -0.000976562, 0, -0.00195312, 0.0478516, 0.280273, -9.73633, 1.18.2022 20:48:33.090
193, 1.7889, 0.0462882, 81.5462, 0, 0, 0.000976562, 0.0195312, 0.292969, -9.73047, 1.18.2022 20:48:33.098
194, 1.7889, 0.0462882, 81.5462, 0, 0, -0.000976562, -0.0566406, 0.30957, -9.73145, 1.18.2022 20:48:33.106
195, 1.7889, 0.0462882, 81.5462, 0, -0.000976562, -0.000976562, 0.0527344, 0.275391, -9.72461, 1.18.2022 20:48:33.114
196, 1.7889, 0.0462882, 81.5462, -0.000976562, -0.000976562, -0.000976562, -0.0380859, 0.299805, -9.73926, 1.18.2022 20:48:33.122
197, 1.7889, 0.0462882, 81.5462, -0.000976562, 0, -0.000976562, -0.0205078, 0.325195, -9.70508, 1.18.2022 20:48:33.130
198, 1.7889, 0.0462882, 81.5462, -0.000976562, -0.000976562, -0.000976562, 0.0136719, 0.291016, -9.77051, 1.18.2022 20:48:33.138
199, 1.7889, 0.0462882, 81.5462, -0.000976562, -0.000976562, -0.000976562, -0.0712891, 0.311523, -9.7168, 1.18.2022 20:48:33.146
200, 1.7889, 0.0462882, 81.5462, 0, -0.000976562, -0.000976562, 0.0263672, 0.292969, -9.73047, 1.18.2022 20:48:33.154
201, 1.7889, 0.0462882, 81.5462, -0.000976562, 0, 0.000976562, -0.0117188, 0.319336, -9.72949, 1.18.2022 20:48:33.162
202, 1.7889, 0.0462882, 81.5462, -0.000976562, -0.000976562, -0.000976562, -0.0566406, 0.316406, -9.72852, 1.18.2022 20:48:33.170
203, 1.78912, 0.0462037, 81.5455, 0, 0, 0.000976562, 0.0458984, 0.302734, -9.7373, 1.18.2022 20:48:33.178
204, 1.78912, 0.0462037, 81.5455, 0, -0.000976562, -0.000976562, -0.0214844, 0.316406, -9.73438, 1.18.2022 20:48:33.186
205, 1.78912, 0.0462037, 81.5455, -0.000976562, -0.000976562, -0.000976562, -0.0380859, 0.3125, -9.76953, 1.18.2022 20:48:33.194
206, 1.78912, 0.0462037, 81.5455, -0.000976562, -0.000976562, -0.000976562, 0.0351562, 0.291016, -9.76855, 1.18.2022 20:48:33.202
207, 1.78912, 0.0462037, 81.5455, -0.000976562, -0.000976562, -0.000976562, -0.0878906, 0.324219, -9.73047, 1.18.2022 20:48:33.210
208, 1.78912, 0.0462037, 81.5455, -0.000976562, 0, -0.000976562, 0.0351562, 0.327148, -9.77441, 1.18.2022 20:48:33.218
209, 1.7889, 0.0462882, 81.5462, -0.000976562, 0, -0.000976562, 0.0166016, 0.271484, -9.75, 1.18.2022 20:48:33.226
210, 1.7889, 0.0462882, 81.5462, 0, 0, -0.000976562, -0.0546875, 0.342773, -9.72363, 1.18.2022 20:48:33.234
211, 1.7889, 0.0462882, 81.5462, 0, 0, -0.000976562, 0.0400391, 0.297852, -9.76367, 1.18.2022 20:48:33.242
212, 1.7889, 0.0462882, 81.5462, -0.000976562, 0, -0.00195312, -0.0380859, 0.319336, -9.7334, 1.18.2022 20:48:33.250
213, 1.7889, 0.0462882, 81.5462, -0.000976562, 0, -0.000976562, -0.03125, 0.317383, -9.75781, 1.18.2022 20:48:33.258
214, 1.7889, 0.0462882, 81.5462, -0.000976562, 0, 0.000976562, 0.0556641, 0.306641, -9.73535, 1.18.2022 20:48:33.266
215, 1.7889, 0.0462882, 81.5462, -0.000976562, -0.000976562, -0.000976562, -0.0273438, 0.318359, -9.70996, 1.18.2022 20:48:33.274
216, 1.7889, 0.0462882, 81.5462, -0.000976562, -0.000976562, -0.000976562, -0.0283203, 0.307617, -9.75293, 1.18.2022 20:48:33.282
217, 1.7889, 0.0462882, 81.5462, 0, 0, -0.000976562, 0.0332031, 0.291016, -9.76172, 1.18.2022 20:48:33.290
218, 1.7889, 0.0462882, 81.5462, -0.000976562, -0.000976562, -0.000976562, -0.0644531, 0.34082, -9.75098, 1.18.2022 20:48:33.298
219, 1.7889, 0.0462882, 81.5462, -0.000976562, 0, -0.000976562, 0.0527344, 0.302734, -9.74707, 1.18.2022 20:48:33.306
220, 1.7889, 0.0462882, 81.5462, 0, -0.000976562, -0.000976562, 0.00488281, 0.302734, -9.74902, 1.18.2022 20:48:33.314
221, 1.7889, 0.0462882, 81.5462, -0.000976562, -0.000976562, -0.000976562, -0.0361328, 0.306641, -9.7832, 1.18.2022 20:48:33.322
222, 1.7889, 0.0462882, 81.5462, -0.000976562, -0.000976562, -0.000976562, 0.0644531, 0.300781, -9.75977, 1.18.2022 20:48:33.330
223, 1.7889, 0.0462882, 81.5462, -0.000976562, -0.000976562, -0.000976562, -0.00488281, 0.30957, -9.74902, 1.18.2022 20:48:33.338
224, 1.7889, 0.0462882, 81.5462, -0.000976562, 0, -0.000976562, -0.0263672, 0.336914, -9.76367, 1.18.2022 20:48:33.346
225, 1.7889, 0.0462882, 81.5462, -0.000976562, 0, -0.00195312, 0.0166016, 0.291016, -9.77344, 1.18.2022 20:48:33.354
226, 1.7889, 0.0462882, 81.5462, 0, -0.000976562, -0.000976562, -0.0693359, 0.327148, -9.75391, 1.18.2022 20:48:33.362
227, 1.7889, 0.0462882, 81.5462, 0, -0.000976562, -0.000976562, 0.0185547, 0.3125, -9.76074, 1.18.2022 20:48:33.370
228, 1.7889, 0.0462882, 81.5462, -0.000976562, -0.000976562, -0.000976562, 0.0195312, 0.292969, -9.73242, 1.18.2022 20:48:33.378
229, 1.7889, 0.0462882, 81.5462, -0.000976562, -0.000976562, -0.00195312, -0.046875, 0.333008, -9.72168, 1.18.2022 20:48:33.386
230, 1.7889, 0.0462882, 81.5462, 0, -0.000976562, -0.00195312, 0.0498047, 0.264648, -9.75586, 1.18.2022 20:48:33.394
231, 1.7889, 0.0462882, 81.5462, 0, 0.000976562, -0.00195312, -0.0185547, 0.300781, -9.75098, 1.18.2022 20:48:33.402
232, 1.7889, 0.0462882, 81.5462, -0.000976562, 0, -0.000976562, -0.0283203, 0.319336, -9.72949, 1.18.2022 20:48:33.410
233, 1.7889, 0.0462882, 81.5462, 0, -0.000976562, -0.00195312, 0.0166016, 0.311523, -9.73438, 1.18.2022 20:48:33.418
234, 1.7889, 0.0462882, 81.5462, 0, -0.000976562, -0.000976562, -0.0644531, 0.333984, -9.76367, 1.18.2022 20:48:33.426
235, 1.7889, 0.0462882, 81.5462, 0, 0, -0.000976562, -0.0117188, 0.30957, -9.74414, 1.18.2022 20:48:33.434
236, 1.7889, 0.0462882, 81.5462, 0, 0, -0.000976562, 0.00683594, 0.297852, -9.76074, 1.18.2022 20:48:33.442
237, 1.7889, 0.0462882, 81.5462, -0.000976562, 0, -0.000976562, -0.0419922, 0.342773, -9.71387, 1.18.2022 20:48:33.450
238, 1.78912, 0.0462037, 81.5455, -0.000976562, -0.000976562, -0.000976562, 0.0429688, 0.294922, -9.72852, 1.18.2022 20:48:33.458
239, 1.78912, 0.0462037, 81.5455, -0.000976562, -0.000976562, -0.000976562, 0.0136719, 0.279297, -9.76855, 1.18.2022 20:48:33.466
240, 1.78912, 0.0462037, 81.5455, -0.000976562, 0, -0.000976562, -0.0214844, 0.322266, -9.75781, 1.18.2022 20:48:33.474
241, 1.78887, 0.0461345, 81.5357, 0, -0.000976562, -0.000976562, 0.0332031, 0.300781, -9.77344, 1.18.2022 20:48:33.482
242, 1.78887, 0.0461345, 81.5357, -0.000976562, -0.000976562, -0.000976562, -0.0380859, 0.307617, -9.75781, 1.18.2022 20:48:33.490
243, 1.78887, 0.0461345, 81.5357, -0.000976562, 0, -0.000976562, -0.0136719, 0.291016, -9.68945, 1.18.2022 20:48:33.498
244, 1.78909, 0.04605, 81.5349, 0, 0, -0.000976562, 0.0146484, 0.313477, -9.71289, 1.18.2022 20:48:33.506
245, 1.78909, 0.04605, 81.5349, -0.000976562, 0, -0.000976562, -0.0595703, 0.333008, -9.72852, 1.18.2022 20:48:33.514
246, 1.78909, 0.04605, 81.5349, -0.000976562, 0, -0.000976562, 0, 0.310547, -9.76465, 1.18.2022 20:48:33.522
247, 1.78909, 0.04605, 81.5349, -0.000976562, 0, -0.000976562, 0.0117188, 0.302734, -9.74414, 1.18.2022 20:48:33.530
248, 1.78909, 0.04605, 81.5349, -0.000976562, -0.000976562, -0.000976562, -0.0351562, 0.326172, -9.73535, 1.18.2022 20:48:33.538
249, 1.78909, 0.04605, 81.5349, -0.000976562, -0.000976562, -0.00195312, 0.0283203, 0.295898, -9.76562, 1.18.2022 20:48:33.546
250, 1.78887, 0.0461345, 81.5357, 0, 0, -0.00195312, -0.0400391, 0.308594, -9.70801, 1.18.2022 20:48:33.554
251, 1.78887, 0.0461345, 81.5357, -0.000976562, 0, -0.000976562, 0.00488281, 0.338867, -9.76953, 1.18.2022 20:48:33.562
252, 1.79344, 0.0408381, 81.5357, -0.000976562, 0, -0.000976562, 0.0078125, 0.256836, -9.73828, 1.18.2022 20:48:33.570
253, 1.79344, 0.0408381, 81.5357, -0.000976562, 0, -0.000976562, -0.0546875, 0.304688, -9.71973, 1.18.2022 20:48:33.578
254, 1.79344, 0.0408381, 81.5357, -0.000976562, 0, -0.000976562, 0, 0.30957, -9.7373, 1.18.2022 20:48:33.586
255, 1.79344, 0.0408381, 81.5357, -0.000976562, -0.000976562, -0.000976562, -0.0205078, 0.27832, -9.81055, 1.18.2022 20:48:33.594
256, 1.79344, 0.0408381, 81.5357, -0.000976562, 0, -0.000976562, -0.0615234, 0.327148, -9.75, 1.18.2022 20:48:33.602
257, 1.79344, 0.0408381, 81.5357, 0, -0.000976562, 0, 0.0527344, 0.30957, -9.74512, 1.18.2022 20:48:33.610
258, 1.79344, 0.0408381, 81.5357, -0.000976562, 0, 0.000976562, -0.0214844, 0.28418, -9.75391, 1.18.2022 20:48:33.618
259, 1.79366, 0.0407536, 81.5349, -0.000976562, -0.000976562, 0.000976562, -0.0126953, 0.31543, -9.69141, 1.18.2022 20:48:33.626
260, 1.79366, 0.0407536, 81.5349, -0.000976562, -0.000976562, 0, 0.0292969, 0.285156, -9.71875, 1.18.2022 20:48:33.634
261, 1.79366, 0.0407536, 81.5349, 0, -0.000976562, 0, -0.0546875, 0.30957, -9.73633, 1.18.2022 20:48:33.642
262, 1.79366, 0.0407536, 81.5349, -0.000976562, -0.000976562, 0, 0.00292969, 0.304688, -9.74609, 1.18.2022 20:48:33.650
263, 1.79366, 0.0407536, 81.5349, -0.000976562, -0.000976562, -0.000976562, 0, 0.271484, -9.74512, 1.18.2022 20:48:33.658
264, 1.79366, 0.0407536, 81.5349, -0.00195312, -0.000976562, 0, -0.0712891, 0.30957, -9.72852, 1.18.2022 20:48:33.666
265, 1.79366, 0.0407536, 81.5349, -0.000976562, -0.000976562, 0, 0.03125, 0.291992, -9.71191, 1.18.2022 20:48:33.674
266, 1.79366, 0.0407536, 81.5349, 0, -0.000976562, 0.000976562, -0.0214844, 0.290039, -9.7373, 1.18.2022 20:48:33.682
267, 1.79366, 0.0407536, 81.5349, -0.000976562, -0.000976562, 0.000976562, -0.0332031, 0.333984, -9.75195, 1.18.2022 20:48:33.690
268, 1.79366, 0.0407536, 81.5349, -0.000976562, 0, 0, 0.0625, 0.299805, -9.74316, 1.18.2022 20:48:33.698
269, 1.79366, 0.0407536, 81.5349, 0, -0.000976562, 0, -0.0195312, 0.303711, -9.78613, 1.18.2022 20:48:33.706
270, 1.79366, 0.0407536, 81.5349, -0.000976562, -0.000976562, 0, -0.00488281, 0.291016, -9.76758, 1.18.2022 20:48:33.714
271, 1.79366, 0.0407536, 81.5349, -0.000976562, 0, 0, 0.0283203, 0.279297, -9.77637, 1.18.2022 20:48:33.722
272, 1.79366, 0.0407536, 81.5349, -0.000976562, 0, 0, -0.0839844, 0.308594, -9.77051, 1.18.2022 20:48:33.730
273, 1.79366, 0.0407536, 81.5349, -0.000976562, 0, 0, 0.0263672, 0.292969, -9.75684, 1.18.2022 20:48:33.738
274, 1.79366, 0.0407536, 81.5349, -0.000976562, 0, 0, -0.00683594, 0.297852, -9.74414, 1.18.2022 20:48:33.746
275, 1.79366, 0.0407536, 81.5349, 0, 0, 0, -0.0380859, 0.299805, -9.73926, 1.18.2022 20:48:33.754
276, 1.79366, 0.0407536, 81.5349, 0, -0.000976562, 0, 0.0429688, 0.297852, -9.74707, 1.18.2022 20:48:33.762
277, 1.79366, 0.0407536, 81.5349, 0, 0, 0, -0.0205078, 0.308594, -9.69629, 1.18.2022 20:48:33.770
278, 1.79366, 0.0407536, 81.5349, -0.000976562, -0.000976562, 0, -0.0253906, 0.325195, -9.71191, 1.18.2022 20:48:33.778
279, 1.79366, 0.0407536, 81.5349, 0, -0.000976562, 0, 0.0078125, 0.292969, -9.73535, 1.18.2022 20:48:33.786
280, 1.79366, 0.0407536, 81.5349, 0, 0, 0, -0.0546875, 0.314453, -9.75, 1.18.2022 20:48:33.794
281, 1.79366, 0.0407536, 81.5349, -0.000976562, 0, 0, 0.0214844, 0.326172, -9.75098, 1.18.2022 20:48:33.802
282, 1.79366, 0.0407536, 81.5349, -0.000976562, 0, 0, -0.00976562, 0.304688, -9.74902, 1.18.2022 20:48:33.810
283, 1.79366, 0.0407536, 81.5349, -0.000976562, 0, 0, -0.0380859, 0.307617, -9.73828, 1.18.2022 20:48:33.818
284, 1.79366, 0.0407536, 81.5349, 0, -0.000976562, 0, 0.0263672, 0.28125, -9.75684, 1.18.2022 20:48:33.826
285, 1.79366, 0.0407536, 81.5349, -0.000976562, -0.000976562, 0, 0.00195312, 0.279297, -9.75684, 1.18.2022 20:48:33.834
286, 1.79366, 0.0407536, 81.5349, -0.000976562, 0, 0, -0.00195312, 0.308594, -9.71094, 1.18.2022 20:48:33.842
287, 1.79366, 0.0407536, 81.5349, -0.00195312, 0, 0, 0.0302734, 0.288086, -9.66895, 1.18.2022 20:48:33.850
288, 1.79366, 0.0407536, 81.5349, -0.000976562, 0, 0, -0.0537109, 0.318359, -9.70703, 1.18.2022 20:48:33.858
289, 1.79366, 0.0407536, 81.5349, -0.000976562, 0, -0.000976562, 0.0117188, 0.314453, -9.74902, 1.18.2022 20:48:33.866
290, 1.79366, 0.0407536, 81.5349, 0, 0, -0.000976562, 0.00488281, 0.288086, -9.74414, 1.18.2022 20:48:33.874
291, 1.79366, 0.0407536, 81.5349, -0.000976562, 0, -0.000976562, -0.0527344, 0.319336, -9.74707, 1.18.2022 20:48:33.882
292, 1.79366, 0.0407536, 81.5349, -0.000976562, 0, -0.000976562, 0.0244141, 0.290039, -9.72852, 1.18.2022 20:48:33.890
293, 1.79366, 0.0407536, 81.5349, -0.000976562, -0.000976562, 0, -0.00585938, 0.302734, -9.68066, 1.18.2022 20:48:33.898
294, 1.79366, 0.0407536, 81.5349, -0.000976562, -0.000976562, -0.000976562, -0.0302734, 0.329102, -9.73828, 1.18.2022 20:48:33.906
295, 1.79366, 0.0407536, 81.5349, -0.000976562, -0.000976562, -0.000976562, 0.0517578, 0.269531, -9.76758, 1.18.2022 20:48:33.914
296, 1.79366, 0.0407536, 81.5349, -0.000976562, -0.000976562, -0.000976562, -0.0566406, 0.323242, -9.70215, 1.18.2022 20:48:33.922
297, 1.79366, 0.0407536, 81.5349, 0, 0, -0.000976562, -0.0546875, 0.3125, -9.74316, 1.18.2022 20:48:33.930
298, 1.79366, 0.0407536, 81.5349, 0, 0.000976562, -0.000976562, 0, 0.294922, -9.73926, 1.18.2022 20:48:33.938
299, 1.79366, 0.0407536, 81.5349, 0, 0, -0.000976562, -0.0566406, 0.322266, -9.74707, 1.18.2022 20:48:33.946
300, 1.79366, 0.0407536, 81.5349, 0, 0, -0.000976562, 0.0693359, 0.313477, -9.72559, 1.18.2022 20:48:33.954
301, 1.79366, 0.0407536, 81.5349, -0.000976562, 0, -0.000976562, 0.0126953, 0.290039, -9.71875, 1.18.2022 20:48:33.962
302, 1.79366, 0.0407536, 81.5349, 0, 0, -0.000976562, -0.0615234, 0.317383, -9.75488, 1.18.2022 20:48:33.970
303, 1.79366, 0.0407536, 81.5349, -0.000976562, 0, -0.000976562, 0.0527344, 0.292969, -9.76172, 1.18.2022 20:48:33.978
304, 1.79366, 0.0407536, 81.5349, 0, 0, -0.000976562, -0.0214844, 0.304688, -9.72949, 1.18.2022 20:48:33.986
305, 1.79366, 0.0407536, 81.5349, -0.000976562, 0, 0.000976562, -0.0136719, 0.301758, -9.72949, 1.18.2022 20:48:33.994
306, 1.79341, 0.040684, 81.5251, 0, -0.000976562, 0, 0.0185547, 0.291016, -9.76172, 1.18.2022 20:48:34.000
307, 1.79341, 0.040684, 81.5251, 0, -0.000976562, 0, -0.0898438, 0.319336, -9.74023, 1.18.2022 20:48:34.008
308, 1.79341, 0.040684, 81.5251, -0.000976562, -0.000976562, -0.000976562, 0.00488281, 0.303711, -9.77246, 1.18.2022 20:48:34.016
309, 1.79341, 0.040684, 81.5251, -0.000976562, -0.000976562, -0.00195312, 0.0078125, 0.319336, -9.73438, 1.18.2022 20:48:34.024
310, 1.79341, 0.040684, 81.5251, -0.000976562, -0.000976562, -0.000976562, -0.0625, 0.31543, -9.76172, 1.18.2022 20:48:34.032
311, 1.79341, 0.040684, 81.5251, 0, 0, -0.000976562, 0.0527344, 0.301758, -9.7168, 1.18.2022 20:48:34.040
312, 1.79341, 0.040684, 81.5251, 0, -0.000976562, -0.000976562, -0.0400391, 0.302734, -9.73633, 1.18.2022 20:48:34.048
313, 1.79341, 0.040684, 81.5251, -0.000976562, 0, 0.000976562, -0.00195312, 0.318359, -9.71777, 1.18.2022 20:48:34.056
314, 1.79341, 0.040684, 81.5251, 0, 0, 0.000976562, 0.0263672, 0.276367, -9.7334, 1.18.2022 20:48:34.064
315, 1.79341, 0.040684, 81.5251, 0, 0, -0.000976562, -0.0566406, 0.293945, -9.70605, 1.18.2022 20:48:34.072
316, 1.79341, 0.040684, 81.5251, -0.000976562, 0, -0.000976562, -0.00292969, 0.295898, -9.77246, 1.18.2022 20:48:34.080
317, 1.79341, 0.040684, 81.5251, -0.000976562, 0, -0.000976562, -0.00292969, 0.291016, -9.76367, 1.18.2022 20:48:34.088
318, 1.79341, 0.040684, 81.5251, 0, 0, -0.000976562, -0.0615234, 0.324219, -9.75195, 1.18.2022 20:48:34.096
319, 1.79341, 0.040684, 81.5251, -0.000976562, 0, -0.000976562, 0.0224609, 0.30957, -9.83398, 1.18.2022 20:48:34.104
320, 1.79341, 0.040684, 81.5251, 0, 0, -0.000976562, -0.0185547, 0.304688, -9.72949, 1.18.2022 20:48:34.112
321, 1.79341, 0.040684, 81.5251, -0.000976562, 0, -0.000976562, -0.0449219, 0.301758, -9.71973, 1.18.2022 20:48:34.120
322, 1.79341, 0.040684, 81.5251, -0.00195312, 0, -0.000976562, 0.0429688, 0.285156, -9.74023, 1.18.2022 20:48:34.128
323, 1.79341, 0.040684, 81.5251, -0.00195312, 0, -0.000976562, -0.0576172, 0.310547, -9.75195, 1.18.2022 20:48:34.136
324, 1.79341, 0.040684, 81.5251, -0.000976562, 0, -0.000976562, -0.00390625, 0.293945, -9.71094, 1.18.2022 20:48:34.144
325, 1.79341, 0.040684, 81.5251, -0.000976562, -0.000976562, -0.000976562, 0.0283203, 0.262695, -9.75977, 1.18.2022 20:48:34.152
326, 1.79341, 0.040684, 81.5251, -0.000976562, -0.000976562, -0.00195312, -0.0351562, 0.31543, -9.7002, 1.18.2022 20:48:34.160
327, 1.79341, 0.040684, 81.5251, -0.000976562, -0.000976562, -0.000976562, 0.0146484, 0.301758, -9.71875, 1.18.2022 20:48:34.168
328, 1.79341, 0.040684, 81.5251, -0.000976562, -0.000976562, 0, -0.00683594, 0.304688, -9.72754, 1.18.2022 20:48:34.176
329, 1.79341, 0.040684, 81.5251, -0.000976562, -0.000976562, 0, -0.046875, 0.326172, -9.73535, 1.18.2022 20:48:34.184
330, 1.79341, 0.040684, 81.5251, -0.000976562, -0.000976562, -0.000976562, 0.0292969, 0.316406, -9.72559, 1.18.2022 20:48:34.192
331, 1.79341, 0.040684, 81.5251, 0, -0.000976562, -0.000976562, -0.0117188, 0.300781, -9.74902, 1.18.2022 20:48:34.200
332, 1.79341, 0.040684, 81.5251, 0, -0.000976562, -0.000976562, -0.0166016, 0.300781, -9.75293, 1.18.2022 20:48:34.208
333, 1.79341, 0.040684, 81.5251, 0, 0, -0.000976562, 0.0195312, 0.302734, -9.73535, 1.18.2022 20:48:34.216
334, 1.79341, 0.040684, 81.5251, 0, -0.000976562, 0, -0.0712891, 0.305664, -9.75, 1.18.2022 20:48:34.224
335, 1.79341, 0.040684, 81.5251, -0.000976562, 0, 0, -0.00976562, 0.302734, -9.75098, 1.18.2022 20:48:34.232
336, 1.79341, 0.040684, 81.5251, -0.000976562, -0.000976562, -0.000976562, 0.00585938, 0.298828, -9.69434, 1.18.2022 20:48:34.240
337, 1.79341, 0.040684, 81.5251, -0.000976562, 0, -0.000976562, -0.0429688, 0.332031, -9.7666, 1.18.2022 20:48:34.248
338, 1.79341, 0.040684, 81.5251, -0.000976562, 0, -0.00195312, 0.0576172, 0.300781, -9.75684, 1.18.2022 20:48:34.256
339, 1.79341, 0.040684, 81.5251, 0, -0.000976562, -0.00195312, -0.0146484, 0.297852, -9.76074, 1.18.2022 20:48:34.264
340, 1.79341, 0.040684, 81.5251, -0.000976562, -0.000976562, -0.000976562, -0.0429688, 0.317383, -9.75684, 1.18.2022 20:48:34.272
341, 1.79341, 0.040684, 81.5251, -0.000976562, -0.000976562, -0.000976562, 0.0078125, 0.268555, -9.73828, 1.18.2022 20:48:34.280
342, 1.79341, 0.040684, 81.5251, 0, -0.000976562, -0.000976562, -0.0595703, 0.3125, -9.74512, 1.18.2022 20:48:34.288
343, 1.79341, 0.040684, 81.5251, 0, -0.000976562, -0.000976562, 0.0107422, 0.311523, -9.70898, 1.18.2022 20:48:34.296
344, 1.78884, 0.0459808, 81.5251, 0, 0, -0.000976562, 0.0078125, 0.266602, -9.7334, 1.18.2022 20:48:34.304
345, 1.78884, 0.0459808, 81.5251, 0, 0, -0.000976562, -0.0527344, 0.333984, -9.76172, 1.18.2022 20:48:34.312
346, 1.78884, 0.0459808, 81.5251, -0.000976562, -0.000976562, -0.000976562, 0.0273438, 0.305664, -9.7041, 1.18.2022 20:48:34.320
347, 1.78884, 0.0459808, 81.5251, -0.000976562, 0, 0, -0.00878906, 0.320312, -9.70996, 1.18.2022 20:48:34.328
348, 1.78884, 0.0459808, 81.5251, -0.000976562, 0, -0.000976562, -0.0283203, 0.313477, -9.71777, 1.18.2022 20:48:34.336
349, 1.78884, 0.0459808, 81.5251, -0.000976562, -0.000976562, 0, 0.0361328, 0.292969, -9.7334, 1.18.2022 20:48:34.344
350, 1.78884, 0.0459808, 81.5251, -0.000976562, -0.000976562, -0.000976562, -0.0595703, 0.286133, -9.74121, 1.18.2022 20:48:34.352
351, 1.78884, 0.0459808, 81.5251, 0, -0.000976562, -0.000976562, -0.00976562, 0.308594, -9.78613, 1.18.2022 20:48:34.360
352, 1.78884, 0.0459808, 81.5251, 0, 0, -0.000976562, 0.0166016, 0.291016, -9.76855, 1.18.2022 20:48:34.368
353, 1.78884, 0.0459808, 81.5251, -0.000976562, 0, -0.000976562, -0.0927734, 0.299805, -9.7334, 1.18.2022 20:48:34.376
354, 1.78884, 0.0459808, 81.5251, 0, 0.000976562, 0.000976562, 0.0214844, 0.300781, -9.76855, 1.18.2022 20:48:34.384
355, 1.78884, 0.0459808, 81.5251, 0, 0, -0.000976562, -0.00878906, 0.292969, -9.73438, 1.18.2022 20:48:34.392
356, 1.78884, 0.0459808, 81.5251, -0.000976562, -0.000976562, 0, -0.0117188, 0.327148, -9.75488, 1.18.2022 20:48:34.400
357, 1.78884, 0.0459808, 81.5251, -0.000976562, -0.000976562, 0, 0.0400391, 0.291992, -9.78711, 1.18.2022 20:48:34.408
358, 1.78884, 0.0459808, 81.5251, -0.000976562, -0.000976562, -0.000976562, -0.0195312, 0.297852, -9.75781, 1.18.2022 20:48:34.416
359, 1.78884, 0.0459808, 81.5251, -0.000976562, -0.000976562, -0.000976562, -0.0302734, 0.319336, -9.72852, 1.18.2022 20:48:34.424
360, 1.78884, 0.0459808, 81.5251, -0.000976562, -0.000976562, -0.000976562, 0.0458984, 0.287109, -9.72363, 1.18.2022 20:48:34.432
361, 1.78884, 0.0459808, 81.5251, -0.000976562, -0.000976562, 0, -0.0449219, 0.333984, -9.76367, 1.18.2022 20:48:34.440
362, 1.78884, 0.0459808, 81.5251, 0, -0.000976562, 0, 0.00976562, 0.320312, -9.7627, 1.18.2022 20:48:34.448
363, 1.78884, 0.0459808, 81.5251, 0, -0.000976562, 0, -0.00488281, 0.295898, -9.76074, 1.18.2022 20:48:34.456
364, 1.78906, 0.0458963, 81.5243, 0, -0.000976562, -0.000976562, -0.0488281, 0.300781, -9.69336, 1.18.2022 20:48:34.464
365, 1.78906, 0.0458963, 81.5243, 0, -0.000976562, -0.000976562, 0.0263672, 0.285156, -9.73828, 1.18.2022 20:48:34.472
366, 1.78906, 0.0458963, 81.5243, -0.000976562, -0.000976562, -0.000976562, -0.0263672, 0.288086, -9.75391, 1.18.2022 20:48:34.480
367, 1.78906, 0.0458963, 81.5243, -0.000976562, -0.000976562, -0.000976562, -0.0371094, 0.316406, -9.7168, 1.18.2022 20:48:34.488
368, 1.78906, 0.0458963, 81.5243, -0.000976562, -0.000976562, -0.000976562, 0.0478516, 0.304688, -9.73047, 1.18.2022 20:48:34.496
369, 1.78906, 0.0458963, 81.5243, -0.000976562, -0.000976562, -0.000976562, -0.0410156, 0.322266, -9.75977, 1.18.2022 20:48:34.504
370, 1.78906, 0.0458963, 81.5243, -0.000976562, -0.000976562, -0.000976562, -0.00195312, 0.300781, -9.75781, 1.18.2022 20:48:34.512
371, 1.79436, 0.0504619, 81.5241, -0.000976562, -0.000976562, 0, 0.0166016, 0.27832, -9.74512, 1.18.2022 20:48:34.520
372, 1.79436, 0.0504619, 81.5241, 0, -0.000976562, -0.000976562, -0.0751953, 0.298828, -9.68652, 1.18.2022 20:48:34.528
373, 1.79436, 0.0504619, 81.5241, -0.000976562, -0.000976562, -0.000976562, 0.0458984, 0.30957, -9.74414, 1.18.2022 20:48:34.536
374, 1.79436, 0.0504619, 81.5241, 0, -0.000976562, -0.000976562, 0.00195312, 0.300781, -9.76074, 1.18.2022 20:48:34.544
375, 1.79436, 0.0504619, 81.5241, -0.000976562, -0.000976562, -0.000976562, -0.0361328, 0.329102, -9.75684, 1.18.2022 20:48:34.552
376, 1.79436, 0.0504619, 81.5241, -0.000976562, 0, -0.00195312, 0.0498047, 0.279297, -9.76953, 1.18.2022 20:48:34.560
377, 1.79436, 0.0504619, 81.5241, -0.000976562, 0, -0.000976562, -0.03125, 0.305664, -9.75488, 1.18.2022 20:48:34.568
378, 1.78906, 0.0458963, 81.5243, 0, 0, -0.000976562, -0.00390625, 0.304688, -9.7207, 1.18.2022 20:48:34.576
379, 1.78906, 0.0458963, 81.5243, 0.000976562, 0, -0.000976562, 0.0126953, 0.27832, -9.72168, 1.18.2022 20:48:34.584
380, 1.78906, 0.0458963, 81.5243, -0.00195312, 0, -0.000976562, -0.0761719, 0.316406, -9.72363, 1.18.2022 20:48:34.592
381, 1.78906, 0.0458963, 81.5243, -0.000976562, -0.000976562, -0.000976562, 0.0195312, 0.292969, -9.7373, 1.18.2022 20:48:34.600
382, 1.78906, 0.0458963, 81.5243, -0.000976562, -0.000976562, -0.000976562, -0.00390625, 0.311523, -9.72754, 1.18.2022 20:48:34.608
383, 1.78906, 0.0458963, 81.5243, -0.000976562, -0.000976562, -0.000976562, -0.0234375, 0.325195, -9.71484, 1.18.2022 20:48:34.616
384, 1.78884, 0.0459808, 81.5251, -0.000976562, -0.000976562, -0.00195312, 0.0429688, 0.266602, -9.73828, 1.18.2022 20:48:34.624
385, 1.78884, 0.0459808, 81.5251, 0, -0.000976562, -0.00195312, -0.00195312, 0.296875, -9.72754, 1.18.2022 20:48:34.632
386, 1.78884, 0.0459808, 81.5251, -0.000976562, 0, -0.000976562, -0.0136719, 0.333008, -9.7334, 1.18.2022 20:48:34.640
387, 1.78884, 0.0459808, 81.5251, -0.000976562, -0.000976562, -0.000976562, 0.0361328, 0.307617, -9.75391, 1.18.2022 20:48:34.648
388, 1.78884, 0.0459808, 81.5251, -0.000976562, 0, -0.000976562, -0.0400391, 0.319336, -9.74512, 1.18.2022 20:48:34.656
389, 1.78884, 0.0459808, 81.5251, 0, 0, -0.00195312, -0.015625, 0.30957, -9.72266, 1.18.2022 20:48:34.664
390, 1.78884, 0.0459808, 81.5251, 0, 0, -0.000976562, 0.0078125, 0.304688, -9.73242, 1.18.2022 20:48:34.672
391, 1.78884, 0.0459808, 81.5251, -0.000976562, 0, -0.00195312, -0.0449219, 0.311523, -9.73633, 1.18.2022 20:48:34.680
392, 1.78884, 0.0459808, 81.5251, 0, 0.000976562, 0.000976562, 0.0449219, 0.295898, -9.75684, 1.18.2022 20:48:34.688
393, 1.78884, 0.0459808, 81.5251, -0.000976562, 0, -0.000976562, -0.0361328, 0.317383, -9.76172, 1.18.2022 20:48:34.696
394, 1.78884, 0.0459808, 81.5251, -0.000976562, -0.000976562, -0.000976562, -0.00195312, 0.301758, -9.71777, 1.18.2022 20:48:34.704
395, 1.78884, 0.0459808, 81.5251, -0.000976562, 0, 0, 0.0224609, 0.295898, -9.69531, 1.18.2022 20:48:34.712
396, 1.78884, 0.0459808, 81.5251, -0.000976562, 0, -0.000976562, -0.0566406, 0.307617, -9.74023, 1.18.2022 20:48:34.720
397, 1.78884, 0.0459808, 81.5251, 0, 0, -0.000976562, 0, 0.295898, -9.75586, 1.18.2022 20:48:34.728
398, 1.78884, 0.0459808, 81.5251, 0, 0, -0.00195312, 0.0292969, 0.302734, -9.74023, 1.18.2022 20:48:34.736
399, 1.78884, 0.0459808, 81.5251, -0.000976562, 0.000976562, -0.000976562, -0.0429688, 0.331055, -9.74023, 1.18.2022 20:48:34.744
400, 1.79341, 0.040684, 81.5251, -0.000976562, 0, -0.000976562, 0.0341797, 0.294922, -9.7334, 1.18.2022 20:48:34.752
401, 1.79341, 0.040684, 81.5251, 0, -0.000976562, 0, -0.00390625, 0.288086, -9.73047, 1.18.2022 20:48:34.760
402, 1.79341, 0.040684, 81.5251, 0, -0.000976562, 0, -0.0214844, 0.325195, -9.77148, 1.18.2022 20:48:34.768
403, 1.79341, 0.040684, 81.5251, -0.000976562, -0.000976562, -0.00195312, 0.0546875, 0.293945, -9.76367, 1.18.2022 20:48:34.776
404, 1.78884, 0.0459808, 81.5251, 0, -0.000976562, -0.000976562, -0.0449219, 0.311523, -9.73633, 1.18.2022 20:48:34.784
405, 1.79341, 0.040684, 81.5251, -0.000976562, 0, -0.000976562, -0.0136719, 0.314453, -9.72461, 1.18.2022 20:48:34.792
406, 1.79341, 0.040684, 81.5251, -0.000976562, -0.000976562, -0.000976562, 0.0410156, 0.273438, -9.73828, 1.18.2022 20:48:34.800
407, 1.79341, 0.040684, 81.5251, 0, 0, -0.000976562, -0.0566406, 0.326172, -9.71875, 1.18.2022 20:48:34.808
408, 1.79341, 0.040684, 81.5251, 0, -0.000976562, -0.000976562, 0.0195312, 0.285156, -9.70898, 1.18.2022 20:48:34.816
409, 1.79341, 0.040684, 81.5251, -0.000976562, -0.000976562, -0.000976562, -0.00390625, 0.288086, -9.72559, 1.18.2022 20:48:34.824
410, 1.79341, 0.040684, 81.5251, -0.000976562, -0.000976562, -0.00195312, -0.0595703, 0.329102, -9.7334, 1.18.2022 20:48:34.832
411, 1.79341, 0.040684, 81.5251, 0, 0, -0.000976562, 0.0214844, 0.273438, -9.74805, 1.18.2022 20:48:34.840
412, 1.79341, 0.040684, 81.5251, 0, 0, -0.000976562, -0.0214844, 0.283203, -9.7373, 1.18.2022 20:48:34.848
413, 1.79341, 0.040684, 81.5251, -0.000976562, -0.000976562, -0.000976562, -0.0136719, 0.308594, -9.70117, 1.18.2022 20:48:34.856
414, 1.79366, 0.0407536, 81.5349, -0.00195312, 0, -0.000976562, 0.0244141, 0.275391, -9.71973, 1.18.2022 20:48:34.864
415, 1.79366, 0.0407536, 81.5349, 0, -0.000976562, -0.00195312, -0.0546875, 0.329102, -9.74512, 1.18.2022 20:48:34.872
416, 1.79366, 0.0407536, 81.5349, -0.000976562, 0, -0.000976562, 0.0078125, 0.321289, -9.73633, 1.18.2022 20:48:34.880
417, 1.79366, 0.0407536, 81.5349, 0, 0, 0, -0.00683594, 0.296875, -9.72266, 1.18.2022 20:48:34.888
418, 1.79366, 0.0407536, 81.5349, 0, 0, 0, -0.0742188, 0.319336, -9.75195, 1.18.2022 20:48:34.896
419, 1.79344, 0.0408381, 81.5357, 0, 0, 0, 0.00976562, 0.28125, -9.75, 1.18.2022 20:48:34.904
420, 1.78814, 0.0362717, 81.5358, -0.000976562, 0, 0, -0.0136719, 0.297852, -9.72949, 1.18.2022 20:48:34.912
421, 1.78839, 0.0363413, 81.5456, 0, -0.000976562, 0, -0.0517578, 0.304688, -9.73633, 1.18.2022 20:48:34.920
422, 1.78839, 0.0363413, 81.5456, 0, -0.000976562, -0.00195312, 0.0498047, 0.293945, -9.77148, 1.18.2022 20:48:34.928
423, 1.78818, 0.0364254, 81.5464, 0, -0.000976562, 0, -0.0478516, 0.30957, -9.73828, 1.18.2022 20:48:34.936
424, 1.78818, 0.0364254, 81.5464, 0, -0.00195312, -0.00195312, 0.000976562, 0.313477, -9.71973, 1.18.2022 20:48:34.944
425, 1.7889, 0.0462882, 81.5462, -0.000976562, -0.000976562, 0, 0.0166016, 0.294922, -9.73535, 1.18.2022 20:48:34.952
426, 1.78915, 0.0463574, 81.5561, -0.00195312, -0.000976562, 0, -0.0517578, 0.304688, -9.74121, 1.18.2022 20:48:34.960
427, 1.79372, 0.0410618, 81.5561, -0.000976562, 0, 0, 0.0244141, 0.297852, -9.74707, 1.18.2022 20:48:34.968
428, 1.7935, 0.0411463, 81.5568, 0, 0, 0, -0.00195312, 0.30957, -9.74902, 1.18.2022 20:48:34.974
429, 1.7935, 0.0411463, 81.5568, 0, 0, 0, -0.00878906, 0.321289, -9.72266, 1.18.2022 20:48:34.982
430, 1.7935, 0.0411463, 81.5568, -0.000976562, -0.000976562, 0, 0.0478516, 0.294922, -9.74512, 1.18.2022 20:48:34.990
431, 1.78893, 0.0464419, 81.5568, -0.000976562, -0.000976562, 0, -0.0283203, 0.319336, -9.73145, 1.18.2022 20:48:34.998
432, 1.78896, 0.0465956, 81.5674, -0.000976562, -0.000976562, 0, -0.0166016, 0.301758, -9.72461, 1.18.2022 20:48:35.006
433, 1.78896, 0.0465956, 81.5674, -0.000976562, 0, 0, 0.0361328, 0.294922, -9.73047, 1.18.2022 20:48:35.014
434, 1.78896, 0.0465956, 81.5674, -0.000976562, -0.000976562, 0, -0.0595703, 0.305664, -9.76465, 1.18.2022 20:48:35.022
435, 1.78896, 0.0465956, 81.5674, -0.000976562, -0.000976562, 0, 0.03125, 0.297852, -9.74512, 1.18.2022 20:48:35.030
436, 1.78896, 0.0465956, 81.5674, -0.000976562, -0.000976562, 0, 0.0146484, 0.30957, -9.7373, 1.18.2022 20:48:35.038
437, 1.78899, 0.0467492, 81.578, 0, 0, 0, -0.046875, 0.330078, -9.70703, 1.18.2022 20:48:35.046
438, 1.78899, 0.0467492, 81.578, -0.000976562, 0, 0, 0.0478516, 0.296875, -9.72852, 1.18.2022 20:48:35.054
439, 1.79356, 0.0414546, 81.578, -0.000976562, -0.000976562, 0, -0.0234375, 0.30957, -9.74121, 1.18.2022 20:48:35.062
440, 1.78899, 0.0467492, 81.578, 0, 0, 0, -0.00878906, 0.294922, -9.72559, 1.18.2022 20:48:35.070
441, 1.78902, 0.0469029, 81.5886, 0, 0, 0, 0.0380859, 0.304688, -9.73242, 1.18.2022 20:48:35.078
442, 1.78902, 0.0469029, 81.5886, -0.000976562, -0.000976562, 0, -0.0693359, 0.319336, -9.74023, 1.18.2022 20:48:35.086
443, 1.78902, 0.0469029, 81.5886, -0.000976562, -0.000976562, -0.00195312, 0.00195312, 0.31543, -9.7627, 1.18.2022 20:48:35.094
444, 1.78902, 0.0469029, 81.5886, -0.000976562, -0.000976562, -0.00195312, -0.00488281, 0.286133, -9.75195, 1.18.2022 20:48:35.102
445, 1.78881, 0.0469874, 81.5894, -0.00195312, -0.000976562, 0, -0.0527344, 0.295898, -9.75781, 1.18.2022 20:48:35.110
446, 1.79338, 0.0416932, 81.5894, -0.000976562, -0.000976562, 0, 0.0546875, 0.288086, -9.74805, 1.18.2022 20:48:35.118
447, 1.78881, 0.0469874, 81.5894, 0, -0.000976562, 0, -0.0146484, 0.296875, -9.78418, 1.18.2022 20:48:35.126
448, 1.78881, 0.0469874, 81.5894, 0, 0, -0.00195312, -0.0351562, 0.321289, -9.73633, 1.18.2022 20:48:35.134
449, 1.78905, 0.0470566, 81.5992, -0.000976562, -0.000976562, 0, 0.0673828, 0.271484, -9.73633, 1.18.2022 20:48:35.142
450, 1.78905, 0.0470566, 81.5992, 0, 0, 0, -0.0566406, 0.30957, -9.7334, 1.18.2022 20:48:35.150
451, 1.78905, 0.0470566, 81.5992, 0, 0, 0, -0.0380859, 0.299805, -9.73926, 1.18.2022 20:48:35.158
452, 1.78881, 0.0469874, 81.5894, -0.000976562, 0, 0, 0.0283203, 0.310547, -9.76562, 1.18.2022 20:48:35.166
453, 1.79362, 0.0417628, 81.5992, -0.000976562, -0.000976562, -0.000976562, -0.0625, 0.311523, -9.78516, 1.18.2022 20:48:35.174
454, 1.79362, 0.0417628, 81.5992, -0.000976562, -0.000976562, -0.000976562, 0.0429688, 0.291016, -9.77344, 1.18.2022 20:48:35.182
455, 1.79362, 0.0417628, 81.5992, -0.000976562, 0, -0.000976562, -0.0166016, 0.299805, -9.72266, 1.18.2022 20:48:35.190
456, 1.79362, 0.0417628, 81.5992, -0.000976562, -0.000976562, 0, -0.0380859, 0.314453, -9.73145, 1.18.2022 20:48:35.198
457, 1.79362, 0.0417628, 81.5992, -0.000976562, -0.000976562, 0, 0.0517578, 0.291992, -9.79688, 1.18.2022 20:48:35.206
458, 1.79341, 0.0418473, 81.6, -0.000976562, -0.000976562, 0.000976562, -0.0449219, 0.317383, -9.74805, 1.18.2022 20:48:35.214
459, 1.79365, 0.0419169, 81.6098, 0, 0, 0, 0.00292969, 0.30957, -9.74121, 1.18.2022 20:48:35.222
460, 1.79365, 0.0419169, 81.6098, -0.000976562, -0.000976562, 0, 0.0478516, 0.28125, -9.74316, 1.18.2022 20:48:35.230
461, 1.79365, 0.0419169, 81.6098, 0, -0.00195312, 0, -0.0546875, 0.290039, -9.72461, 1.18.2022 20:48:35.238
462, 1.79344, 0.0420014, 81.6105, 0, 0, -0.000976562, 0.0146484, 0.297852, -9.75195, 1.18.2022 20:48:35.246
463, 1.79344, 0.0420014, 81.6105, -0.000976562, 0, 0, -0.00195312, 0.304688, -9.72754, 1.18.2022 20:48:35.254
464, 1.79368, 0.042071, 81.6203, 0, 0, 0, -0.0351562, 0.318359, -9.70508, 1.18.2022 20:48:35.262
465, 1.79368, 0.042071, 81.6203, 0, 0, 0, 0.046875, 0.277344, -9.77832, 1.18.2022 20:48:35.270
466, 1.79347, 0.0421555, 81.6211, -0.000976562, 0, 0, -0.0576172, 0.31543, -9.75684, 1.18.2022 20:48:35.278
467, 1.79347, 0.0421555, 81.6211, -0.000976562, 0, -0.000976562, -0.0283203, 0.324219, -9.75977, 1.18.2022 20:48:35.286
468, 1.79347, 0.0421555, 81.6211, -0.000976562, -0.000976562, -0.000976562, 0.0292969, 0.306641, -9.72559, 1.18.2022 20:48:35.294
469, 1.79371, 0.0422251, 81.6309, 0, -0.000976562, 0, -0.0615234, 0.304688, -9.73145, 1.18.2022 20:48:35.302
470, 1.79371, 0.0422251, 81.6309, 0, 0, 0.000976562, 0.00292969, 0.286133, -9.74219, 1.18.2022 20:48:35.310
471, 1.78821, 0.0377389, 81.6318, 0, 0, 0.000976562, -0.0166016, 0.289062, -9.76758, 1.18.2022 20:48:35.318
472, 1.78821, 0.0377389, 81.6318, 0, -0.000976562, 0, -0.0449219, 0.305664, -9.75293, 1.18.2022 20:48:35.326
473, 1.78821, 0.0377389, 81.6318, 0, -0.000976562, 0, 0.0410156, 0.288086, -9.73535, 1.18.2022 20:48:35.334
474, 1.78821, 0.0377389, 81.6318, -0.000976562, -0.000976562, 0, -0.0146484, 0.297852, -9.75391, 1.18.2022 20:48:35.342
475, 1.78821, 0.0377389, 81.6318, -0.000976562, -0.000976562, 0, -0.0419922, 0.316406, -9.7168, 1.18.2022 20:48:35.350
476, 1.78821, 0.0377389, 81.6318, 0, -0.000976562, 0, 0.0380859, 0.274414, -9.75, 1.18.2022 20:48:35.358
477, 1.78821, 0.0377389, 81.6318, 0, 0, 0, -0.0566406, 0.327148, -9.75, 1.18.2022 20:48:35.366
478, 1.78821, 0.0377389, 81.6318, -0.000976562, -0.000976562, 0, 0.0195312, 0.338867, -9.75098, 1.18.2022 20:48:35.374
479, 1.78821, 0.0377389, 81.6318, 0, -0.000976562, 0, 0.0341797, 0.324219, -9.73926, 1.18.2022 20:48:35.382
480, 1.78821, 0.0377389, 81.6318, -0.000976562, -0.000976562, 0, -0.0585938, 0.354492, -9.7207, 1.18.2022 20:48:35.390
481, 1.78821, 0.0377389, 81.6318, -0.000976562, -0.000976562, 0, 0.0214844, 0.28125, -9.74219, 1.18.2022 20:48:35.398
482, 1.78385, 0.0429474, 81.6311, 0, -0.000976562, 0, -0.00195312, 0.302734, -9.74902, 1.18.2022 20:48:35.406
483, 1.78385, 0.0429474, 81.6311, -0.000976562, -0.000976562, 0, -0.0332031, 0.314453, -9.75488, 1.18.2022 20:48:35.414
484, 1.78385, 0.0429474, 81.6311, 0, 0, 0, 0.0478516, 0.313477, -9.72363, 1.18.2022 20:48:35.422
485, 1.78385, 0.0429474, 81.6311, -0.000976562, 0, 0, -0.0263672, 0.287109, -9.78418, 1.18.2022 20:48:35.430
486, 1.78818, 0.0375853, 81.6213, -0.000976562, 0, 0, -0.0244141, 0.321289, -9.7998, 1.18.2022 20:48:35.438
487, 1.78818, 0.0375853, 81.6213, -0.000976562, 0, 0, 0.03125, 0.279297, -9.7666, 1.18.2022 20:48:35.446
488, 1.78818, 0.0375853, 81.6213, 0, -0.000976562, 0, -0.0380859, 0.294922, -9.72949, 1.18.2022 20:48:35.454
489, 1.78818, 0.0375853, 81.6213, 0, 0, 0, 0.0244141, 0.306641, -9.71875, 1.18.2022 20:48:35.462
490, 1.78818, 0.0375853, 81.6213, 0, 0, 0, 0.0126953, 0.304688, -9.7373, 1.18.2022 20:48:35.470
491, 1.78818, 0.0375853, 81.6213, -0.000976562, -0.000976562, 0, -0.0439453, 0.310547, -9.69629, 1.18.2022 20:48:35.478
492, 1.78818, 0.0375853, 81.6213, -0.000976562, -0.000976562, 0, 0.0595703, 0.302734, -9.76367, 1.18.2022 20:48:35.486
493, 1.78818, 0.0375853, 81.6213, 0, 0, 0, -0.0605469, 0.318359, -9.78516, 1.18.2022 20:48:35.494
494, 1.78818, 0.0375853, 81.6213, -0.000976562, -0.000976562, 0, 0, 0.326172, -9.73438, 1.18.2022 20:48:35.502
495, 1.78818, 0.0375853, 81.6213, -0.000976562, -0.000976562, 0, 0.0273438, 0.305664, -9.69727, 1.18.2022 20:48:35.510
496, 1.78818, 0.0375853, 81.6213, -0.00195312, -0.000976562, -0.000976562, -0.0703125, 0.308594, -9.71191, 1.18.2022 20:48:35.518
497, 1.79347, 0.0421555, 81.6211, -0.00195312, -0.00195312, 0.000976562, 0.0166016, 0.302734, -9.76367, 1.18.2022 20:48:35.526
498, 1.79347, 0.0421555, 81.6211, -0.000976562, -0.000976562, 0, 0.00976562, 0.292969, -9.75879, 1.18.2022 20:48:35.534
499, 1.79347, 0.0421555, 81.6211, -0.000976562, -0.000976562, 0, -0.0478516, 0.335938, -9.74219, 1.18.2022 20:48:35.542
500, 1.79347, 0.0421555, 81.6211, -0.000976562, 0, 0, 0.0117188, 0.288086, -9.74219, 1.18.2022 20:48:35.550
501, 1.79347, 0.0421555, 81.6211, 0, -0.000976562, 0, -0.0117188, 0.298828, -9.76758, 1.18.2022 20:48:35.558
502, 1.79347, 0.0421555, 81.6211, 0, -0.00195312, 0, -0.0185547, 0.324219, -9.73633, 1.18.2022 20:48:35.566
503, 1.79347, 0.0421555, 81.6211, 0, -0.000976562, 0, 0.0283203, 0.304688, -9.75195, 1.18.2022 20:48:35.574
504, 1.79347, 0.0421555, 81.6211, 0, 0, 0, -0.0449219, 0.333008, -9.72168, 1.18.2022 20:48:35.582
505, 1.79371, 0.0422251, 81.6309, 0, 0, 0, -0.00195312, 0.337891, -9.71973, 1.18.2022 20:48:35.590
506, 1.79371, 0.0422251, 81.6309, 0, 0, 0, 0.0126953, 0.304688, -9.73047, 1.18.2022 20:48:35.598
507, 1.79371, 0.0422251, 81.6309, -0.000976562, -0.000976562, 0.000976562, -0.0400391, 0.333008, -9.72559, 1.18.2022 20:48:35.606
508, 1.79371, 0.0422251, 81.6309, -0.000976562, -0.000976562, 0, 0.0380859, 0.28125, -9.75195, 1.18.2022 20:48:35.614
509, 1.79371, 0.0422251, 81.6309, -0.000976562, -0.000976562, 0, 0.0078125, 0.302734, -9.74219, 1.18.2022 20:48:35.622
510, 1.7935, 0.0423096, 81.6317, 0, -0.000976562, 0, -0.0361328, 0.293945, -9.77637, 1.18.2022 20:48:35.630
511, 1.7935, 0.0423096, 81.6317, 0, -0.000976562, 0, 0.0263672, 0.291992, -9.71875, 1.18.2022 20:48:35.638
512, 1.7935, 0.0423096, 81.6317, 0, 0, 0, -0.0449219, 0.297852, -9.75781, 1.18.2022 20:48:35.646
513, 1.7935, 0.0423096, 81.6317, 0, -0.000976562, -0.000976562, -0.015625, 0.303711, -9.69141, 1.18.2022 20:48:35.654
514, 1.7935, 0.0423096, 81.6317, 0, -0.000976562, -0.000976562, 0.00976562, 0.288086, -9.73535, 1.18.2022 20:48:35.662
515, 1.7935, 0.0423096, 81.6317, 0, -0.000976562, 0.000976562, -0.0566406, 0.329102, -9.74512, 1.18.2022 20:48:35.670
516, 1.7935, 0.0423096, 81.6317, 0, -0.000976562, -0.000976562, 0.0214844, 0.290039, -9.7373, 1.18.2022 20:48:35.678
517, 1.7935, 0.0423096, 81.6317, 0, -0.000976562, -0.000976562, -0.00195312, 0.294922, -9.71582, 1.18.2022 20:48:35.686
518, 1.78893, 0.0476022, 81.6317, 0, -0.000976562, -0.000976562, -0.0302734, 0.30957, -9.73828, 1.18.2022 20:48:35.694
519, 1.78893, 0.0476022, 81.6317, 0, 0, -0.000976562, 0.0439453, 0.298828, -9.7168, 1.18.2022 20:48:35.702
520, 1.78821, 0.0377389, 81.6318, -0.000976562, 0, 0.000976562, -0.00878906, 0.288086, -9.73535, 1.18.2022 20:48:35.710
521, 1.78821, 0.0377389, 81.6318, 0, -0.000976562, 0.000976562, -0.0166016, 0.299805, -9.73926, 1.18.2022 20:48:35.718
522, 1.78364, 0.0430315, 81.6318, 0, -0.000976562, -0.000976562, 0, 0.31543, -9.76758, 1.18.2022 20:48:35.726
523, 1.78364, 0.0430315, 81.6318, 0, -0.000976562, -0.000976562, -0.0625, 0.313477, -9.7832, 1.18.2022 20:48:35.734
524, 1.78364, 0.0430315, 81.6318, 0, -0.000976562, -0.000976562, 0.0175781, 0.291992, -9.70898, 1.18.2022 20:48:35.742
525, 1.78364, 0.0430315, 81.6318, 0, 0, -0.000976562, -0.00488281, 0.291016, -9.74414, 1.18.2022 20:48:35.750
526, 1.78364, 0.0430315, 81.6318, -0.000976562, -0.000976562, -0.000976562, -0.0449219, 0.304688, -9.72949, 1.18.2022 20:48:35.758
527, 1.78364, 0.0430315, 81.6318, 0, -0.000976562, -0.000976562, 0.03125, 0.285156, -9.73535, 1.18.2022 20:48:35.766
528, 1.78364, 0.0430315, 81.6318, 0, -0.00195312, -0.000976562, 0.00488281, 0.319336, -9.75781, 1.18.2022 20:48:35.774
529, 1.78364, 0.0430315, 81.6318, 0, -0.000976562, -0.000976562, 0.00292969, 0.344727, -9.71191, 1.18.2022 20:48:35.782
530, 1.78364, 0.0430315, 81.6318, 0, -0.000976562, 0.000976562, 0.0507812, 0.282227, -9.70508, 1.18.2022 20:48:35.790
531, 1.78364, 0.0430315, 81.6318, 0, 0, -0.000976562, -0.0449219, 0.322266, -9.74805, 1.18.2022 20:48:35.798
532, 1.78364, 0.0430315, 81.6318, -0.000976562, -0.00195312, -0.000976562, -0.00488281, 0.304688, -9.74902, 1.18.2022 20:48:35.806
533, 1.78364, 0.0430315, 81.6318, 0, -0.000976562, -0.000976562, 0.00878906, 0.320312, -9.77441, 1.18.2022 20:48:35.814
534, 1.78364, 0.0430315, 81.6318, 0, -0.000976562, -0.00195312, -0.0380859, 0.296875, -9.72754, 1.18.2022 20:48:35.822
535, 1.78364, 0.0430315, 81.6318, 0, 0, -0.000976562, 0.0283203, 0.291016, -9.74707, 1.18.2022 20:48:35.830
536, 1.78364, 0.0430315, 81.6318, -0.000976562, 0, 0, 0.0195312, 0.285156, -9.71875, 1.18.2022 20:48:35.838
537, 1.78364, 0.0430315, 81.6318, -0.000976562, -0.000976562, -0.00195312, -0.0361328, 0.329102, -9.75977, 1.18.2022 20:48:35.846
538, 1.78364, 0.0430315, 81.6318, -0.000976562, -0.000976562, -0.000976562, 0.0761719, 0.300781, -9.77832, 1.18.2022 20:48:35.854
539, 1.78364, 0.0430315, 81.6318, -0.000976562, -0.000976562, -0.000976562, -0.0361328, 0.319336, -9.75488, 1.18.2022 20:48:35.862
540, 1.78364, 0.0430315, 81.6318, -0.000976562, -0.000976562, -0.000976562, -0.0185547, 0.331055, -9.7334, 1.18.2022 20:48:35.870
541, 1.78364, 0.0430315, 81.6318, -0.000976562, -0.000976562, -0.000976562, 0.03125, 0.276367, -9.75195, 1.18.2022 20:48:35.878
542, 1.78893, 0.0476022, 81.6317, -0.000976562, -0.000976562, -0.000976562, -0.0732422, 0.324219, -9.74512, 1.18.2022 20:48:35.886
543, 1.78893, 0.0476022, 81.6317, 0, -0.000976562, -0.000976562, 0.0166016, 0.294922, -9.74414, 1.18.2022 20:48:35.894
544, 1.78893, 0.0476022, 81.6317, -0.000976562, -0.000976562, -0.000976562, -0.00195312, 0.296875, -9.71094, 1.18.2022 20:48:35.902
545, 1.78893, 0.0476022, 81.6317, -0.000976562, 0, -0.000976562, -0.0546875, 0.335938, -9.74902, 1.18.2022 20:48:35.910
546, 1.78893, 0.0476022, 81.6317, 0, 0, -0.000976562, 0.0429688, 0.288086, -9.74512, 1.18.2022 20:48:35.918
547, 1.78364, 0.0430315, 81.6318, 0, 0.000976562, 0.000976562, -0.0332031, 0.34668, -9.76172, 1.18.2022 20:48:35.926
548, 1.78364, 0.0430315, 81.6318, 0, -0.000976562, -0.000976562, -0.015625, 0.332031, -9.69824, 1.18.2022 20:48:35.934
549, 1.78364, 0.0430315, 81.6318, 0, -0.000976562, 0.000976562, 0.0380859, 0.288086, -9.74512, 1.18.2022 20:48:35.940
550, 1.78364, 0.0430315, 81.6318, -0.000976562, -0.000976562, -0.000976562, -0.0478516, 0.324219, -9.74512, 1.18.2022 20:48:35.948
551, 1.78364, 0.0430315, 81.6318, 0, -0.000976562, -0.000976562, 0.0410156, 0.326172, -9.72559, 1.18.2022 20:48:35.956
552, 1.78364, 0.0430315, 81.6318, -0.000976562, -0.000976562, -0.000976562, 0.00683594, 0.297852, -9.74707, 1.18.2022 20:48:35.964
553, 1.78821, 0.0377389, 81.6318, -0.000976562, 0, -0.000976562, -0.0664062, 0.319336, -9.75, 1.18.2022 20:48:35.972
554, 1.78821, 0.0377389, 81.6318, 0, -0.000976562, -0.000976562, 0.0341797, 0.301758, -9.73535, 1.18.2022 20:48:35.980
555, 1.78821, 0.0377389, 81.6318, 0, -0.00195312, -0.00195312, -0.00488281, 0.303711, -9.77441, 1.18.2022 20:48:35.988
556, 1.78364, 0.0430315, 81.6318, -0.000976562, -0.00195312, -0.00195312, -0.00195312, 0.333008, -9.72461, 1.18.2022 20:48:35.996
557, 1.7935, 0.0423096, 81.6317, -0.000976562, 0, -0.000976562, 0.0751953, 0.310547, -9.70215, 1.18.2022 20:48:36.004
558, 1.7935, 0.0423096, 81.6317, -0.00195312, -0.000976562, -0.000976562, -0.0419922, 0.304688, -9.72656, 1.18.2022 20:48:36.012
559, 1.7935, 0.0423096, 81.6317, -0.000976562, -0.000976562, -0.000976562, -0.0253906, 0.316406, -9.72949, 1.18.2022 20:48:36.020
560, 1.7935, 0.0423096, 81.6317, 0, -0.000976562, -0.000976562, 0.0283203, 0.295898, -9.76855, 1.18.2022 20:48:36.028
561, 1.7935, 0.0423096, 81.6317, -0.000976562, 0, -0.000976562, -0.0253906, 0.308594, -9.71289, 1.18.2022 20:48:36.036
562, 1.7935, 0.0423096, 81.6317, -0.000976562, -0.000976562, -0.000976562, 0.015625, 0.291992, -9.7041, 1.18.2022 20:48:36.044
563, 1.7935, 0.0423096, 81.6317, 0, -0.000976562, -0.000976562, -0.0283203, 0.271484, -9.75879, 1.18.2022 20:48:36.052
564, 1.7935, 0.0423096, 81.6317, 0, 0, -0.000976562, -0.0332031, 0.300781, -9.76465, 1.18.2022 20:48:36.060
565, 1.7935, 0.0423096, 81.6317, 0, 0, 0.000976562, 0.0146484, 0.286133, -9.75195, 1.18.2022 20:48:36.068
566, 1.7935, 0.0423096, 81.6317, 0, -0.000976562, -0.000976562, -0.0644531, 0.3125, -9.74707, 1.18.2022 20:48:36.076
567, 1.7935, 0.0423096, 81.6317, 0, -0.000976562, -0.000976562, -0.0126953, 0.354492, -9.79395, 1.18.2022 20:48:36.084
568, 1.7935, 0.0423096, 81.6317, 0, -0.000976562, -0.000976562, 0.0361328, 0.279297, -9.75195, 1.18.2022 20:48:36.092
569, 1.7935, 0.0423096, 81.6317, -0.000976562, -0.000976562, -0.000976562, -0.0478516, 0.320312, -9.76172, 1.18.2022 20:48:36.100
570, 1.7935, 0.0423096, 81.6317, 0, -0.000976562, -0.000976562, 0.0214844, 0.318359, -9.72949, 1.18.2022 20:48:36.108
571, 1.7935, 0.0423096, 81.6317, 0, -0.000976562, -0.00195312, 0, 0.308594, -9.76953, 1.18.2022 20:48:36.116
572, 1.7935, 0.0423096, 81.6317, -0.000976562, -0.000976562, -0.000976562, -0.0380859, 0.329102, -9.76172, 1.18.2022 20:48:36.124
573, 1.7935, 0.0423096, 81.6317, -0.000976562, -0.000976562, -0.000976562, 0.0292969, 0.292969, -9.73047, 1.18.2022 20:48:36.132
574, 1.7935, 0.0423096, 81.6317, -0.000976562, -0.000976562, -0.000976562, -0.0478516, 0.314453, -9.74316, 1.18.2022 20:48:36.140
575, 1.7935, 0.0423096, 81.6317, -0.000976562, -0.000976562, -0.000976562, -0.0117188, 0.304688, -9.7207, 1.18.2022 20:48:36.148
576, 1.7935, 0.0423096, 81.6317, 0, -0.00195312, -0.000976562, 0.0449219, 0.266602, -9.74609, 1.18.2022 20:48:36.156
577, 1.7935, 0.0423096, 81.6317, 0, -0.000976562, -0.000976562, -0.0546875, 0.306641, -9.72461, 1.18.2022 20:48:36.164
578, 1.7935, 0.0423096, 81.6317, 0, 0, 0, 0.0117188, 0.292969, -9.74023, 1.18.2022 20:48:36.172
579, 1.7935, 0.0423096, 81.6317, -0.000976562, -0.000976562, 0, -0.0117188, 0.276367, -9.7373, 1.18.2022 20:48:36.180
580, 1.7935, 0.0423096, 81.6317, -0.000976562, -0.000976562, 0.000976562, -0.0449219, 0.311523, -9.73633, 1.18.2022 20:48:36.188
581, 1.7935, 0.0423096, 81.6317, 0, -0.000976562, 0.000976562, 0.0341797, 0.288086, -9.72852, 1.18.2022 20:48:36.196
582, 1.7935, 0.0423096, 81.6317, -0.000976562, -0.000976562, 0, -0.0166016, 0.295898, -9.75391, 1.18.2022 20:48:36.204
583, 1.7935, 0.0423096, 81.6317, -0.000976562, -0.000976562, 0, -0.0166016, 0.30957, -9.74121, 1.18.2022 20:48:36.212
584, 1.7935, 0.0423096, 81.6317, -0.000976562, 0, 0, 0.0576172, 0.296875, -9.7334, 1.18.2022 20:48:36.220
585, 1.7935, 0.0423096, 81.6317, 0, 0, 0, -0.0117188, 0.30957, -9.73926, 1.18.2022 20:48:36.228
586, 1.7935, 0.0423096, 81.6317, -0.000976562, -0.000976562, 0, -0.0263672, 0.307617, -9.75098, 1.18.2022 20:48:36.236
587, 1.7935, 0.0423096, 81.6317, -0.000976562, 0, 0.000976562, -0.0136719, 0.28125, -9.74219, 1.18.2022 20:48:36.244
588, 1.7935, 0.0423096, 81.6317, -0.000976562, -0.000976562, 0.000976562, -0.0595703, 0.317383, -9.75684, 1.18.2022 20:48:36.252
589, 1.7935, 0.0423096, 81.6317, -0.000976562, -0.000976562, 0, 0.0195312, 0.305664, -9.7041, 1.18.2022 20:48:36.260
590, 1.7935, 0.0423096, 81.6317, -0.000976562, -0.000976562, 0, -0.0166016, 0.269531, -9.75684, 1.18.2022 20:48:36.268
591, 1.7935, 0.0423096, 81.6317, -0.000976562, -0.00195312, -0.000976562, -0.0292969, 0.300781, -9.77246, 1.18.2022 20:48:36.276
592, 1.79353, 0.0424637, 81.6423, 0, 0, 0, 0.0566406, 0.305664, -9.7666, 1.18.2022 20:48:36.284
593, 1.79353, 0.0424637, 81.6423, -0.000976562, 0, 0.000976562, -0.0400391, 0.321289, -9.7334, 1.18.2022 20:48:36.292
594, 1.79353, 0.0424637, 81.6423, 0, 0, 0, -0.0136719, 0.304688, -9.72461, 1.18.2022 20:48:36.300
595, 1.79353, 0.0424637, 81.6423, -0.000976562, -0.000976562, 0, 0.0537109, 0.295898, -9.7002, 1.18.2022 20:48:36.308
596, 1.79353, 0.0424637, 81.6423, -0.000976562, 0, 0.000976562, -0.0761719, 0.329102, -9.73535, 1.18.2022 20:48:36.316
597, 1.79353, 0.0424637, 81.6423, -0.000976562, 0, 0, 0.0078125, 0.303711, -9.69922, 1.18.2022 20:48:36.324
598, 1.7981, 0.0371716, 81.6423, -0.000976562, -0.000976562, 0, 0.0146484, 0.291016, -9.74512, 1.18.2022 20:48:36.332
599, 1.7981, 0.0371716, 81.6423, 0, 0, 0.000976562, -0.0429688, 0.30957, -9.73145, 1.18.2022 20:48:36.340
600, 1.7981, 0.0371716, 81.6423, 0, 0.000976562, 0.000976562, 0.0527344, 0.28125, -9.75977, 1.18.2022 20:48:36.348
601, 1.7981, 0.0371716, 81.6423, -0.000976562, 0, 0.000976562, -0.0498047, 0.326172, -9.73535, 1.18.2022 20:48:36.356
602, 1.79813, 0.0373261, 81.6529, -0.000976562, 0, 0, -0.0351562, 0.335938, -9.74707, 1.18.2022 20:48:36.364
603, 1.79813, 0.0373261, 81.6529, 0, 0, 0.000976562, 0.0576172, 0.280273, -9.72168, 1.18.2022 20:48:36.372
604, 1.79284, 0.0327546, 81.653, 0, 0, 0, -0.0615234, 0.307617, -9.74316, 1.18.2022 20:48:36.380
605, 1.79284, 0.0327546, 81.653, 0, 0, 0, 0.00488281, 0.310547, -9.76562, 1.18.2022 20:48:36.388
606, 1.79262, 0.0328387, 81.6538, -0.000976562, -0.000976562, 0, -0.0195312, 0.271484, -9.75195, 1.18.2022 20:48:36.396
607, 1.79287, 0.0329087, 81.6636, -0.000976562, 0, -0.00195312, -0.0634766, 0.325195, -9.70703, 1.18.2022 20:48:36.404
608, 1.79287, 0.0329087, 81.6636, -0.000976562, -0.000976562, 0, 0.0214844, 0.28418, -9.76367, 1.18.2022 20:48:36.412
609, 1.79287, 0.0329087, 81.6636, -0.000976562, 0, -0.000976562, -0.0302734, 0.304688, -9.73438, 1.18.2022 20:48:36.420
610, 1.79287, 0.0329087, 81.6636, -0.000976562, -0.000976562, 0, -0.0478516, 0.288086, -9.74609, 1.18.2022 20:48:36.428
611, 1.79287, 0.0329087, 81.6636, 0, -0.000976562, -0.00195312, 0.0361328, 0.3125, -9.75879, 1.18.2022 20:48:36.436
612, 1.79287, 0.0329087, 81.6636, 0, -0.00195312, -0.000976562, -0.0615234, 0.301758, -9.71484, 1.18.2022 20:48:36.444
613, 1.79794, 0.0375652, 81.6642, -0.000976562, -0.000976562, -0.000976562, -0.0146484, 0.295898, -9.76562, 1.18.2022 20:48:36.452
614, 1.79265, 0.0329928, 81.6643, 0, 0, -0.000976562, 0.00292969, 0.297852, -9.74902, 1.18.2022 20:48:36.460
615, 1.79794, 0.0375652, 81.6642, -0.00195312, -0.000976562, -0.000976562, -0.0761719, 0.30957, -9.73828, 1.18.2022 20:48:36.468
616, 1.79819, 0.0376352, 81.674, -0.000976562, -0.000976562, -0.000976562, 0.0234375, 0.305664, -9.75391, 1.18.2022 20:48:36.476
617, 1.79819, 0.0376352, 81.674, -0.000976562, -0.000976562, -0.000976562, -0.00878906, 0.292969, -9.73438, 1.18.2022 20:48:36.484
618, 1.79819, 0.0376352, 81.674, -0.000976562, 0, -0.000976562, -0.0546875, 0.335938, -9.73047, 1.18.2022 20:48:36.492
619, 1.79819, 0.0376352, 81.674, 0, -0.000976562, -0.00195312, 0.0439453, 0.305664, -9.70215, 1.18.2022 20:48:36.500
620, 1.79797, 0.0377197, 81.6748, -0.000976562, -0.000976562, -0.000976562, -0.015625, 0.28418, -9.70215, 1.18.2022 20:48:36.508
621, 1.79797, 0.0377197, 81.6748, -0.000976562, -0.000976562, -0.00195312, 0.00292969, 0.299805, -9.72559, 1.18.2022 20:48:36.516
622, 1.79822, 0.0377897, 81.6846, -0.000976562, -0.000976562, -0.000976562, 0.0283203, 0.283203, -9.74707, 1.18.2022 20:48:36.524
623, 1.79822, 0.0377897, 81.6846, -0.000976562, -0.000976562, -0.000976562, -0.0566406, 0.296875, -9.71289, 1.18.2022 20:48:36.532
624, 1.798, 0.0378743, 81.6853, -0.000976562, -0.000976562, -0.00195312, 0.00292969, 0.308594, -9.71094, 1.18.2022 20:48:36.540
625, 1.798, 0.0378743, 81.6853, -0.000976562, 0, -0.00195312, -0.00195312, 0.303711, -9.71094, 1.18.2022 20:48:36.548
626, 1.798, 0.0378743, 81.6853, 0, 0, -0.000976562, -0.0380859, 0.294922, -9.72754, 1.18.2022 20:48:36.556
627, 1.79825, 0.0379443, 81.6952, -0.000976562, 0, -0.000976562, 0.0527344, 0.279297, -9.76465, 1.18.2022 20:48:36.564
628, 1.79825, 0.0379443, 81.6952, -0.00195312, -0.000976562, -0.000976562, -0.0234375, 0.291016, -9.74121, 1.18.2022 20:48:36.572
629, 1.79803, 0.0380288, 81.6959, 0, 0, -0.000976562, -0.0419922, 0.316406, -9.72852, 1.18.2022 20:48:36.580
630, 1.79803, 0.0380288, 81.6959, -0.000976562, -0.000976562, -0.000976562, 0.0253906, 0.300781, -9.78027, 1.18.2022 20:48:36.588
631, 1.79803, 0.0380288, 81.6959, -0.000976562, -0.000976562, -0.000976562, -0.0410156, 0.279297, -9.76562, 1.18.2022 20:48:36.596
632, 1.79803, 0.0380288, 81.6959, -0.000976562, -0.000976562, -0.000976562, 0.0107422, 0.311523, -9.70898, 1.18.2022 20:48:36.604
633, 1.79803, 0.0380288, 81.6959, -0.000976562, 0, -0.000976562, 0.0117188, 0.28125, -9.75684, 1.18.2022 20:48:36.612
634, 1.79803, 0.0380288, 81.6959, 0, -0.000976562, -0.000976562, -0.0576172, 0.324219, -9.75391, 1.18.2022 20:48:36.620
635, 1.79803, 0.0380288, 81.6959, 0, -0.000976562, -0.000976562, 0.0380859, 0.30957, -9.74023, 1.18.2022 20:48:36.628
636, 1.79346, 0.0433188, 81.6959, 0, -0.000976562, -0.000976562, -0.0292969, 0.310547, -9.77637, 1.18.2022 20:48:36.636
637, 1.79346, 0.0433188, 81.6959, 0, 0, -0.000976562, -0.0380859, 0.322266, -9.74805, 1.18.2022 20:48:36.644
638, 1.79346, 0.0433188, 81.6959, -0.000976562, -0.000976562, 0, 0.03125, 0.288086, -9.73535, 1.18.2022 20:48:36.652
639, 1.79346, 0.0433188, 81.6959, -0.000976562, -0.000976562, -0.000976562, -0.0595703, 0.314453, -9.7334, 1.18.2022 20:48:36.660
640, 1.79346, 0.0433188, 81.6959, 0, 0, -0.00195312, -0.0185547, 0.290039, -9.72949, 1.18.2022 20:48:36.668
641, 1.79346, 0.0433188, 81.6959, -0.000976562, 0, 0, 0.00292969, 0.299805, -9.71777, 1.18.2022 20:48:36.676
642, 1.79346, 0.0433188, 81.6959, 0, 0, 0.000976562, -0.0830078, 0.299805, -9.73828, 1.18.2022 20:48:36.684
643, 1.79346, 0.0433188, 81.6959, 0, -0.000976562, 0, 0.0332031, 0.302734, -9.7373, 1.18.2022 20:48:36.692
644, 1.79346, 0.0433188, 81.6959, 0, -0.00195312, 0, -0.0185547, 0.314453, -9.72656, 1.18.2022 20:48:36.700
645, 1.79346, 0.0433188, 81.6959, -0.000976562, -0.000976562, 0, -0.0351562, 0.323242, -9.71973, 1.18.2022 20:48:36.708
646, 1.79346, 0.0433188, 81.6959, -0.000976562, -0.000976562, 0, 0.0595703, 0.316406, -9.74219, 1.18.2022 20:48:36.716
647, 1.79346, 0.0433188, 81.6959, -0.000976562, 0, 0, -0.0332031, 0.337891, -9.72363, 1.18.2022 20:48:36.724
648, 1.79346, 0.0433188, 81.6959, -0.000976562, 0, -0.000976562, 0, 0.292969, -9.73926, 1.18.2022 20:48:36.732
649, 1.79346, 0.0433188, 81.6959, -0.000976562, 0, -0.000976562, 0.00878906, 0.303711, -9.78223, 1.18.2022 20:48:36.740
650, 1.79346, 0.0433188, 81.6959, -0.000976562, 0, -0.000976562, -0.0712891, 0.333984, -9.75879, 1.18.2022 20:48:36.748
651, 1.79346, 0.0433188, 81.6959, -0.000976562, 0, 0, 0.0234375, 0.31543, -9.78418, 1.18.2022 20:48:36.756
652, 1.79346, 0.0433188, 81.6959, 0, 0, 0, 0.0146484, 0.288086, -9.7373, 1.18.2022 20:48:36.764
653, 1.79346, 0.0433188, 81.6959, -0.000976562, -0.000976562, 0, -0.0517578, 0.313477, -9.71973, 1.18.2022 20:48:36.772
654, 1.79346, 0.0433188, 81.6959, -0.000976562, -0.000976562, 0, 0.0380859, 0.295898, -9.7666, 1.18.2022 20:48:36.780
655, 1.79346, 0.0433188, 81.6959, -0.000976562, -0.000976562, 0, -0.00976562, 0.336914, -9.76465, 1.18.2022 20:48:36.788
656, 1.79346, 0.0433188, 81.6959, -0.000976562, -0.000976562, 0, -0.0166016, 0.327148, -9.75293, 1.18.2022 20:48:36.796
657, 1.79346, 0.0433188, 81.6959, 0, -0.000976562, 0, 0.0283203, 0.288086, -9.74512, 1.18.2022 20:48:36.804
658, 1.79346, 0.0433188, 81.6959, 0, -0.000976562, 0, -0.0683594, 0.311523, -9.72656, 1.18.2022 20:48:36.812
659, 1.79346, 0.0433188, 81.6959, -0.000976562, -0.000976562, 0, -0.0107422, 0.320312, -9.70312, 1.18.2022 20:48:36.820
660, 1.79346, 0.0433188, 81.6959, -0.000976562, -0.000976562, 0, -0.000976562, 0.300781, -9.69727, 1.18.2022 20:48:36.828
661, 1.79346, 0.0433188, 81.6959, 0, 0, 0, -0.0576172, 0.338867, -9.76562, 1.18.2022 20:48:36.836
662, 1.79346, 0.0433188, 81.6959, -0.000976562, -0.000976562, 0, 0.0410156, 0.307617, -9.74707, 1.18.2022 20:48:36.844
663, 1.79346, 0.0433188, 81.6959, -0.000976562, -0.000976562, 0, -0.0185547, 0.292969, -9.74414, 1.18.2022 20:48:36.852
664, 1.79346, 0.0433188, 81.6959, -0.000976562, -0.000976562, -0.000976562, -0.0449219, 0.329102, -9.75488, 1.18.2022 20:48:36.860
665, 1.79346, 0.0433188, 81.6959, -0.00195312, -0.000976562, 0.000976562, 0.0429688, 0.293945, -9.7666, 1.18.2022 20:48:36.868
666, 1.79346, 0.0433188, 81.6959, -0.000976562, -0.000976562, 0, -0.0136719, 0.316406, -9.72949, 1.18.2022 20:48:36.876
667, 1.79346, 0.0433188, 81.6959, 0, -0.000976562, 0.000976562, -0.0117188, 0.304688, -9.72949, 1.18.2022 20:48:36.884
668, 1.79346, 0.0433188, 81.6959, 0, -0.000976562, 0.000976562, -0.00878906, 0.314453, -9.72754, 1.18.2022 20:48:36.892
669, 1.79346, 0.0433188, 81.6959, 0, 0, 0.000976562, -0.0585938, 0.328125, -9.70703, 1.18.2022 20:48:36.900
670, 1.79346, 0.0433188, 81.6959, 0, -0.000976562, 0, 0.00976562, 0.291992, -9.7207, 1.18.2022 20:48:36.908
671, 1.79346, 0.0433188, 81.6959, -0.000976562, -0.000976562, 0, -0.00195312, 0.297852, -9.75586, 1.18.2022 20:48:36.916
672, 1.79346, 0.0433188, 81.6959, 0, -0.000976562, -0.000976562, -0.0400391, 0.316406, -9.72852, 1.18.2022 20:48:36.922
673, 1.79346, 0.0433188, 81.6959, -0.000976562, -0.000976562, -0.000976562, 0.0527344, 0.304688, -9.72363, 1.18.2022 20:48:36.932
674, 1.79346, 0.0433188, 81.6959, 0, -0.000976562, -0.000976562, -0.0302734, 0.313477, -9.71973, 1.18.2022 20:48:36.938
675, 1.79368, 0.0432342, 81.6951, 0, 0, 0, -0.00195312, 0.304688, -9.72266, 1.18.2022 20:48:36.946
676, 1.79368, 0.0432342, 81.6951, -0.000976562, -0.000976562, -0.000976562, 0.0244141, 0.275391, -9.71973, 1.18.2022 20:48:36.954
677, 1.79368, 0.0432342, 81.6951, 0, 0, 0, -0.0664062, 0.304688, -9.7168, 1.18.2022 20:48:36.962
678, 1.79368, 0.0432342, 81.6951, 0, 0, 0, 0.0224609, 0.295898, -9.69727, 1.18.2022 20:48:36.970
679, 1.79343, 0.0431647, 81.6853, -0.000976562, 0, 0, -0.0166016, 0.274414, -9.75391, 1.18.2022 20:48:36.978
680, 1.79343, 0.0431647, 81.6853, 0, 0, -0.00195312, -0.0449219, 0.306641, -9.72949, 1.18.2022 20:48:36.986
681, 1.79343, 0.0431647, 81.6853, -0.000976562, -0.000976562, -0.000976562, 0.0507812, 0.280273, -9.72168, 1.18.2022 20:48:36.994
682, 1.79343, 0.0431647, 81.6853, 0, -0.000976562, -0.000976562, -0.0380859, 0.283203, -9.72949, 1.18.2022 20:48:37.002
683, 1.79343, 0.0431647, 81.6853, 0, 0, 0, -0.00976562, 0.297852, -9.75098, 1.18.2022 20:48:37.010
684, 1.79343, 0.0431647, 81.6853, -0.000976562, 0, 0, 0.0576172, 0.290039, -9.73145, 1.18.2022 20:48:37.018
685, 1.79343, 0.0431647, 81.6853, -0.000976562, -0.000976562, -0.000976562, -0.0400391, 0.319336, -9.75, 1.18.2022 20:48:37.026
686, 1.79343, 0.0431647, 81.6853, 0, -0.00195312, -0.000976562, 0.0146484, 0.301758, -9.73047, 1.18.2022 20:48:37.034
687, 1.79343, 0.0431647, 81.6853, -0.000976562, -0.000976562, 0.000976562, 0.0166016, 0.283203, -9.73047, 1.18.2022 20:48:37.042
688, 1.79365, 0.0430801, 81.6846, -0.000976562, -0.00195312, 0.000976562, -0.0429688, 0.328125, -9.7832, 1.18.2022 20:48:37.050
689, 1.79365, 0.0430801, 81.6846, -0.000976562, -0.000976562, 0.000976562, 0.0527344, 0.290039, -9.74316, 1.18.2022 20:48:37.058
690, 1.79365, 0.0430801, 81.6846, -0.000976562, -0.000976562, -0.000976562, -0.00976562, 0.302734, -9.75586, 1.18.2022 20:48:37.066
691, 1.79365, 0.0430801, 81.6846, -0.000976562, -0.000976562, -0.00195312, -0.0185547, 0.321289, -9.73828, 1.18.2022 20:48:37.074
692, 1.79365, 0.0430801, 81.6846, -0.000976562, -0.000976562, -0.000976562, 0.0673828, 0.270508, -9.73145, 1.18.2022 20:48:37.082
693, 1.79365, 0.0430801, 81.6846, -0.000976562, 0, 0, -0.0136719, 0.304688, -9.72754, 1.18.2022 20:48:37.090
694, 1.79365, 0.0430801, 81.6846, -0.000976562, 0, 0.000976562, 0.0361328, 0.291992, -9.72363, 1.18.2022 20:48:37.098
695, 1.79365, 0.0430801, 81.6846, -0.000976562, -0.000976562, 0.000976562, 0.0195312, 0.302734, -9.75195, 1.18.2022 20:48:37.106
696, 1.79365, 0.0430801, 81.6846, -0.000976562, -0.000976562, -0.000976562, -0.0800781, 0.333008, -9.72754, 1.18.2022 20:48:37.114
697, 1.79365, 0.0430801, 81.6846, -0.000976562, -0.000976562, -0.000976562, 0.0234375, 0.300781, -9.75586, 1.18.2022 20:48:37.122
698, 1.79365, 0.0430801, 81.6846, -0.00195312, -0.000976562, 0.000976562, -0.0117188, 0.296875, -9.71777, 1.18.2022 20:48:37.130
699, 1.79365, 0.0430801, 81.6846, -0.000976562, 0, 0, -0.0546875, 0.299805, -9.74316, 1.18.2022 20:48:37.138
700, 1.79365, 0.0430801, 81.6846, 0, -0.000976562, -0.000976562, 0.0146484, 0.297852, -9.74414, 1.18.2022 20:48:37.146
701, 1.79365, 0.0430801, 81.6846, 0, -0.000976562, -0.000976562, -0.0253906, 0.308594, -9.70801, 1.18.2022 20:48:37.154
702, 1.79365, 0.0430801, 81.6846, -0.000976562, -0.000976562, -0.000976562, 0.00195312, 0.320312, -9.76465, 1.18.2022 20:48:37.162
703, 1.79365, 0.0430801, 81.6846, -0.000976562, 0, 0, 0.03125, 0.288086, -9.73828, 1.18.2022 20:48:37.170
704, 1.79365, 0.0430801, 81.6846, -0.000976562, 0, 0, -0.0693359, 0.329102, -9.74414, 1.18.2022 20:48:37.178
705, 1.79365, 0.0430801, 81.6846, -0.000976562, -0.000976562, -0.000976562, 0, 0.316406, -9.73633, 1.18.2022 20:48:37.186
706, 1.79365, 0.0430801, 81.6846, 0, -0.000976562, -0.000976562, 0.00976562, 0.288086, -9.75684, 1.18.2022 20:48:37.194
707, 1.79365, 0.0430801, 81.6846, 0, 0, -0.00195312, -0.0478516, 0.310547, -9.75488, 1.18.2022 20:48:37.202
708, 1.79365, 0.0430801, 81.6846, 0, 0, -0.00195312, 0.0742188, 0.294922, -9.72852, 1.18.2022 20:48:37.210
709, 1.79365, 0.0430801, 81.6846, -0.000976562, -0.000976562, -0.000976562, -0.0400391, 0.307617, -9.73828, 1.18.2022 20:48:37.218
710, 1.79365, 0.0430801, 81.6846, -0.000976562, -0.000976562, 0, -0.0498047, 0.307617, -9.73633, 1.18.2022 20:48:37.226
711, 1.79365, 0.0430801, 81.6846, 0, 0, -0.000976562, 0.00488281, 0.302734, -9.75098, 1.18.2022 20:48:37.234
712, 1.79365, 0.0430801, 81.6846, 0, -0.000976562, 0, -0.0712891, 0.324219, -9.72852, 1.18.2022 20:48:37.242
713, 1.79365, 0.0430801, 81.6846, -0.000976562, -0.000976562, 0, -0.0117188, 0.287109, -9.7207, 1.18.2022 20:48:37.250
714, 1.79365, 0.0430801, 81.6846, -0.000976562, 0, -0.000976562, 0.0107422, 0.277344, -9.70703, 1.18.2022 20:48:37.258
715, 1.79365, 0.0430801, 81.6846, -0.000976562, -0.000976562, -0.000976562, -0.0322266, 0.316406, -9.71484, 1.18.2022 20:48:37.266
716, 1.79365, 0.0430801, 81.6846, 0, -0.000976562, -0.000976562, 0.0332031, 0.305664, -9.75684, 1.18.2022 20:48:37.274
717, 1.79365, 0.0430801, 81.6846, -0.000976562, -0.000976562, -0.000976562, -0.0185547, 0.299805, -9.71582, 1.18.2022 20:48:37.282
718, 1.79365, 0.0430801, 81.6846, 0, -0.000976562, -0.000976562, -0.00976562, 0.320312, -9.7793, 1.18.2022 20:48:37.290
719, 1.79365, 0.0430801, 81.6846, -0.000976562, -0.000976562, -0.000976562, 0.0458984, 0.291016, -9.74707, 1.18.2022 20:48:37.298
720, 1.79365, 0.0430801, 81.6846, -0.000976562, -0.000976562, -0.000976562, -0.0478516, 0.311523, -9.78516, 1.18.2022 20:48:37.306
721, 1.79343, 0.0431647, 81.6853, 0, 0, -0.000976562, 0.0078125, 0.324219, -9.73926, 1.18.2022 20:48:37.314
722, 1.79343, 0.0431647, 81.6853, 0, 0, -0.000976562, 0.0361328, 0.299805, -9.7207, 1.18.2022 20:48:37.322
723, 1.79343, 0.0431647, 81.6853, -0.000976562, 0, -0.000976562, -0.0644531, 0.310547, -9.75488, 1.18.2022 20:48:37.330
724, 1.79343, 0.0431647, 81.6853, -0.000976562, 0, -0.000976562, 0.0507812, 0.321289, -9.73242, 1.18.2022 20:48:37.338
725, 1.79343, 0.0431647, 81.6853, 0, -0.000976562, -0.000976562, -0.0185547, 0.292969, -9.75098, 1.18.2022 20:48:37.346
726, 1.79343, 0.0431647, 81.6853, -0.000976562, 0, 0, -0.0371094, 0.318359, -9.70801, 1.18.2022 20:48:37.354
727, 1.79343, 0.0431647, 81.6853, 0, -0.000976562, -0.000976562, 0.0683594, 0.277344, -9.79102, 1.18.2022 20:48:37.362
728, 1.79343, 0.0431647, 81.6853, -0.00195312, -0.000976562, -0.000976562, -0.0546875, 0.30957, -9.72656, 1.18.2022 20:48:37.370
729, 1.79343, 0.0431647, 81.6853, 0, 0, -0.000976562, -0.0214844, 0.319336, -9.73828, 1.18.2022 20:48:37.378
730, 1.79343, 0.0431647, 81.6853, -0.000976562, -0.000976562, -0.000976562, 0, 0.304688, -9.73438, 1.18.2022 20:48:37.386
731, 1.79343, 0.0431647, 81.6853, 0, 0, -0.000976562, -0.0449219, 0.316406, -9.73828, 1.18.2022 20:48:37.394
732, 1.79343, 0.0431647, 81.6853, 0, 0, -0.000976562, 0.0166016, 0.316406, -9.73926, 1.18.2022 20:48:37.402
733, 1.79343, 0.0431647, 81.6853, -0.000976562, 0, -0.000976562, -0.00195312, 0.275391, -9.73047, 1.18.2022 20:48:37.410
734, 1.79343, 0.0431647, 81.6853, -0.000976562, -0.000976562, -0.000976562, -0.0390625, 0.305664, -9.68652, 1.18.2022 20:48:37.418
735, 1.79343, 0.0431647, 81.6853, -0.00195312, -0.00195312, -0.000976562, 0.0488281, 0.275391, -9.71289, 1.18.2022 20:48:37.426
736, 1.79343, 0.0431647, 81.6853, -0.000976562, 0, -0.00195312, -0.0419922, 0.296875, -9.71777, 1.18.2022 20:48:37.434
737, 1.798, 0.0378743, 81.6853, -0.00195312, 0, 0, -0.00878906, 0.287109, -9.7207, 1.18.2022 20:48:37.442
738, 1.798, 0.0378743, 81.6853, -0.000976562, -0.000976562, -0.00195312, 0.0380859, 0.282227, -9.77637, 1.18.2022 20:48:37.450
739, 1.798, 0.0378743, 81.6853, 0, 0, -0.000976562, -0.0644531, 0.324219, -9.7373, 1.18.2022 20:48:37.458
740, 1.798, 0.0378743, 81.6853, -0.000976562, -0.000976562, -0.000976562, -0.0136719, 0.323242, -9.71777, 1.18.2022 20:48:37.466
741, 1.798, 0.0378743, 81.6853, 0, -0.000976562, -0.000976562, -0.0234375, 0.316406, -9.72461, 1.18.2022 20:48:37.474
742, 1.79343, 0.0431647, 81.6853, -0.000976562, -0.000976562, -0.000976562, -0.0576172, 0.317383, -9.75684, 1.18.2022 20:48:37.482
743, 1.79343, 0.0431647, 81.6853, -0.000976562, -0.000976562, -0.000976562, 0.0673828, 0.288086, -9.73633, 1.18.2022 20:48:37.490
744, 1.79343, 0.0431647, 81.6853, -0.000976562, -0.000976562, -0.000976562, -0.00683594, 0.314453, -9.74609, 1.18.2022 20:48:37.498
745, 1.79343, 0.0431647, 81.6853, -0.000976562, -0.000976562, -0.000976562, -0.0214844, 0.305664, -9.75781, 1.18.2022 20:48:37.506
746, 1.79343, 0.0431647, 81.6853, -0.000976562, -0.000976562, -0.000976562, 0.0361328, 0.280273, -9.72852, 1.18.2022 20:48:37.514
747, 1.79343, 0.0431647, 81.6853, 0, -0.000976562, -0.000976562, -0.0302734, 0.314453, -9.72656, 1.18.2022 20:48:37.522
748, 1.79343, 0.0431647, 81.6853, -0.000976562, -0.000976562, -0.000976562, -0.00195312, 0.299805, -9.72559, 1.18.2022 20:48:37.530
749, 1.79343, 0.0431647, 81.6853, 0, -0.000976562, -0.000976562, 0.0175781, 0.273438, -9.72852, 1.18.2022 20:48:37.538
750, 1.79343, 0.0431647, 81.6853, 0, -0.000976562, -0.000976562, -0.0478516, 0.304688, -9.73828, 1.18.2022 20:48:37.546
751, 1.79343, 0.0431647, 81.6853, 0, 0, -0.000976562, 0.0214844, 0.291016, -9.75391, 1.18.2022 20:48:37.554
752, 1.79343, 0.0431647, 81.6853, -0.000976562, 0, -0.000976562, -0.03125, 0.291016, -9.74414, 1.18.2022 20:48:37.562
753, 1.79343, 0.0431647, 81.6853, -0.000976562, -0.000976562, -0.000976562, -0.0283203, 0.301758, -9.72949, 1.18.2022 20:48:37.570
754, 1.79343, 0.0431647, 81.6853, -0.000976562, 0, 0.000976562, 0.0507812, 0.282227, -9.72168, 1.18.2022 20:48:37.578
755, 1.79343, 0.0431647, 81.6853, 0, 0, -0.000976562, -0.046875, 0.299805, -9.71289, 1.18.2022 20:48:37.586
756, 1.79343, 0.0431647, 81.6853, -0.000976562, -0.000976562, -0.000976562, -0.0146484, 0.319336, -9.75293, 1.18.2022 20:48:37.594
757, 1.79343, 0.0431647, 81.6853, -0.000976562, -0.000976562, -0.000976562, 0.0234375, 0.291016, -9.75684, 1.18.2022 20:48:37.602
758, 1.79343, 0.0431647, 81.6853, 0, -0.000976562, 0.000976562, -0.0683594, 0.323242, -9.71191, 1.18.2022 20:48:37.610
759, 1.79343, 0.0431647, 81.6853, -0.00195312, -0.000976562, -0.000976562, 0.0146484, 0.306641, -9.7373, 1.18.2022 20:48:37.618
760, 1.79343, 0.0431647, 81.6853, -0.000976562, 0, -0.000976562, -0.00390625, 0.280273, -9.71191, 1.18.2022 20:48:37.626
761, 1.79343, 0.0431647, 81.6853, -0.000976562, 0, -0.00195312, -0.0683594, 0.319336, -9.72852, 1.18.2022 20:48:37.634
762, 1.79343, 0.0431647, 81.6853, -0.000976562, -0.000976562, -0.000976562, 0.0410156, 0.282227, -9.71484, 1.18.2022 20:48:37.642
763, 1.79343, 0.0431647, 81.6853, 0, 0, -0.000976562, -0.0234375, 0.302734, -9.74414, 1.18.2022 20:48:37.650
764, 1.79343, 0.0431647, 81.6853, 0, 0, -0.000976562, -0.0498047, 0.322266, -9.75, 1.18.2022 20:48:37.658
765, 1.79343, 0.0431647, 81.6853, 0, -0.000976562, 0.000976562, 0.00976562, 0.290039, -9.7207, 1.18.2022 20:48:37.666
766, 1.79343, 0.0431647, 81.6853, -0.000976562, -0.000976562, -0.000976562, -0.0478516, 0.300781, -9.75293, 1.18.2022 20:48:37.674
767, 1.79343, 0.0431647, 81.6853, -0.000976562, 0, -0.000976562, 0.0117188, 0.314453, -9.75293, 1.18.2022 20:48:37.682
768, 1.79343, 0.0431647, 81.6853, 0, 0, -0.000976562, 0.00976562, 0.292969, -9.75195, 1.18.2022 20:48:37.690
769, 1.79343, 0.0431647, 81.6853, 0, 0, -0.000976562, -0.0527344, 0.317383, -9.76367, 1.18.2022 20:48:37.698
770, 1.79343, 0.0431647, 81.6853, 0, 0, 0.000976562, 0.0556641, 0.285156, -9.70996, 1.18.2022 20:48:37.706
771, 1.79343, 0.0431647, 81.6853, 0, -0.000976562, -0.000976562, -0.0195312, 0.289062, -9.77441, 1.18.2022 20:48:37.714
772, 1.79343, 0.0431647, 81.6853, -0.000976562, -0.00195312, -0.00195312, -0.0322266, 0.327148, -9.69824, 1.18.2022 20:48:37.722
773, 1.79343, 0.0431647, 81.6853, 0, -0.000976562, -0.00195312, 0.0576172, 0.285156, -9.73145, 1.18.2022 20:48:37.730
774, 1.79343, 0.0431647, 81.6853, 0, -0.000976562, -0.000976562, -0.0449219, 0.321289, -9.7334, 1.18.2022 20:48:37.738
775, 1.79343, 0.0431647, 81.6853, 0, 0, -0.000976562, -0.0185547, 0.318359, -9.70801, 1.18.2022 20:48:37.746
776, 1.79343, 0.0431647, 81.6853, 0, -0.000976562, -0.000976562, 0.0146484, 0.283203, -9.73535, 1.18.2022 20:48:37.754
777, 1.79343, 0.0431647, 81.6853, 0, -0.000976562, -0.000976562, -0.0664062, 0.352539, -9.7373, 1.18.2022 20:48:37.762
778, 1.79343, 0.0431647, 81.6853, -0.000976562, 0, -0.000976562, 0.0263672, 0.333984, -9.74121, 1.18.2022 20:48:37.770
779, 1.79343, 0.0431647, 81.6853, -0.000976562, -0.000976562, -0.000976562, -0.0146484, 0.319336, -9.75, 1.18.2022 20:48:37.778
780, 1.79343, 0.0431647, 81.6853, -0.000976562, -0.000976562, -0.00195312, -0.0205078, 0.301758, -9.72266, 1.18.2022 20:48:37.786
781, 1.79343, 0.0431647, 81.6853, -0.00195312, 0, 0, 0.0292969, 0.268555, -9.73633, 1.18.2022 20:48:37.794
782, 1.79343, 0.0431647, 81.6853, -0.00195312, 0, -0.00195312, -0.0664062, 0.30957, -9.74023, 1.18.2022 20:48:37.802
783, 1.79343, 0.0431647, 81.6853, 0, 0, -0.000976562, -0.00976562, 0.298828, -9.7627, 1.18.2022 20:48:37.810
784, 1.79343, 0.0431647, 81.6853, 0, -0.000976562, -0.000976562, 0.0332031, 0.250977, -9.78613, 1.18.2022 20:48:37.818
785, 1.79343, 0.0431647, 81.6853, -0.000976562, -0.000976562, -0.000976562, -0.0664062, 0.326172, -9.7334, 1.18.2022 20:48:37.826
786, 1.79368, 0.0432342, 81.6951, 0, 0, -0.000976562, -0.00683594, 0.297852, -9.76074, 1.18.2022 20:48:37.834
787, 1.79346, 0.0433188, 81.6959, -0.000976562, -0.000976562, -0.000976562, -0.0117188, 0.292969, -9.74219, 1.18.2022 20:48:37.842
788, 1.79346, 0.0433188, 81.6959, 0, -0.000976562, -0.00195312, -0.078125, 0.3125, -9.74219, 1.18.2022 20:48:37.850
789, 1.79346, 0.0433188, 81.6959, 0, 0, -0.000976562, 0.0380859, 0.268555, -9.73145, 1.18.2022 20:48:37.858
790, 1.78817, 0.0387451, 81.6961, 0, 0, -0.000976562, -0.0419922, 0.306641, -9.72461, 1.18.2022 20:48:37.866
791, 1.78817, 0.0387451, 81.6961, 0, 0, -0.000976562, -0.0253906, 0.313477, -9.72168, 1.18.2022 20:48:37.874
792, 1.78817, 0.0387451, 81.6961, 0, 0, -0.000976562, 0.0166016, 0.283203, -9.74707, 1.18.2022 20:48:37.882
793, 1.78817, 0.0387451, 81.6961, -0.000976562, -0.000976562, -0.000976562, -0.0644531, 0.3125, -9.73535, 1.18.2022 20:48:37.888
794, 1.78817, 0.0387451, 81.6961, -0.000976562, -0.000976562, -0.000976562, -0.00195312, 0.313477, -9.72461, 1.18.2022 20:48:37.896
795, 1.78817, 0.0387451, 81.6961, -0.000976562, -0.000976562, -0.00195312, -0.0117188, 0.300781, -9.75781, 1.18.2022 20:48:37.904
796, 1.78817, 0.0387451, 81.6961, -0.000976562, -0.000976562, -0.000976562, -0.0683594, 0.314453, -9.73047, 1.18.2022 20:48:37.912
797, 1.78817, 0.0387451, 81.6961, 0, 0, -0.000976562, 0.0380859, 0.27832, -9.74512, 1.18.2022 20:48:37.920
798, 1.78817, 0.0387451, 81.6961, -0.00195312, -0.000976562, -0.000976562, 0.00488281, 0.301758, -9.73242, 1.18.2022 20:48:37.928
799, 1.79346, 0.0433188, 81.6959, -0.00195312, 0, 0, -0.0380859, 0.329102, -9.73828, 1.18.2022 20:48:37.936
800, 1.79346, 0.0433188, 81.6959, -0.000976562, 0, -0.000976562, 0.0478516, 0.297852, -9.75195, 1.18.2022 20:48:37.944
801, 1.79346, 0.0433188, 81.6959, -0.000976562, -0.000976562, 0, -0.0478516, 0.329102, -9.74023, 1.18.2022 20:48:37.952
802, 1.79346, 0.0433188, 81.6959, 0, -0.000976562, 0, -0.0185547, 0.337891, -9.72852, 1.18.2022 20:48:37.960
803, 1.79368, 0.0432342, 81.6951, 0, -0.000976562, 0, 0.00976562, 0.292969, -9.75391, 1.18.2022 20:48:37.968
804, 1.79368, 0.0432342, 81.6951, -0.000976562, 0, 0, -0.0693359, 0.333984, -9.74219, 1.18.2022 20:48:37.976
805, 1.79368, 0.0432342, 81.6951, -0.000976562, -0.000976562, 0, 0.0429688, 0.316406, -9.73535, 1.18.2022 20:48:37.984
806, 1.79368, 0.0432342, 81.6951, -0.000976562, 0, 0, -0.0107422, 0.303711, -9.71094, 1.18.2022 20:48:37.992
807, 1.79343, 0.0431647, 81.6853, -0.000976562, 0, 0, -0.0566406, 0.333984, -9.73535, 1.18.2022 20:48:38.000
808, 1.79343, 0.0431647, 81.6853, -0.000976562, -0.000976562, 0, 0.0332031, 0.264648, -9.76465, 1.18.2022 20:48:38.008
809, 1.79343, 0.0431647, 81.6853, -0.000976562, 0, 0.000976562, -0.0429688, 0.291016, -9.75781, 1.18.2022 20:48:38.016
810, 1.79343, 0.0431647, 81.6853, -0.000976562, 0, 0, -0.0185547, 0.321289, -9.72949, 1.18.2022 20:48:38.024
811, 1.79343, 0.0431647, 81.6853, 0, 0, 0, 0.0400391, 0.28125, -9.76172, 1.18.2022 20:48:38.032
812, 1.79343, 0.0431647, 81.6853, 0, 0, 0, -0.0546875, 0.317383, -9.74023, 1.18.2022 20:48:38.040
813, 1.79343, 0.0431647, 81.6853, -0.000976562, 0, 0, 0.0273438, 0.308594, -9.70703, 1.18.2022 20:48:38.048
814, 1.79343, 0.0431647, 81.6853, -0.000976562, 0, 0, 0.00195312, 0.307617, -9.76758, 1.18.2022 20:48:38.056
815, 1.79343, 0.0431647, 81.6853, -0.000976562, -0.000976562, 0, -0.0302734, 0.326172, -9.73828, 1.18.2022 20:48:38.064
816, 1.79343, 0.0431647, 81.6853, -0.000976562, -0.000976562, 0.000976562, 0.0429688, 0.283203, -9.74316, 1.18.2022 20:48:38.072
817, 1.79343, 0.0431647, 81.6853, 0, -0.000976562, 0, -0.0185547, 0.30957, -9.73633, 1.18.2022 20:48:38.080
818, 1.79343, 0.0431647, 81.6853, 0, 0, 0, -0.0263672, 0.316406, -9.74121, 1.18.2022 20:48:38.088
819, 1.79343, 0.0431647, 81.6853, 0, 0, 0, 0.0380859, 0.302734, -9.74219, 1.18.2022 20:48:38.096
820, 1.79343, 0.0431647, 81.6853, -0.000976562, -0.000976562, 0, -0.0712891, 0.313477, -9.71875, 1.18.2022 20:48:38.104
821, 1.79343, 0.0431647, 81.6853, -0.000976562, -0.00195312, 0, -0.00390625, 0.314453, -9.73438, 1.18.2022 20:48:38.112
822, 1.79343, 0.0431647, 81.6853, -0.000976562, -0.00195312, 0, 0.00976562, 0.306641, -9.7373, 1.18.2022 20:48:38.120
823, 1.79343, 0.0431647, 81.6853, -0.00195312, -0.000976562, 0, -0.0615234, 0.323242, -9.70996, 1.18.2022 20:48:38.128
824, 1.79343, 0.0431647, 81.6853, -0.000976562, -0.000976562, 0, 0, 0.304688, -9.74414, 1.18.2022 20:48:38.136
825, 1.79343, 0.0431647, 81.6853, -0.000976562, -0.00195312, 0, -0.0283203, 0.302734, -9.74609, 1.18.2022 20:48:38.144
826, 1.79343, 0.0431647, 81.6853, -0.000976562, -0.000976562, 0.000976562, -0.0273438, 0.323242, -9.7002, 1.18.2022 20:48:38.152
827, 1.79343, 0.0431647, 81.6853, -0.000976562, 0, 0.000976562, 0.0380859, 0.288086, -9.74707, 1.18.2022 20:48:38.160
828, 1.79343, 0.0431647, 81.6853, -0.000976562, 0, 0, -0.0478516, 0.310547, -9.75293, 1.18.2022 20:48:38.168
829, 1.79343, 0.0431647, 81.6853, -0.000976562, 0, 0, 0.0146484, 0.311523, -9.72754, 1.18.2022 20:48:38.176
830, 1.79343, 0.0431647, 81.6853, -0.000976562, 0, 0, 0.000976562, 0.291992, -9.71387, 1.18.2022 20:48:38.184
831, 1.79343, 0.0431647, 81.6853, 0, 0, 0, -0.0585938, 0.318359, -9.72363, 1.18.2022 20:48:38.192
832, 1.79343, 0.0431647, 81.6853, 0, -0.000976562, 0, 0.0263672, 0.283203, -9.7334, 1.18.2022 20:48:38.200
833, 1.79343, 0.0431647, 81.6853, -0.000976562, 0, -0.000976562, -0.00976562, 0.307617, -9.74414, 1.18.2022 20:48:38.208
834, 1.79343, 0.0431647, 81.6853, 0, 0, -0.000976562, -0.0253906, 0.299805, -9.72266, 1.18.2022 20:48:38.216
835, 1.79343, 0.0431647, 81.6853, 0, 0, -0.00195312, 0.0429688, 0.298828, -9.77051, 1.18.2022 20:48:38.224
836, 1.79343, 0.0431647, 81.6853, 0, 0, -0.000976562, -0.0595703, 0.319336, -9.75488, 1.18.2022 20:48:38.232
837, 1.79343, 0.0431647, 81.6853, -0.000976562, 0, -0.000976562, -0.03125, 0.333984, -9.75, 1.18.2022 20:48:38.240
838, 1.79343, 0.0431647, 81.6853, -0.000976562, -0.000976562, -0.00195312, 0.0283203, 0.297852, -9.74512, 1.18.2022 20:48:38.248
839, 1.79343, 0.0431647, 81.6853, -0.000976562, -0.000976562, -0.000976562, -0.0419922, 0.352539, -9.72754, 1.18.2022 20:48:38.256
840, 1.79343, 0.0431647, 81.6853, -0.000976562, -0.000976562, -0.000976562, 0.0322266, 0.320312, -9.69922, 1.18.2022 20:48:38.264
841, 1.79343, 0.0431647, 81.6853, -0.000976562, -0.000976562, -0.000976562, 0.00488281, 0.292969, -9.74902, 1.18.2022 20:48:38.272
842, 1.79343, 0.0431647, 81.6853, -0.000976562, 0, -0.000976562, -0.0205078, 0.287109, -9.71582, 1.18.2022 20:48:38.280
843, 1.79368, 0.0432342, 81.6951, 0, -0.000976562, -0.000976562, 0.0380859, 0.276367, -9.73633, 1.18.2022 20:48:38.288
844, 1.79368, 0.0432342, 81.6951, -0.000976562, -0.000976562, -0.000976562, -0.0449219, 0.294922, -9.71289, 1.18.2022 20:48:38.296
845, 1.79368, 0.0432342, 81.6951, -0.000976562, -0.000976562, -0.000976562, -0.0283203, 0.31543, -9.75781, 1.18.2022 20:48:38.304
846, 1.79368, 0.0432342, 81.6951, 0, 0, -0.00195312, 0.0341797, 0.275391, -9.72656, 1.18.2022 20:48:38.312
847, 1.79368, 0.0432342, 81.6951, -0.000976562, 0, -0.00195312, -0.0615234, 0.299805, -9.73828, 1.18.2022 20:48:38.320
848, 1.79368, 0.0432342, 81.6951, -0.000976562, -0.000976562, -0.000976562, -0.00488281, 0.302734, -9.73926, 1.18.2022 20:48:38.328
849, 1.79346, 0.0433188, 81.6959, -0.000976562, -0.000976562, -0.000976562, -0.00292969, 0.306641, -9.78613, 1.18.2022 20:48:38.336
850, 1.79346, 0.0433188, 81.6959, 0, -0.000976562, -0.000976562, -0.0517578, 0.333008, -9.7334, 1.18.2022 20:48:38.344
851, 1.79346, 0.0433188, 81.6959, -0.000976562, -0.00195312, -0.000976562, 0.0253906, 0.269531, -9.77344, 1.18.2022 20:48:38.352
852, 1.79346, 0.0433188, 81.6959, 0, -0.00195312, -0.000976562, -0.0136719, 0.30957, -9.72754, 1.18.2022 20:48:38.360
853, 1.79346, 0.0433188, 81.6959, -0.000976562, -0.000976562, -0.000976562, -0.0253906, 0.316406, -9.7334, 1.18.2022 20:48:38.368
854, 1.79346, 0.0433188, 81.6959, 0, -0.000976562, -0.000976562, 0.0410156, 0.302734, -9.74219, 1.18.2022 20:48:38.376
855, 1.79346, 0.0433188, 81.6959, -0.000976562, 0, -0.000976562, -0.0478516, 0.307617, -9.75488, 1.18.2022 20:48:38.384
856, 1.79346, 0.0433188, 81.6959, -0.00195312, -0.000976562, -0.000976562, -0.0117188, 0.319336, -9.72949, 1.18.2022 20:48:38.392
857, 1.79346, 0.0433188, 81.6959, -0.00195312, -0.000976562, -0.000976562, 0.03125, 0.302734, -9.76367, 1.18.2022 20:48:38.400
858, 1.79875, 0.0478924, 81.6957, -0.000976562, -0.000976562, -0.000976562, -0.0712891, 0.311523, -9.7334, 1.18.2022 20:48:38.408
859, 1.79875, 0.0478924, 81.6957, -0.000976562, -0.000976562, -0.00195312, 0.0224609, 0.301758, -9.71582, 1.18.2022 20:48:38.416
860, 1.79875, 0.0478924, 81.6957, -0.000976562, -0.000976562, -0.000976562, -0.00683594, 0.292969, -9.75098, 1.18.2022 20:48:38.424
861, 1.79875, 0.0478924, 81.6957, -0.000976562, -0.000976562, -0.000976562, -0.0380859, 0.319336, -9.74316, 1.18.2022 20:48:38.432
862, 1.79875, 0.0478924, 81.6957, 0, -0.000976562, -0.000976562, 0.0351562, 0.262695, -9.7793, 1.18.2022 20:48:38.440
863, 1.79875, 0.0478924, 81.6957, -0.000976562, -0.000976562, -0.000976562, -0.0380859, 0.310547, -9.75781, 1.18.2022 20:48:38.448
864, 1.79875, 0.0478924, 81.6957, -0.000976562, 0, -0.000976562, -0.0205078, 0.318359, -9.71973, 1.18.2022 20:48:38.456
865, 1.79875, 0.0478924, 81.6957, 0, -0.000976562, 0.000976562, 0.0361328, 0.283203, -9.75, 1.18.2022 20:48:38.464
866, 1.79875, 0.0478924, 81.6957, 0, -0.000976562, 0, -0.0556641, 0.297852, -9.66309, 1.18.2022 20:48:38.472
867, 1.79878, 0.048047, 81.7063, -0.000976562, -0.000976562, 0, -0.00195312, 0.313477, -9.70801, 1.18.2022 20:48:38.480
868, 1.79878, 0.048047, 81.7063, 0, -0.000976562, -0.000976562, 0.0195312, 0.302734, -9.75391, 1.18.2022 20:48:38.488
869, 1.79878, 0.048047, 81.7063, -0.000976562, 0, 0, -0.0507812, 0.333008, -9.79004, 1.18.2022 20:48:38.496
870, 1.79878, 0.048047, 81.7063, -0.000976562, -0.000976562, 0, 0.0458984, 0.285156, -9.74023, 1.18.2022 20:48:38.504
871, 1.79878, 0.048047, 81.7063, -0.000976562, 0, 0, -0.0263672, 0.3125, -9.75098, 1.18.2022 20:48:38.512
872, 1.79881, 0.0482015, 81.7169, -0.00195312, -0.000976562, 0, -0.0214844, 0.3125, -9.75293, 1.18.2022 20:48:38.520
873, 1.79881, 0.0482015, 81.7169, -0.000976562, -0.000976562, 0, 0.0341797, 0.272461, -9.69141, 1.18.2022 20:48:38.528
874, 1.79881, 0.0482015, 81.7169, -0.000976562, -0.000976562, 0, -0.0380859, 0.292969, -9.75586, 1.18.2022 20:48:38.536
875, 1.79881, 0.0482015, 81.7169, -0.000976562, 0, -0.000976562, 0.00683594, 0.325195, -9.76758, 1.18.2022 20:48:38.544
876, 1.79881, 0.0482015, 81.7169, -0.000976562, -0.000976562, 0, 0.0146484, 0.311523, -9.71582, 1.18.2022 20:48:38.552
877, 1.79881, 0.0482015, 81.7169, -0.000976562, 0, 0.000976562, -0.03125, 0.327148, -9.75977, 1.18.2022 20:48:38.560
878, 1.79881, 0.0482015, 81.7169, -0.000976562, 0, 0, 0.0322266, 0.279297, -9.68359, 1.18.2022 20:48:38.568
879, 1.79881, 0.0482015, 81.7169, -0.000976562, -0.000976562, 0.000976562, -0.0166016, 0.304688, -9.72754, 1.18.2022 20:48:38.576
880, 1.79881, 0.0482015, 81.7169, 0, 0, 0.000976562, -0.0400391, 0.311523, -9.73145, 1.18.2022 20:48:38.584
881, 1.79881, 0.0482015, 81.7169, -0.000976562, 0, 0, 0.0332031, 0.304688, -9.74414, 1.18.2022 20:48:38.592
882, 1.79881, 0.0482015, 81.7169, 0, 0, -0.000976562, -0.0449219, 0.323242, -9.70703, 1.18.2022 20:48:38.600
883, 1.79352, 0.043627, 81.7171, 0, -0.000976562, 0, 0.0126953, 0.31543, -9.70117, 1.18.2022 20:48:38.608
884, 1.79881, 0.0482015, 81.7169, -0.000976562, -0.00195312, 0, 0.0283203, 0.305664, -9.75586, 1.18.2022 20:48:38.616
885, 1.79881, 0.0482015, 81.7169, -0.000976562, -0.000976562, 0, -0.0595703, 0.326172, -9.73047, 1.18.2022 20:48:38.624
886, 1.79881, 0.0482015, 81.7169, -0.000976562, 0.000976562, 0, 0.0263672, 0.301758, -9.7207, 1.18.2022 20:48:38.632
887, 1.79352, 0.043627, 81.7171, 0, 0, 0, -0.0166016, 0.307617, -9.7627, 1.18.2022 20:48:38.640
888, 1.79352, 0.043627, 81.7171, -0.000976562, 0, 0, -0.0400391, 0.326172, -9.7168, 1.18.2022 20:48:38.648
889, 1.79352, 0.043627, 81.7171, 0, 0, 0, 0.0361328, 0.304688, -9.7373, 1.18.2022 20:48:38.656
890, 1.79352, 0.043627, 81.7171, 0, 0, 0.000976562, -0.0566406, 0.331055, -9.73535, 1.18.2022 20:48:38.664
891, 1.79352, 0.043627, 81.7171, 0, 0, 0, 0.0185547, 0.3125, -9.76562, 1.18.2022 20:48:38.672
892, 1.79352, 0.043627, 81.7171, 0, 0, 0, 0.00976562, 0.279297, -9.75879, 1.18.2022 20:48:38.680
893, 1.79352, 0.043627, 81.7171, 0, -0.000976562, -0.000976562, -0.0527344, 0.293945, -9.76758, 1.18.2022 20:48:38.688
894, 1.79352, 0.043627, 81.7171, 0, -0.000976562, 0, 0.0117188, 0.305664, -9.75879, 1.18.2022 20:48:38.696
895, 1.79352, 0.043627, 81.7171, 0, -0.000976562, 0, -0.00488281, 0.296875, -9.78418, 1.18.2022 20:48:38.704
896, 1.79352, 0.043627, 81.7171, -0.000976562, 0, 0, -0.0478516, 0.292969, -9.73926, 1.18.2022 20:48:38.712
897, 1.79352, 0.043627, 81.7171, -0.000976562, -0.000976562, 0.000976562, 0.0458984, 0.299805, -9.72363, 1.18.2022 20:48:38.720
898, 1.79352, 0.043627, 81.7171, 0, -0.000976562, -0.000976562, -0.0126953, 0.301758, -9.78613, 1.18.2022 20:48:38.728
899, 1.79352, 0.043627, 81.7171, -0.000976562, -0.000976562, -0.000976562, 0, 0.306641, -9.72949, 1.18.2022 20:48:38.736
900, 1.79352, 0.043627, 81.7171, -0.000976562, -0.000976562, -0.000976562, 0.0283203, 0.279297, -9.7832, 1.18.2022 20:48:38.744
901, 1.79352, 0.043627, 81.7171, -0.000976562, -0.000976562, -0.000976562, -0.0595703, 0.308594, -9.7666, 1.18.2022 20:48:38.752
902, 1.7933, 0.0437115, 81.7178, 0, -0.000976562, -0.000976562, 0.0263672, 0.316406, -9.7373, 1.18.2022 20:48:38.760
903, 1.79355, 0.0437811, 81.7276, 0, -0.000976562, -0.000976562, -0.0146484, 0.289062, -9.7627, 1.18.2022 20:48:38.768
904, 1.79355, 0.0437811, 81.7276, -0.000976562, 0, -0.000976562, -0.0449219, 0.304688, -9.72949, 1.18.2022 20:48:38.776
905, 1.79355, 0.0437811, 81.7276, 0, -0.000976562, 0.000976562, 0.0439453, 0.306641, -9.72363, 1.18.2022 20:48:38.784
906, 1.79355, 0.0437811, 81.7276, 0, -0.000976562, -0.000976562, -0.0136719, 0.276367, -9.73242, 1.18.2022 20:48:38.792
907, 1.79355, 0.0437811, 81.7276, -0.000976562, -0.000976562, -0.000976562, -0.0234375, 0.326172, -9.72168, 1.18.2022 20:48:38.800
908, 1.79355, 0.0437811, 81.7276, 0, -0.000976562, 0.000976562, 0.0410156, 0.275391, -9.70801, 1.18.2022 20:48:38.808
909, 1.79355, 0.0437811, 81.7276, -0.000976562, 0, -0.000976562, -0.0517578, 0.277344, -9.70898, 1.18.2022 20:48:38.816
910, 1.79355, 0.0437811, 81.7276, 0, 0, -0.00195312, -0.015625, 0.303711, -9.69922, 1.18.2022 20:48:38.824
911, 1.79355, 0.0437811, 81.7276, -0.000976562, 0, -0.000976562, 0.00585938, 0.302734, -9.68555, 1.18.2022 20:48:38.832
912, 1.79333, 0.0438656, 81.7284, 0, -0.000976562, -0.000976562, -0.0722656, 0.303711, -9.68359, 1.18.2022 20:48:38.840
913, 1.79333, 0.0438656, 81.7284, 0, 0, -0.000976562, 0.0341797, 0.296875, -9.72363, 1.18.2022 20:48:38.848
914, 1.79333, 0.0438656, 81.7284, -0.000976562, -0.000976562, -0.000976562, -0.0166016, 0.300781, -9.75586, 1.18.2022 20:48:38.856
915, 1.79333, 0.0438656, 81.7284, -0.00195312, -0.000976562, -0.000976562, -0.0380859, 0.302734, -9.75098, 1.18.2022 20:48:38.864
916, 1.79333, 0.0438656, 81.7284, -0.000976562, 0, -0.000976562, 0.0527344, 0.283203, -9.74316, 1.18.2022 20:48:38.870
917, 1.79333, 0.0438656, 81.7284, 0, 0, -0.000976562, -0.0332031, 0.288086, -9.75098, 1.18.2022 20:48:38.880
918, 1.79358, 0.0439352, 81.7382, 0, -0.000976562, -0.000976562, -0.00683594, 0.333008, -9.7334, 1.18.2022 20:48:38.886
919, 1.79358, 0.0439352, 81.7382, 0, 0, -0.00195312, 0.0576172, 0.304688, -9.75195, 1.18.2022 20:48:38.894
920, 1.79358, 0.0439352, 81.7382, 0, 0, -0.00195312, -0.0585938, 0.328125, -9.7168, 1.18.2022 20:48:38.902
921, 1.79358, 0.0439352, 81.7382, -0.000976562, 0, -0.000976562, 0.00292969, 0.290039, -9.7207, 1.18.2022 20:48:38.910
922, 1.79358, 0.0439352, 81.7382, -0.000976562, 0, -0.000976562, -0.0195312, 0.317383, -9.7627, 1.18.2022 20:48:38.918
923, 1.79358, 0.0439352, 81.7382, -0.000976562, -0.000976562, -0.000976562, -0.0419922, 0.317383, -9.68652, 1.18.2022 20:48:38.926
924, 1.79358, 0.0439352, 81.7382, 0, 0, -0.000976562, 0.0625, 0.290039, -9.73828, 1.18.2022 20:48:38.934
925, 1.79358, 0.0439352, 81.7382, 0, -0.000976562, -0.000976562, -0.0263672, 0.290039, -9.73926, 1.18.2022 20:48:38.942
926, 1.79358, 0.0439352, 81.7382, -0.000976562, 0, -0.000976562, -0.00195312, 0.306641, -9.72266, 1.18.2022 20:48:38.950
927, 1.79358, 0.0439352, 81.7382, -0.000976562, -0.000976562, 0.000976562, 0.0429688, 0.276367, -9.74805, 1.18.2022 20:48:38.958
928, 1.79358, 0.0439352, 81.7382, -0.000976562, -0.000976562, 0.000976562, -0.0644531, 0.317383, -9.75879, 1.18.2022 20:48:38.966
929, 1.79358, 0.0439352, 81.7382, -0.000976562, 0, -0.000976562, 0.0214844, 0.291016, -9.76562, 1.18.2022 20:48:38.974
930, 1.79358, 0.0439352, 81.7382, -0.000976562, 0, -0.000976562, 0.0214844, 0.289062, -9.75879, 1.18.2022 20:48:38.982
931, 1.79358, 0.0439352, 81.7382, -0.000976562, 0, -0.00195312, -0.046875, 0.318359, -9.70508, 1.18.2022 20:48:38.990
932, 1.79358, 0.0439352, 81.7382, -0.000976562, 0, -0.000976562, 0.0507812, 0.285156, -9.7334, 1.18.2022 20:48:38.998
933, 1.79358, 0.0439352, 81.7382, -0.000976562, 0, -0.000976562, -0.00195312, 0.294922, -9.7373, 1.18.2022 20:48:39.006
934, 1.79358, 0.0439352, 81.7382, -0.000976562, -0.000976562, -0.000976562, -0.00976562, 0.324219, -9.75, 1.18.2022 20:48:39.014
935, 1.79358, 0.0439352, 81.7382, 0, -0.00195312, -0.000976562, 0.0410156, 0.299805, -9.74512, 1.18.2022 20:48:39.022
936, 1.79358, 0.0439352, 81.7382, -0.000976562, -0.000976562, -0.000976562, -0.0332031, 0.324219, -9.73828, 1.18.2022 20:48:39.030
937, 1.79358, 0.0439352, 81.7382, -0.000976562, 0, -0.000976562, 0.00488281, 0.304688, -9.74414, 1.18.2022 20:48:39.038
938, 1.79358, 0.0439352, 81.7382, -0.000976562, -0.000976562, -0.000976562, 0.00683594, 0.274414, -9.75684, 1.18.2022 20:48:39.046
939, 1.79358, 0.0439352, 81.7382, -0.000976562, 0, -0.00195312, -0.0683594, 0.30957, -9.7334, 1.18.2022 20:48:39.054
940, 1.79358, 0.0439352, 81.7382, -0.000976562, -0.000976562, -0.00195312, 0.0126953, 0.275391, -9.72363, 1.18.2022 20:48:39.062
941, 1.79358, 0.0439352, 81.7382, -0.000976562, -0.000976562, -0.000976562, -0.0263672, 0.297852, -9.74121, 1.18.2022 20:48:39.070
942, 1.79358, 0.0439352, 81.7382, -0.000976562, -0.000976562, -0.000976562, -0.0419922, 0.323242, -9.72656, 1.18.2022 20:48:39.078
943, 1.79358, 0.0439352, 81.7382, -0.000976562, -0.000976562, -0.000976562, 0.0341797, 0.308594, -9.71582, 1.18.2022 20:48:39.086
944, 1.79358, 0.0439352, 81.7382, -0.000976562, 0, 0.000976562, -0.0429688, 0.288086, -9.74414, 1.18.2022 20:48:39.094
945, 1.79358, 0.0439352, 81.7382, -0.000976562, 0, 0.000976562, -0.0361328, 0.305664, -9.75977, 1.18.2022 20:48:39.102
946, 1.79358, 0.0439352, 81.7382, -0.000976562, 0, -0.000976562, 0.0263672, 0.290039, -9.71875, 1.18.2022 20:48:39.110
947, 1.79358, 0.0439352, 81.7382, -0.000976562, -0.000976562, -0.000976562, -0.0732422, 0.341797, -9.69922, 1.18.2022 20:48:39.118
948, 1.79358, 0.0439352, 81.7382, -0.000976562, -0.000976562, -0.000976562, 0, 0.302734, -9.73926, 1.18.2022 20:48:39.126
949, 1.79358, 0.0439352, 81.7382, 0, 0, -0.00195312, -0.00683594, 0.337891, -9.71973, 1.18.2022 20:48:39.134
950, 1.79358, 0.0439352, 81.7382, -0.000976562, 0, -0.000976562, -0.0234375, 0.311523, -9.72461, 1.18.2022 20:48:39.142
951, 1.79815, 0.0386469, 81.7382, -0.000976562, 0, -0.000976562, 0.0644531, 0.275391, -9.72461, 1.18.2022 20:48:39.150
952, 1.79815, 0.0386469, 81.7382, -0.000976562, -0.000976562, -0.00195312, -0.0234375, 0.292969, -9.74121, 1.18.2022 20:48:39.158
953, 1.79815, 0.0386469, 81.7382, -0.000976562, -0.000976562, 0.000976562, -0.0166016, 0.299805, -9.72949, 1.18.2022 20:48:39.166
954, 1.79815, 0.0386469, 81.7382, 0, -0.000976562, 0.000976562, 0.0507812, 0.296875, -9.71484, 1.18.2022 20:48:39.174
955, 1.79815, 0.0386469, 81.7382, -0.000976562, 0, -0.000976562, -0.0498047, 0.329102, -9.75684, 1.18.2022 20:48:39.182
956, 1.79815, 0.0386469, 81.7382, -0.000976562, 0, -0.000976562, 0.00292969, 0.301758, -9.70605, 1.18.2022 20:48:39.190
957, 1.79815, 0.0386469, 81.7382, -0.000976562, 0, -0.000976562, -0.00488281, 0.28125, -9.73535, 1.18.2022 20:48:39.198
958, 1.79815, 0.0386469, 81.7382, -0.000976562, -0.000976562, 0.000976562, -0.0585938, 0.335938, -9.72559, 1.18.2022 20:48:39.206
959, 1.79815, 0.0386469, 81.7382, -0.000976562, 0, -0.000976562, 0.0429688, 0.299805, -9.74707, 1.18.2022 20:48:39.214
960, 1.79815, 0.0386469, 81.7382, -0.00195312, 0, 0, -0.0253906, 0.30957, -9.72949, 1.18.2022 20:48:39.222
961, 1.79815, 0.0386469, 81.7382, -0.000976562, 0, 0, -0.0214844, 0.306641, -9.73438, 1.18.2022 20:48:39.230
962, 1.79815, 0.0386469, 81.7382, -0.000976562, 0, 0.000976562, 0.0380859, 0.254883, -9.75098, 1.18.2022 20:48:39.238
963, 1.79815, 0.0386469, 81.7382, -0.000976562, -0.000976562, -0.000976562, -0.0683594, 0.292969, -9.72168, 1.18.2022 20:48:39.246
964, 1.79815, 0.0386469, 81.7382, 0.000976562, 0, 0, 0.0146484, 0.294922, -9.7207, 1.18.2022 20:48:39.254
965, 1.79815, 0.0386469, 81.7382, 0.000976562, 0, 0, -0.00683594, 0.288086, -9.73242, 1.18.2022 20:48:39.262
966, 1.79815, 0.0386469, 81.7382, -0.000976562, 0, -0.00195312, -0.0478516, 0.310547, -9.75293, 1.18.2022 20:48:39.270
967, 1.79815, 0.0386469, 81.7382, -0.000976562, -0.00195312, -0.000976562, 0.0361328, 0.30957, -9.75195, 1.18.2022 20:48:39.278
968, 1.79815, 0.0386469, 81.7382, 0.000976562, -0.000976562, -0.000976562, 0.00976562, 0.30957, -9.73438, 1.18.2022 20:48:39.286
969, 1.79815, 0.0386469, 81.7382, 0.000976562, -0.000976562, -0.000976562, -0.0214844, 0.311523, -9.73145, 1.18.2022 20:48:39.294
970, 1.79815, 0.0386469, 81.7382, 0.000976562, -0.000976562, -0.000976562, 0.0458984, 0.275391, -9.73145, 1.18.2022 20:48:39.302
971, 1.79358, 0.0439352, 81.7382, -0.000976562, -0.000976562, -0.000976562, -0.0244141, 0.293945, -9.76953, 1.18.2022 20:48:39.310
972, 1.79358, 0.0439352, 81.7382, -0.00195312, -0.000976562, -0.000976562, -0.0302734, 0.282227, -9.71582, 1.18.2022 20:48:39.318
973, 1.79358, 0.0439352, 81.7382, 0.000976562, -0.000976562, -0.000976562, 0.0175781, 0.325195, -9.71094, 1.18.2022 20:48:39.326
974, 1.79358, 0.0439352, 81.7382, 0.000976562, -0.000976562, -0.000976562, -0.0849609, 0.335938, -9.72754, 1.18.2022 20:48:39.334
975, 1.79358, 0.0439352, 81.7382, 0, 0, -0.00195312, 0.0078125, 0.294922, -9.73047, 1.18.2022 20:48:39.342
976, 1.79358, 0.0439352, 81.7382, 0.000976562, 0, 0, -0.0117188, 0.28125, -9.74707, 1.18.2022 20:48:39.350
977, 1.79358, 0.0439352, 81.7382, -0.000976562, -0.000976562, -0.000976562, -0.0351562, 0.321289, -9.7168, 1.18.2022 20:48:39.358
978, 1.79358, 0.0439352, 81.7382, 0, 0, -0.00292969, 0.0498047, 0.268555, -9.74316, 1.18.2022 20:48:39.366
979, 1.79358, 0.0439352, 81.7382, -0.000976562, 0, -0.00195312, -0.0214844, 0.301758, -9.72949, 1.18.2022 20:48:39.374
980, 1.79358, 0.0439352, 81.7382, -0.000976562, -0.000976562, -0.000976562, -0.0166016, 0.292969, -9.74609, 1.18.2022 20:48:39.382
981, 1.79358, 0.0439352, 81.7382, -0.000976562, 0, 0, 0.0507812, 0.258789, -9.71289, 1.18.2022 20:48:39.390
982, 1.79358, 0.0439352, 81.7382, -0.000976562, 0, 0, -0.0400391, 0.324219, -9.74512, 1.18.2022 20:48:39.398
983, 1.79358, 0.0439352, 81.7382, -0.000976562, 0, 0.000976562, 0.00195312, 0.302734, -9.75391, 1.18.2022 20:48:39.406
984, 1.79358, 0.0439352, 81.7382, -0.000976562, -0.000976562, -0.000976562, 0.0117188, 0.283203, -9.7373, 1.18.2022 20:48:39.414
985, 1.79358, 0.0439352, 81.7382, -0.000976562, -0.000976562, -0.000976562, -0.0517578, 0.329102, -9.74219, 1.18.2022 20:48:39.422
986, 1.79358, 0.0439352, 81.7382, 0.000976562, -0.000976562, -0.000976562, 0.0498047, 0.307617, -9.74902, 1.18.2022 20:48:39.430
987, 1.79358, 0.0439352, 81.7382, 0.000976562, -0.000976562, -0.000976562, -0.0205078, 0.306641, -9.72754, 1.18.2022 20:48:39.438
988, 1.79358, 0.0439352, 81.7382, 0, -0.00195312, -0.00195312, -0.0117188, 0.319336, -9.72949, 1.18.2022 20:48:39.446
989, 1.79358, 0.0439352, 81.7382, -0.000976562, -0.000976562, -0.000976562, 0.0146484, 0.280273, -9.71387, 1.18.2022 20:48:39.454
990, 1.79358, 0.0439352, 81.7382, 0.000976562, -0.00195312, -0.000976562, -0.0410156, 0.293945, -9.77246, 1.18.2022 20:48:39.462
991, 1.79358, 0.0439352, 81.7382, -0.000976562, -0.000976562, -0.000976562, 0.0146484, 0.30957, -9.75391, 1.18.2022 20:48:39.470
992, 1.79358, 0.0439352, 81.7382, -0.000976562, -0.000976562, -0.000976562, -0.00292969, 0.303711, -9.76953, 1.18.2022 20:48:39.478
993, 1.79358, 0.0439352, 81.7382, -0.000976562, -0.000976562, 0, -0.0498047, 0.319336, -9.75195, 1.18.2022 20:48:39.486
994, 1.79358, 0.0439352, 81.7382, 0, -0.000976562, 0, 0.0283203, 0.30957, -9.74902, 1.18.2022 20:48:39.494
995, 1.79358, 0.0439352, 81.7382, -0.000976562, -0.000976562, 0, -0.0117188, 0.288086, -9.74414, 1.18.2022 20:48:39.502
996, 1.79358, 0.0439352, 81.7382, -0.000976562, -0.000976562, 0.000976562, -0.0400391, 0.333008, -9.73535, 1.18.2022 20:48:39.510
997, 1.79358, 0.0439352, 81.7382, -0.000976562, -0.000976562, 0, 0.0429688, 0.283203, -9.73145, 1.18.2022 20:48:39.518
998, 1.79358, 0.0439352, 81.7382, -0.000976562, -0.000976562, 0, -0.0361328, 0.288086, -9.75098, 1.18.2022 20:48:39.526
999, 1.79358, 0.0439352, 81.7382, -0.000976562, -0.000976562, 0, 0.0078125, 0.285156, -9.70898, 1.18.2022 20:48:39.534
1000, 1.79358, 0.0439352, 81.7382, -0.00195312, -0.000976562, -0.000976562, 0, 0.276367, -9.7373, 1.18.2022 20:48:39.542
1001, 1.79358, 0.0439352, 81.7382, -0.000976562, -0.000976562, 0, -0.0449219, 0.304688, -9.71973, 1.18.2022 20:48:39.550
1002, 1.79336, 0.0440197, 81.739, 0, -0.000976562, 0, 0.000976562, 0.306641, -9.71777, 1.18.2022 20:48:39.558
1003, 1.79336, 0.0440197, 81.739, -0.000976562, -0.000976562, 0, -0.00488281, 0.293945, -9.77734, 1.18.2022 20:48:39.566
1004, 1.79361, 0.0440893, 81.7488, -0.000976562, -0.000976562, 0, -0.0380859, 0.333984, -9.74512, 1.18.2022 20:48:39.574
1005, 1.79361, 0.0440893, 81.7488, 0, 0, -0.000976562, 0.0576172, 0.304688, -9.72852, 1.18.2022 20:48:39.582
1006, 1.79339, 0.0441738, 81.7495, -0.000976562, 0, 0, -0.0302734, 0.291992, -9.72266, 1.18.2022 20:48:39.590
1007, 1.79361, 0.0440893, 81.7488, -0.000976562, 0, 0, -0.0078125, 0.31543, -9.76758, 1.18.2022 20:48:39.598
1008, 1.79361, 0.0440893, 81.7488, 0, -0.000976562, 0, 0.0214844, 0.28125, -9.76367, 1.18.2022 20:48:39.606
1009, 1.79361, 0.0440893, 81.7488, 0, -0.000976562, 0, -0.0644531, 0.302734, -9.7334, 1.18.2022 20:48:39.614
1010, 1.79361, 0.0440893, 81.7488, 0, -0.000976562, 0, 0.00683594, 0.295898, -9.77734, 1.18.2022 20:48:39.622
1011, 1.79361, 0.0440893, 81.7488, 0, -0.000976562, 0, 0.0146484, 0.297852, -9.76367, 1.18.2022 20:48:39.630
1012, 1.79361, 0.0440893, 81.7488, -0.000976562, -0.000976562, -0.000976562, -0.0498047, 0.329102, -9.73828, 1.18.2022 20:48:39.638
1013, 1.79339, 0.0441738, 81.7495, -0.000976562, -0.000976562, -0.000976562, 0.0351562, 0.300781, -9.76367, 1.18.2022 20:48:39.646
1014, 1.79339, 0.0441738, 81.7495, -0.000976562, -0.000976562, -0.000976562, -0.00195312, 0.306641, -9.71777, 1.18.2022 20:48:39.654
1015, 1.79339, 0.0441738, 81.7495, 0, -0.000976562, 0, -0.00976562, 0.305664, -9.75586, 1.18.2022 20:48:39.662
1016, 1.79339, 0.0441738, 81.7495, -0.000976562, -0.000976562, 0, 0.0458984, 0.285156, -9.7168, 1.18.2022 20:48:39.670
1017, 1.79339, 0.0441738, 81.7495, -0.000976562, -0.000976562, 0, -0.0517578, 0.333984, -9.74023, 1.18.2022 20:48:39.678
1018, 1.79339, 0.0441738, 81.7495, -0.000976562, -0.000976562, 0, -0.0166016, 0.338867, -9.76855, 1.18.2022 20:48:39.686
1019, 1.79339, 0.0441738, 81.7495, -0.000976562, -0.000976562, 0, 0.0234375, 0.293945, -9.76562, 1.18.2022 20:48:39.694
1020, 1.79339, 0.0441738, 81.7495, -0.000976562, -0.000976562, 0, -0.0712891, 0.324219, -9.74512, 1.18.2022 20:48:39.702
1021, 1.79339, 0.0441738, 81.7495, 0, -0.000976562, 0, 0.0205078, 0.293945, -9.69531, 1.18.2022 20:48:39.710
1022, 1.79339, 0.0441738, 81.7495, -0.000976562, -0.000976562, 0, -0.0185547, 0.30957, -9.72754, 1.18.2022 20:48:39.718
