Seq, Rot x, Rot y, Rot z, Vel x, Vel y, Vel z, Acc x, Acc y, Acc z, Time(m.d.y h:m:s.ms)
0, 1.82333, 0.191141, 71.9507, -0.000976562, -0.00195312, -0.000976562, -0.03125, 0.283203, -9.74414, 1.18.2022 20:35:14.571
1, 1.82333, 0.191141, 71.9507, 0, -0.000976562, -0.000976562, -0.0742188, 0.300781, -9.74512, 1.18.2022 20:35:14.578
2, 1.82333, 0.191141, 71.9507, 0, 0, -0.000976562, 0.0175781, 0.291992, -9.7207, 1.18.2022 20:35:14.586
3, 1.82333, 0.191141, 71.9507, 0, 0, -0.000976562, -0.0712891, 0.34082, -9.72559, 1.18.2022 20:35:14.594
4, 1.82333, 0.191141, 71.9507, 0, -0.000976562, -0.00195312, -0.0615234, 0.307617, -9.73828, 1.18.2022 20:35:14.600
5, 1.82333, 0.191141, 71.9507, -0.000976562, -0.000976562, -0.000976562, -0.0283203, 0.307617, -9.75781, 1.18.2022 20:35:14.608
6, 1.82899, 0.195249, 71.9505, -0.000976562, 0, -0.000976562, -0.0683594, 0.347656, -9.72266, 1.18.2022 20:35:14.616
7, 1.82899, 0.195249, 71.9505, 0, -0.000976562, -0.000976562, -0.0146484, 0.324219, -9.76172, 1.18.2022 20:35:14.624
8, 1.82899, 0.195249, 71.9505, 0, 0, 0, -0.0136719, 0.321289, -9.73633, 1.18.2022 20:35:14.632
9, 1.82899, 0.195249, 71.9505, -0.000976562, 0, -0.000976562, -0.0595703, 0.310547, -9.76465, 1.18.2022 20:35:14.640
10, 1.82899, 0.195249, 71.9505, 0, 0, -0.000976562, 0.00488281, 0.317383, -9.76465, 1.18.2022 20:35:14.648
11, 1.82899, 0.195249, 71.9505, 0, 0.000976562, -0.000976562, -0.0878906, 0.333984, -9.73438, 1.18.2022 20:35:14.656
12, 1.82899, 0.195249, 71.9505, -0.000976562, -0.000976562, -0.000976562, -0.078125, 0.327148, -9.74707, 1.18.2022 20:35:14.664
13, 1.82899, 0.195249, 71.9505, -0.000976562, 0, -0.000976562, -0.015625, 0.298828, -9.70898, 1.18.2022 20:35:14.672
14, 1.82899, 0.195249, 71.9505, -0.000976562, -0.000976562, -0.000976562, -0.078125, 0.311523, -9.72363, 1.18.2022 20:35:14.680
15, 1.82925, 0.195305, 71.96, -0.000976562, -0.000976562, -0.000976562, -0.00976562, 0.300781, -9.76953, 1.18.2022 20:35:14.688
16, 1.82925, 0.195305, 71.96, -0.00195312, -0.000976562, -0.00195312, -0.00390625, 0.298828, -9.71094, 1.18.2022 20:35:14.696
17, 1.82925, 0.195305, 71.96, -0.000976562, -0.000976562, -0.000976562, -0.0859375, 0.348633, -9.75098, 1.18.2022 20:35:14.704
18, 1.83491, 0.199412, 71.9598, -0.000976562, -0.000976562, -0.000976562, 0.00976562, 0.319336, -9.76074, 1.18.2022 20:35:14.712
19, 1.83491, 0.199412, 71.9598, 0, -0.000976562, 0, -0.0332031, 0.314453, -9.74316, 1.18.2022 20:35:14.720
20, 1.83491, 0.199412, 71.9598, -0.000976562, 0, -0.000976562, -0.046875, 0.333008, -9.71191, 1.18.2022 20:35:14.728
21, 1.83491, 0.199412, 71.9598, 0, 0, -0.000976562, 0.00488281, 0.288086, -9.73047, 1.18.2022 20:35:14.736
22, 1.83491, 0.199412, 71.9598, 0, -0.000976562, -0.000976562, -0.106445, 0.335938, -9.73438, 1.18.2022 20:35:14.744
23, 1.83491, 0.199412, 71.9598, -0.000976562, 0, -0.000976562, -0.0380859, 0.324219, -9.73828, 1.18.2022 20:35:14.752
24, 1.83491, 0.199412, 71.9598, 0, 0, -0.00195312, -0.0146484, 0.295898, -9.74609, 1.18.2022 20:35:14.760
25, 1.8347, 0.19951, 71.9616, -0.000976562, 0, -0.00195312, -0.0742188, 0.310547, -9.75488, 1.18.2022 20:35:14.768
26, 1.8347, 0.19951, 71.9616, -0.000976562, 0, 0, 0.0078125, 0.285156, -9.7373, 1.18.2022 20:35:14.776
27, 1.8347, 0.19951, 71.9616, -0.000976562, 0, 0, -0.0332031, 0.307617, -9.75098, 1.18.2022 20:35:14.784
28, 1.84036, 0.203619, 71.9614, -0.000976562, -0.000976562, 0, -0.0644531, 0.3125, -9.7666, 1.18.2022 20:35:14.792
29, 1.84036, 0.203619, 71.9614, -0.000976562, 0, 0, 0.0166016, 0.295898, -9.75195, 1.18.2022 20:35:14.800
30, 1.84036, 0.203619, 71.9614, -0.000976562, -0.000976562, 0, -0.0732422, 0.321289, -9.70898, 1.18.2022 20:35:14.808
31, 1.84036, 0.203619, 71.9614, -0.000976562, 0, 0, -0.0253906, 0.316406, -9.72461, 1.18.2022 20:35:14.816
32, 1.84036, 0.203619, 71.9614, 0, 0, 0, 0.015625, 0.300781, -9.69727, 1.18.2022 20:35:14.824
33, 1.84036, 0.203619, 71.9614, 0, 0, 0, -0.0634766, 0.333008, -9.71387, 1.18.2022 20:35:14.832
34, 1.84036, 0.203619, 71.9614, -0.000976562, -0.00195312, -0.000976562, -0.00878906, 0.302734, -9.73438, 1.18.2022 20:35:14.840
35, 1.84036, 0.203619, 71.9614, -0.000976562, -0.000976562, 0.000976562, -0.0625, 0.295898, -9.76953, 1.18.2022 20:35:14.848
36, 1.84057, 0.20352, 71.9597, 0, -0.000976562, 0.000976562, -0.0625, 0.341797, -9.76562, 1.18.2022 20:35:14.856
37, 1.84057, 0.20352, 71.9597, 0, -0.000976562, 0, 0.0332031, 0.305664, -9.76562, 1.18.2022 20:35:14.864
38, 1.84057, 0.20352, 71.9597, 0, 0, 0.000976562, -0.0625, 0.306641, -9.78125, 1.18.2022 20:35:14.872
39, 1.84057, 0.20352, 71.9597, 0, 0.000976562, 0, -0.0429688, 0.314453, -9.75, 1.18.2022 20:35:14.880
40, 1.84057, 0.20352, 71.9597, -0.000976562, 0, 0, 0.00292969, 0.280273, -9.73047, 1.18.2022 20:35:14.888
41, 1.84057, 0.20352, 71.9597, 0, -0.000976562, 0, -0.0908203, 0.325195, -9.76074, 1.18.2022 20:35:14.896
42, 1.84057, 0.20352, 71.9597, -0.000976562, -0.000976562, 0, -0.0302734, 0.321289, -9.73633, 1.18.2022 20:35:14.904
43, 1.84057, 0.20352, 71.9597, -0.000976562, -0.000976562, -0.00195312, -0.0283203, 0.314453, -9.73145, 1.18.2022 20:35:14.912
44, 1.84057, 0.20352, 71.9597, -0.000976562, -0.000976562, -0.00195312, -0.0595703, 0.305664, -9.76172, 1.18.2022 20:35:14.920
45, 1.84057, 0.20352, 71.9597, 0, 0, 0, 0.0292969, 0.296875, -9.71387, 1.18.2022 20:35:14.928
46, 1.84057, 0.20352, 71.9597, -0.000976562, -0.000976562, 0.000976562, -0.0546875, 0.319336, -9.75488, 1.18.2022 20:35:14.936
47, 1.84057, 0.20352, 71.9597, 0, 0, 0, -0.0351562, 0.316406, -9.72168, 1.18.2022 20:35:14.944
48, 1.84057, 0.20352, 71.9597, 0, -0.000976562, 0, -0.00292969, 0.293945, -9.78906, 1.18.2022 20:35:14.952
49, 1.84057, 0.20352, 71.9597, -0.000976562, -0.000976562, 0, -0.0927734, 0.308594, -9.76855, 1.18.2022 20:35:14.960
50, 1.84057, 0.20352, 71.9597, 0, 0, 0, -0.0478516, 0.319336, -9.74316, 1.18.2022 20:35:14.968
51, 1.84057, 0.20352, 71.9597, -0.000976562, 0, 0.000976562, -0.00390625, 0.333008, -9.73633, 1.18.2022 20:35:14.976
52, 1.84057, 0.20352, 71.9597, 0, -0.000976562, 0, -0.0947266, 0.321289, -9.71582, 1.18.2022 20:35:14.984
53, 1.84057, 0.20352, 71.9597, 0, -0.000976562, 0, 0.00292969, 0.303711, -9.70117, 1.18.2022 20:35:14.992
54, 1.84057, 0.20352, 71.9597, 0, -0.000976562, -0.00195312, -0.0332031, 0.316406, -9.71973, 1.18.2022 20:35:15.000
55, 1.84057, 0.20352, 71.9597, -0.000976562, -0.000976562, 0, -0.0585938, 0.339844, -9.70898, 1.18.2022 20:35:15.008
56, 1.84057, 0.20352, 71.9597, -0.000976562, 0, 0, 0.0166016, 0.292969, -9.73535, 1.18.2022 20:35:15.016
57, 1.84057, 0.20352, 71.9597, -0.000976562, 0, 0, -0.0517578, 0.319336, -9.7334, 1.18.2022 20:35:15.024
58, 1.84057, 0.20352, 71.9597, 0, -0.000976562, -0.000976562, -0.0371094, 0.328125, -9.72168, 1.18.2022 20:35:15.032
59, 1.84057, 0.20352, 71.9597, 0, 0.000976562, -0.000976562, -0.0166016, 0.283203, -9.75098, 1.18.2022 20:35:15.040
60, 1.83491, 0.199412, 71.9598, -0.00195312, 0, -0.000976562, -0.0761719, 0.332031, -9.75879, 1.18.2022 20:35:15.048
61, 1.84057, 0.20352, 71.9597, -0.000976562, 0, -0.000976562, -0.0185547, 0.291992, -9.69727, 1.18.2022 20:35:15.056
62, 1.84057, 0.20352, 71.9597, -0.000976562, 0, -0.000976562, -0.0283203, 0.274414, -9.74414, 1.18.2022 20:35:15.064
63, 1.84057, 0.20352, 71.9597, -0.000976562, -0.000976562, -0.00195312, -0.0517578, 0.338867, -9.74023, 1.18.2022 20:35:15.072
64, 1.84057, 0.20352, 71.9597, -0.000976562, -0.000976562, -0.000976562, 0.0126953, 0.311523, -9.71582, 1.18.2022 20:35:15.080
65, 1.84467, 0.197862, 71.9597, -0.000976562, 0, -0.000976562, -0.0527344, 0.292969, -9.74805, 1.18.2022 20:35:15.088
66, 1.84446, 0.19796, 71.9614, -0.000976562, -0.000976562, -0.00195312, -0.0449219, 0.290039, -9.73438, 1.18.2022 20:35:15.096
67, 1.84446, 0.19796, 71.9614, -0.000976562, -0.000976562, -0.00195312, 0.0117188, 0.267578, -9.75977, 1.18.2022 20:35:15.104
68, 1.84446, 0.19796, 71.9614, -0.000976562, -0.000976562, -0.00195312, -0.0634766, 0.30957, -9.72852, 1.18.2022 20:35:15.112
69, 1.84446, 0.19796, 71.9614, -0.000976562, 0, -0.000976562, -0.0117188, 0.285156, -9.7373, 1.18.2022 20:35:15.120
70, 1.83881, 0.193851, 71.9616, -0.000976562, -0.000976562, 0.000976562, -0.00683594, 0.286133, -9.75195, 1.18.2022 20:35:15.128
71, 1.83881, 0.193851, 71.9616, -0.000976562, 0, 0.000976562, -0.0683594, 0.330078, -9.70703, 1.18.2022 20:35:15.136
72, 1.83881, 0.193851, 71.9616, -0.000976562, -0.000976562, -0.000976562, 0.0185547, 0.305664, -9.76367, 1.18.2022 20:35:15.144
73, 1.8347, 0.19951, 71.9616, -0.000976562, -0.000976562, -0.000976562, -0.0380859, 0.288086, -9.75293, 1.18.2022 20:35:15.152
74, 1.8347, 0.19951, 71.9616, -0.000976562, -0.000976562, 0.000976562, -0.0478516, 0.335938, -9.74707, 1.18.2022 20:35:15.160
75, 1.8347, 0.19951, 71.9616, -0.000976562, -0.000976562, -0.000976562, -0.00195312, 0.304688, -9.74902, 1.18.2022 20:35:15.168
76, 1.8347, 0.19951, 71.9616, 0, -0.000976562, -0.000976562, -0.0947266, 0.304688, -9.73047, 1.18.2022 20:35:15.176
77, 1.8347, 0.19951, 71.9616, 0, 0, -0.00195312, -0.0351562, 0.297852, -9.74414, 1.18.2022 20:35:15.184
78, 1.82904, 0.195402, 71.9617, 0, -0.000976562, -0.00195312, -0.0166016, 0.291016, -9.74609, 1.18.2022 20:35:15.192
79, 1.82904, 0.195402, 71.9617, 0, 0, -0.000976562, -0.0712891, 0.336914, -9.75391, 1.18.2022 20:35:15.200
80, 1.82904, 0.195402, 71.9617, -0.000976562, 0, -0.00195312, 0.0117188, 0.338867, -9.75488, 1.18.2022 20:35:15.208
81, 1.82904, 0.195402, 71.9617, -0.000976562, -0.000976562, -0.00195312, -0.0234375, 0.300781, -9.74805, 1.18.2022 20:35:15.216
82, 1.82904, 0.195402, 71.9617, 0, 0, -0.000976562, -0.0302734, 0.318359, -9.70996, 1.18.2022 20:35:15.224
83, 1.82904, 0.195402, 71.9617, 0, -0.000976562, -0.000976562, 0.0244141, 0.288086, -9.73828, 1.18.2022 20:35:15.232
84, 1.82904, 0.195402, 71.9617, -0.000976562, -0.000976562, -0.000976562, -0.0869141, 0.308594, -9.70215, 1.18.2022 20:35:15.240
85, 1.82904, 0.195402, 71.9617, -0.000976562, -0.000976562, -0.00195312, -0.0585938, 0.304688, -9.71973, 1.18.2022 20:35:15.248
86, 1.82339, 0.191293, 71.9619, -0.000976562, 0, -0.000976562, -0.00683594, 0.294922, -9.73047, 1.18.2022 20:35:15.256
87, 1.82339, 0.191293, 71.9619, -0.00195312, 0, -0.000976562, -0.0996094, 0.323242, -9.7207, 1.18.2022 20:35:15.264
88, 1.82339, 0.191293, 71.9619, -0.000976562, 0, -0.000976562, -0.00195312, 0.337891, -9.74023, 1.18.2022 20:35:15.272
89, 1.82339, 0.191293, 71.9619, -0.000976562, -0.000976562, -0.000976562, -0.00585938, 0.293945, -9.7041, 1.18.2022 20:35:15.280
90, 1.82339, 0.191293, 71.9619, -0.000976562, -0.000976562, 0, -0.0712891, 0.331055, -9.7207, 1.18.2022 20:35:15.288
91, 1.82339, 0.191293, 71.9619, 0, 0, 0, 0.0166016, 0.297852, -9.7373, 1.18.2022 20:35:15.296
92, 1.82339, 0.191293, 71.9619, -0.000976562, 0, 0, -0.0449219, 0.333008, -9.71191, 1.18.2022 20:35:15.304
93, 1.82339, 0.191293, 71.9619, -0.000976562, -0.000976562, 0, -0.03125, 0.327148, -9.75488, 1.18.2022 20:35:15.312
94, 1.82339, 0.191293, 71.9619, 0, -0.000976562, 0, 0.0214844, 0.292969, -9.75195, 1.18.2022 20:35:15.320
95, 1.82339, 0.191293, 71.9619, -0.000976562, -0.000976562, 0, -0.0947266, 0.317383, -9.74219, 1.18.2022 20:35:15.328
96, 1.82339, 0.191293, 71.9619, -0.000976562, 0, 0, -0.00488281, 0.303711, -9.76758, 1.18.2022 20:35:15.336
97, 1.82339, 0.191293, 71.9619, 0, 0, 0, -0.0195312, 0.279297, -9.76367, 1.18.2022 20:35:15.344
98, 1.82339, 0.191293, 71.9619, -0.000976562, -0.000976562, 0, -0.0791016, 0.320312, -9.77734, 1.18.2022 20:35:15.352
99, 1.82339, 0.191293, 71.9619, -0.000976562, -0.000976562, 0, 0.0292969, 0.290039, -9.74023, 1.18.2022 20:35:15.360
100, 1.82339, 0.191293, 71.9619, -0.000976562, -0.000976562, 0, -0.0576172, 0.310547, -9.76465, 1.18.2022 20:35:15.368
101, 1.82339, 0.191293, 71.9619, -0.000976562, -0.000976562, 0, -0.0400391, 0.311523, -9.70801, 1.18.2022 20:35:15.376
102, 1.82339, 0.191293, 71.9619, -0.000976562, -0.000976562, 0, 0.0244141, 0.28418, -9.69531, 1.18.2022 20:35:15.384
103, 1.82749, 0.185635, 71.9619, -0.000976562, 0, -0.000976562, -0.0878906, 0.307617, -9.7334, 1.18.2022 20:35:15.392
104, 1.82749, 0.185635, 71.9619, 0, 0, -0.000976562, -0.00683594, 0.311523, -9.71094, 1.18.2022 20:35:15.400
105, 1.82184, 0.181526, 71.9621, 0, 0.000976562, -0.000976562, -0.00195312, 0.296875, -9.72754, 1.18.2022 20:35:15.408
106, 1.82184, 0.181526, 71.9621, -0.000976562, -0.000976562, 0, -0.0957031, 0.322266, -9.74902, 1.18.2022 20:35:15.416
107, 1.82184, 0.181526, 71.9621, -0.000976562, -0.000976562, 0, -0.0107422, 0.303711, -9.70801, 1.18.2022 20:35:15.424
108, 1.82184, 0.181526, 71.9621, -0.000976562, -0.000976562, 0, -0.0234375, 0.307617, -9.74805, 1.18.2022 20:35:15.432
109, 1.82184, 0.181526, 71.9621, 0, -0.000976562, 0, -0.0732422, 0.323242, -9.7207, 1.18.2022 20:35:15.440
110, 1.82184, 0.181526, 71.9621, -0.000976562, -0.000976562, 0, 0.000976562, 0.287109, -9.71191, 1.18.2022 20:35:15.448
111, 1.82184, 0.181526, 71.9621, 0, 0, 0.000976562, -0.0644531, 0.308594, -9.7666, 1.18.2022 20:35:15.456
112, 1.82184, 0.181526, 71.9621, -0.000976562, 0, 0, -0.0400391, 0.328125, -9.72852, 1.18.2022 20:35:15.464
113, 1.82184, 0.181526, 71.9621, -0.000976562, 0, 0.000976562, 0.00195312, 0.308594, -9.77734, 1.18.2022 20:35:15.472
114, 1.82184, 0.181526, 71.9621, 0, 0, 0, -0.0878906, 0.328125, -9.7207, 1.18.2022 20:35:15.480
115, 1.82184, 0.181526, 71.9621, -0.000976562, -0.000976562, 0, 0.0175781, 0.301758, -9.70898, 1.18.2022 20:35:15.488
116, 1.82184, 0.181526, 71.9621, -0.000976562, 0, 0.000976562, -0.0166016, 0.317383, -9.75098, 1.18.2022 20:35:15.496
117, 1.82184, 0.181526, 71.9621, 0, 0, 0.000976562, -0.0449219, 0.318359, -9.7168, 1.18.2022 20:35:15.504
118, 1.82204, 0.18143, 71.9604, -0.000976562, -0.000976562, 0, 0.0361328, 0.286133, -9.74316, 1.18.2022 20:35:15.512
119, 1.82204, 0.18143, 71.9604, -0.000976562, -0.000976562, 0, -0.0576172, 0.297852, -9.75, 1.18.2022 20:35:15.520
120, 1.82204, 0.18143, 71.9604, -0.000976562, -0.000976562, 0, -0.0615234, 0.305664, -9.74805, 1.18.2022 20:35:15.528
121, 1.82204, 0.18143, 71.9604, -0.000976562, 0, 0, 0.00683594, 0.292969, -9.74902, 1.18.2022 20:35:15.536
122, 1.82204, 0.18143, 71.9604, -0.000976562, 0, -0.000976562, -0.078125, 0.328125, -9.72363, 1.18.2022 20:35:15.544
123, 1.81638, 0.177322, 71.9605, -0.000976562, 0, -0.000976562, -0.0136719, 0.328125, -9.70312, 1.18.2022 20:35:15.552
124, 1.81638, 0.177322, 71.9605, 0, -0.000976562, -0.000976562, -0.0185547, 0.30957, -9.72949, 1.18.2022 20:35:15.560
125, 1.81638, 0.177322, 71.9605, -0.000976562, -0.000976562, -0.000976562, -0.0732422, 0.331055, -9.71875, 1.18.2022 20:35:15.568
126, 1.81638, 0.177322, 71.9605, 0, -0.000976562, -0.000976562, 0.00488281, 0.295898, -9.74707, 1.18.2022 20:35:15.574
127, 1.81638, 0.177322, 71.9605, 0, 0, -0.000976562, -0.0429688, 0.317383, -9.76465, 1.18.2022 20:35:15.582
128, 1.81638, 0.177322, 71.9605, -0.000976562, 0, -0.000976562, -0.0615234, 0.300781, -9.74805, 1.18.2022 20:35:15.590
129, 1.81638, 0.177322, 71.9605, -0.000976562, 0, -0.000976562, 0.00683594, 0.30957, -9.74609, 1.18.2022 20:35:15.598
130, 1.81638, 0.177322, 71.9605, 0, -0.000976562, -0.000976562, -0.0947266, 0.352539, -9.73926, 1.18.2022 20:35:15.606
131, 1.81638, 0.177322, 71.9605, 0, 0, 0.000976562, -0.00292969, 0.3125, -9.76074, 1.18.2022 20:35:15.614
132, 1.81638, 0.177322, 71.9605, 0, -0.000976562, -0.000976562, 0.0244141, 0.275391, -9.71191, 1.18.2022 20:35:15.622
133, 1.81638, 0.177322, 71.9605, -0.000976562, 0, -0.000976562, -0.0664062, 0.3125, -9.75488, 1.18.2022 20:35:15.630
134, 1.81638, 0.177322, 71.9605, -0.000976562, 0.000976562, -0.00195312, 0.00976562, 0.299805, -9.71875, 1.18.2022 20:35:15.638
135, 1.81618, 0.177418, 71.9623, -0.000976562, 0, -0.00195312, -0.0429688, 0.322266, -9.75977, 1.18.2022 20:35:15.646
136, 1.81618, 0.177418, 71.9623, -0.000976562, 0, -0.000976562, -0.0263672, 0.319336, -9.74512, 1.18.2022 20:35:15.654
137, 1.81618, 0.177418, 71.9623, -0.000976562, 0.000976562, 0, 0.0449219, 0.308594, -9.77734, 1.18.2022 20:35:15.662
138, 1.82029, 0.171759, 71.9623, -0.000976562, 0, -0.000976562, -0.0664062, 0.306641, -9.72363, 1.18.2022 20:35:15.670
139, 1.82029, 0.171759, 71.9623, -0.000976562, 0, -0.000976562, -0.0488281, 0.318359, -9.70703, 1.18.2022 20:35:15.678
140, 1.82029, 0.171759, 71.9623, -0.000976562, -0.000976562, -0.000976562, 0.00195312, 0.308594, -9.78418, 1.18.2022 20:35:15.686
141, 1.82029, 0.171759, 71.9623, -0.000976562, -0.000976562, -0.000976562, -0.0761719, 0.3125, -9.73535, 1.18.2022 20:35:15.694
142, 1.82029, 0.171759, 71.9623, -0.00195312, -0.000976562, 0.000976562, -0.0214844, 0.28418, -9.75879, 1.18.2022 20:35:15.702
143, 1.82049, 0.171663, 71.9605, -0.00195312, -0.000976562, -0.000976562, -0.00488281, 0.259766, -9.75488, 1.18.2022 20:35:15.710
144, 1.82049, 0.171663, 71.9605, -0.000976562, 0, -0.000976562, -0.0996094, 0.319336, -9.7373, 1.18.2022 20:35:15.718
145, 1.82049, 0.171663, 71.9605, -0.000976562, -0.000976562, -0.000976562, 0.00683594, 0.297852, -9.75098, 1.18.2022 20:35:15.726
146, 1.82049, 0.171663, 71.9605, -0.000976562, 0, -0.000976562, -0.0595703, 0.305664, -9.75488, 1.18.2022 20:35:15.734
147, 1.82049, 0.171663, 71.9605, -0.000976562, -0.000976562, -0.000976562, -0.0546875, 0.302734, -9.73633, 1.18.2022 20:35:15.742
148, 1.82049, 0.171663, 71.9605, 0, 0, -0.000976562, 0.00683594, 0.28418, -9.76367, 1.18.2022 20:35:15.750
149, 1.82049, 0.171663, 71.9605, -0.000976562, 0, -0.000976562, -0.0693359, 0.322266, -9.74219, 1.18.2022 20:35:15.758
150, 1.82049, 0.171663, 71.9605, -0.000976562, 0, 0.000976562, -0.00683594, 0.333984, -9.74805, 1.18.2022 20:35:15.766
151, 1.82049, 0.171663, 71.9605, -0.000976562, 0, -0.000976562, -0.0234375, 0.304688, -9.72949, 1.18.2022 20:35:15.774
152, 1.82049, 0.171663, 71.9605, -0.000976562, 0, -0.000976562, -0.0683594, 0.316406, -9.71875, 1.18.2022 20:35:15.782
153, 1.82049, 0.171663, 71.9605, -0.000976562, 0, -0.000976562, -0.00683594, 0.304688, -9.75098, 1.18.2022 20:35:15.790
154, 1.82049, 0.171663, 71.9605, 0, -0.000976562, -0.000976562, -0.0664062, 0.304688, -9.71484, 1.18.2022 20:35:15.798
155, 1.82049, 0.171663, 71.9605, 0, -0.000976562, -0.000976562, -0.046875, 0.328125, -9.7168, 1.18.2022 20:35:15.806
156, 1.82049, 0.171663, 71.9605, -0.000976562, -0.000976562, 0.000976562, -0.0107422, 0.287109, -9.71387, 1.18.2022 20:35:15.814
157, 1.82049, 0.171663, 71.9605, -0.000976562, -0.000976562, -0.000976562, -0.0878906, 0.336914, -9.7627, 1.18.2022 20:35:15.822
158, 1.82023, 0.171606, 71.9511, -0.000976562, 0, 0.000976562, -0.0302734, 0.3125, -9.74121, 1.18.2022 20:35:15.830
159, 1.82023, 0.171606, 71.9511, 0, 0, -0.000976562, -0.0078125, 0.28418, -9.76562, 1.18.2022 20:35:15.838
160, 1.82023, 0.171606, 71.9511, -0.000976562, -0.000976562, -0.000976562, -0.0595703, 0.317383, -9.74316, 1.18.2022 20:35:15.846
161, 1.81612, 0.177265, 71.951, 0, -0.000976562, -0.000976562, 0.0292969, 0.323242, -9.72266, 1.18.2022 20:35:15.854
162, 1.81612, 0.177265, 71.951, 0, -0.000976562, -0.000976562, -0.0283203, 0.299805, -9.74414, 1.18.2022 20:35:15.862
163, 1.81612, 0.177265, 71.951, -0.000976562, -0.000976562, -0.000976562, -0.0546875, 0.327148, -9.75, 1.18.2022 20:35:15.870
164, 1.81638, 0.177322, 71.9605, -0.000976562, -0.000976562, -0.00195312, 0.0234375, 0.296875, -9.78906, 1.18.2022 20:35:15.878
165, 1.81638, 0.177322, 71.9605, 0, 0, -0.000976562, -0.0644531, 0.296875, -9.78125, 1.18.2022 20:35:15.886
166, 1.81638, 0.177322, 71.9605, -0.000976562, 0, 0.000976562, -0.0263672, 0.305664, -9.75977, 1.18.2022 20:35:15.894
167, 1.81612, 0.177265, 71.951, -0.000976562, -0.000976562, -0.000976562, 0.015625, 0.272461, -9.79492, 1.18.2022 20:35:15.902
168, 1.81612, 0.177265, 71.951, -0.000976562, 0, -0.000976562, -0.101562, 0.296875, -9.69727, 1.18.2022 20:35:15.910
169, 1.81612, 0.177265, 71.951, -0.000976562, 0, -0.000976562, -0.00683594, 0.30957, -9.75098, 1.18.2022 20:35:15.918
170, 1.81612, 0.177265, 71.951, -0.000976562, -0.000976562, -0.000976562, -0.0351562, 0.290039, -9.73633, 1.18.2022 20:35:15.926
171, 1.81612, 0.177265, 71.951, -0.000976562, 0, -0.000976562, -0.0732422, 0.30957, -9.73828, 1.18.2022 20:35:15.934
172, 1.81612, 0.177265, 71.951, -0.000976562, 0, -0.000976562, 0.0263672, 0.299805, -9.74414, 1.18.2022 20:35:15.942
173, 1.81638, 0.177322, 71.9605, -0.000976562, -0.000976562, -0.00195312, -0.046875, 0.317383, -9.68848, 1.18.2022 20:35:15.950
174, 1.81638, 0.177322, 71.9605, -0.000976562, 0, -0.000976562, -0.0332031, 0.319336, -9.74316, 1.18.2022 20:35:15.958
175, 1.81638, 0.177322, 71.9605, -0.000976562, -0.00195312, -0.00195312, 0.00976562, 0.297852, -9.73242, 1.18.2022 20:35:15.966
176, 1.81618, 0.177418, 71.9623, -0.000976562, 0, -0.000976562, -0.0927734, 0.369141, -9.7334, 1.18.2022 20:35:15.974
177, 1.81618, 0.177418, 71.9623, -0.000976562, 0, -0.000976562, -0.03125, 0.333984, -9.75195, 1.18.2022 20:35:15.982
178, 1.81618, 0.177418, 71.9623, -0.000976562, -0.000976562, -0.000976562, -0.00488281, 0.27832, -9.73242, 1.18.2022 20:35:15.990
179, 1.81207, 0.183077, 71.9622, 0, -0.000976562, -0.000976562, -0.0791016, 0.325195, -9.76855, 1.18.2022 20:35:15.998
180, 1.81207, 0.183077, 71.9622, 0, 0, -0.000976562, 0.0175781, 0.294922, -9.7207, 1.18.2022 20:35:16.006
181, 1.81207, 0.183077, 71.9622, -0.000976562, -0.000976562, -0.000976562, -0.0498047, 0.302734, -9.75, 1.18.2022 20:35:16.014
182, 1.81207, 0.183077, 71.9622, -0.00195312, -0.000976562, -0.000976562, -0.0429688, 0.326172, -9.73535, 1.18.2022 20:35:16.022
183, 1.81207, 0.183077, 71.9622, -0.00195312, -0.000976562, -0.00195312, 0, 0.3125, -9.7627, 1.18.2022 20:35:16.030
184, 1.81207, 0.183077, 71.9622, -0.000976562, -0.000976562, -0.000976562, -0.0810547, 0.327148, -9.74902, 1.18.2022 20:35:16.038
185, 1.81207, 0.183077, 71.9622, -0.000976562, -0.000976562, 0.000976562, -0.0498047, 0.294922, -9.73926, 1.18.2022 20:35:16.046
186, 1.81207, 0.183077, 71.9622, -0.000976562, 0, -0.00195312, -0.0117188, 0.27832, -9.73535, 1.18.2022 20:35:16.054
187, 1.81207, 0.183077, 71.9622, -0.000976562, -0.000976562, -0.00195312, -0.0976562, 0.300781, -9.76172, 1.18.2022 20:35:16.062
188, 1.81773, 0.187185, 71.9621, -0.000976562, -0.000976562, 0, 0.00488281, 0.295898, -9.74707, 1.18.2022 20:35:16.070
189, 1.81773, 0.187185, 71.9621, -0.000976562, -0.000976562, 0.000976562, -0.0136719, 0.299805, -9.74414, 1.18.2022 20:35:16.078
190, 1.81773, 0.187185, 71.9621, -0.000976562, 0, 0, -0.0761719, 0.319336, -9.74023, 1.18.2022 20:35:16.086
191, 1.81773, 0.187185, 71.9621, -0.00195312, 0, 0, 0.00976562, 0.283203, -9.7373, 1.18.2022 20:35:16.094
192, 1.81773, 0.187185, 71.9621, -0.000976562, -0.000976562, 0, -0.0546875, 0.319336, -9.72852, 1.18.2022 20:35:16.102
193, 1.81773, 0.187185, 71.9621, -0.000976562, 0, 0, -0.0263672, 0.316406, -9.73828, 1.18.2022 20:35:16.110
194, 1.81773, 0.187185, 71.9621, -0.000976562, -0.000976562, 0, 0.00976562, 0.307617, -9.74219, 1.18.2022 20:35:16.118
195, 1.81773, 0.187185, 71.9621, 0, -0.000976562, 0, -0.0664062, 0.302734, -9.73828, 1.18.2022 20:35:16.126
196, 1.81773, 0.187185, 71.9621, 0, -0.000976562, -0.00195312, 0.00683594, 0.300781, -9.76758, 1.18.2022 20:35:16.134
197, 1.81773, 0.187185, 71.9621, -0.000976562, -0.000976562, 0, -0.0332031, 0.292969, -9.72949, 1.18.2022 20:35:16.142
198, 1.81773, 0.187185, 71.9621, -0.00195312, 0, -0.00195312, -0.0751953, 0.334961, -9.69238, 1.18.2022 20:35:16.150
199, 1.81773, 0.187185, 71.9621, -0.00195312, 0, 0, 0.00976562, 0.306641, -9.73438, 1.18.2022 20:35:16.158
200, 1.81773, 0.187185, 71.9621, 0, 0, 0, -0.0351562, 0.30957, -9.74609, 1.18.2022 20:35:16.166
201, 1.81773, 0.187185, 71.9621, 0, 0, 0, -0.0449219, 0.335938, -9.7373, 1.18.2022 20:35:16.174
202, 1.81207, 0.183077, 71.9622, 0, 0, 0, -0.00195312, 0.27832, -9.74902, 1.18.2022 20:35:16.182
203, 1.81207, 0.183077, 71.9622, -0.000976562, 0, 0, -0.078125, 0.313477, -9.70703, 1.18.2022 20:35:16.190
204, 1.81207, 0.183077, 71.9622, 0, 0, 0, -0.00488281, 0.282227, -9.77051, 1.18.2022 20:35:16.198
205, 1.81207, 0.183077, 71.9622, -0.000976562, 0, 0, -0.0253906, 0.290039, -9.71777, 1.18.2022 20:35:16.206
206, 1.81207, 0.183077, 71.9622, -0.000976562, -0.000976562, 0.000976562, -0.0849609, 0.303711, -9.70703, 1.18.2022 20:35:16.214
207, 1.81207, 0.183077, 71.9622, -0.000976562, 0, 0, 0.00976562, 0.287109, -9.7207, 1.18.2022 20:35:16.222
208, 1.81207, 0.183077, 71.9622, -0.000976562, -0.000976562, 0, -0.0185547, 0.297852, -9.74609, 1.18.2022 20:35:16.230
209, 1.81207, 0.183077, 71.9622, -0.00195312, 0, 0, -0.0322266, 0.344727, -9.71191, 1.18.2022 20:35:16.238
210, 1.81207, 0.183077, 71.9622, -0.000976562, -0.000976562, 0, 0.0136719, 0.277344, -9.77148, 1.18.2022 20:35:16.246
211, 1.81207, 0.183077, 71.9622, -0.000976562, 0, 0, -0.0615234, 0.329102, -9.74219, 1.18.2022 20:35:16.254
212, 1.81207, 0.183077, 71.9622, -0.000976562, -0.000976562, 0.000976562, -0.0263672, 0.332031, -9.75488, 1.18.2022 20:35:16.262
213, 1.81207, 0.183077, 71.9622, -0.000976562, 0, 0, -0.0117188, 0.283203, -9.74902, 1.18.2022 20:35:16.270
214, 1.81207, 0.183077, 71.9622, -0.000976562, 0, 0, -0.0761719, 0.331055, -9.73535, 1.18.2022 20:35:16.278
215, 1.81207, 0.183077, 71.9622, 0, -0.000976562, 0, 0.00292969, 0.317383, -9.74414, 1.18.2022 20:35:16.286
216, 1.81207, 0.183077, 71.9622, 0, -0.000976562, 0, -0.0546875, 0.304688, -9.72852, 1.18.2022 20:35:16.294
217, 1.81207, 0.183077, 71.9622, -0.000976562, -0.000976562, 0, -0.0478516, 0.333984, -9.75, 1.18.2022 20:35:16.302
218, 1.81207, 0.183077, 71.9622, -0.000976562, -0.000976562, -0.000976562, 0.0214844, 0.302734, -9.74707, 1.18.2022 20:35:16.310
219, 1.81207, 0.183077, 71.9622, -0.000976562, -0.000976562, -0.000976562, -0.0742188, 0.305664, -9.75, 1.18.2022 20:35:16.318
220, 1.81207, 0.183077, 71.9622, 0, 0, -0.00195312, -0.0371094, 0.304688, -9.71777, 1.18.2022 20:35:16.326
221, 1.81207, 0.183077, 71.9622, -0.000976562, 0, 0, -0.000976562, 0.31543, -9.6875, 1.18.2022 20:35:16.334
222, 1.80642, 0.178968, 71.9624, -0.000976562, 0, 0, -0.0839844, 0.334961, -9.78223, 1.18.2022 20:35:16.342
223, 1.80642, 0.178968, 71.9624, -0.000976562, 0, -0.00195312, 0.00488281, 0.286133, -9.74023, 1.18.2022 20:35:16.350
224, 1.80642, 0.178968, 71.9624, -0.000976562, 0, 0, -0.0332031, 0.306641, -9.71777, 1.18.2022 20:35:16.358
225, 1.81052, 0.173309, 71.9624, -0.000976562, 0, 0, -0.0664062, 0.337891, -9.71094, 1.18.2022 20:35:16.366
226, 1.81618, 0.177418, 71.9623, -0.00195312, 0, 0, 0.0244141, 0.273438, -9.74512, 1.18.2022 20:35:16.374
227, 1.81618, 0.177418, 71.9623, -0.000976562, -0.000976562, -0.000976562, -0.0253906, 0.326172, -9.7334, 1.18.2022 20:35:16.382
228, 1.81618, 0.177418, 71.9623, -0.000976562, -0.000976562, -0.000976562, -0.0732422, 0.299805, -9.73145, 1.18.2022 20:35:16.390
229, 1.81618, 0.177418, 71.9623, -0.000976562, -0.000976562, -0.000976562, 0.0146484, 0.297852, -9.74414, 1.18.2022 20:35:16.398
230, 1.81618, 0.177418, 71.9623, -0.000976562, -0.000976562, -0.000976562, -0.0800781, 0.326172, -9.72754, 1.18.2022 20:35:16.406
231, 1.81618, 0.177418, 71.9623, 0, -0.000976562, -0.00195312, -0.0263672, 0.302734, -9.74414, 1.18.2022 20:35:16.414
232, 1.81618, 0.177418, 71.9623, 0, -0.000976562, -0.000976562, 0.0117188, 0.288086, -9.74707, 1.18.2022 20:35:16.422
233, 1.81618, 0.177418, 71.9623, 0, -0.000976562, 0.000976562, -0.0830078, 0.311523, -9.72168, 1.18.2022 20:35:16.430
234, 1.81618, 0.177418, 71.9623, 0, 0, 0, 0.0117188, 0.271484, -9.74707, 1.18.2022 20:35:16.438
235, 1.81618, 0.177418, 71.9623, 0, -0.000976562, -0.000976562, -0.0263672, 0.305664, -9.75781, 1.18.2022 20:35:16.446
236, 1.81618, 0.177418, 71.9623, 0, -0.000976562, -0.00195312, -0.0351562, 0.332031, -9.7002, 1.18.2022 20:35:16.454
237, 1.81618, 0.177418, 71.9623, -0.000976562, -0.000976562, -0.000976562, 0.0117188, 0.288086, -9.75195, 1.18.2022 20:35:16.462
238, 1.81618, 0.177418, 71.9623, -0.000976562, -0.000976562, -0.000976562, -0.0664062, 0.30957, -9.72363, 1.18.2022 20:35:16.470
239, 1.81618, 0.177418, 71.9623, -0.000976562, -0.000976562, -0.000976562, -0.0283203, 0.303711, -9.71484, 1.18.2022 20:35:16.478
240, 1.81052, 0.173309, 71.9624, 0, -0.000976562, -0.000976562, -0.0332031, 0.302734, -9.74316, 1.18.2022 20:35:16.486
241, 1.81052, 0.173309, 71.9624, -0.000976562, 0, -0.00195312, -0.0830078, 0.319336, -9.72559, 1.18.2022 20:35:16.494
242, 1.81052, 0.173309, 71.9624, 0, -0.000976562, -0.000976562, -0.0117188, 0.299805, -9.72754, 1.18.2022 20:35:16.502
243, 1.80642, 0.178968, 71.9624, -0.000976562, -0.000976562, 0.000976562, -0.0146484, 0.297852, -9.75391, 1.18.2022 20:35:16.510
244, 1.80642, 0.178968, 71.9624, -0.000976562, -0.000976562, -0.000976562, -0.0351562, 0.30957, -9.74805, 1.18.2022 20:35:16.518
245, 1.80642, 0.178968, 71.9624, 0, 0, -0.00195312, 0.0175781, 0.314453, -9.73242, 1.18.2022 20:35:16.526
246, 1.80642, 0.178968, 71.9624, -0.000976562, -0.000976562, -0.000976562, -0.0546875, 0.297852, -9.74805, 1.18.2022 20:35:16.534
247, 1.80642, 0.178968, 71.9624, -0.000976562, -0.000976562, -0.000976562, -0.0585938, 0.330078, -9.69238, 1.18.2022 20:35:16.542
248, 1.80642, 0.178968, 71.9624, -0.000976562, -0.00195312, 0.000976562, -0.00390625, 0.296875, -9.71777, 1.18.2022 20:35:16.548
249, 1.80642, 0.178968, 71.9624, -0.00195312, -0.00195312, -0.000976562, -0.0791016, 0.317383, -9.76562, 1.18.2022 20:35:16.556
250, 1.80642, 0.178968, 71.9624, -0.00195312, -0.000976562, 0, -0.0185547, 0.305664, -9.75293, 1.18.2022 20:35:16.566
251, 1.80642, 0.178968, 71.9624, -0.00195312, -0.000976562, 0, -0.0351562, 0.304688, -9.72461, 1.18.2022 20:35:16.572
252, 1.80642, 0.178968, 71.9624, -0.000976562, 0, 0, -0.0732422, 0.320312, -9.69043, 1.18.2022 20:35:16.580
253, 1.80642, 0.178968, 71.9624, 0, 0, 0, 0.0107422, 0.298828, -9.69434, 1.18.2022 20:35:16.588
254, 1.80642, 0.178968, 71.9624, 0, -0.000976562, 0, -0.0605469, 0.31543, -9.7002, 1.18.2022 20:35:16.596
255, 1.80642, 0.178968, 71.9624, 0, 0.000976562, -0.000976562, -0.0234375, 0.331055, -9.71973, 1.18.2022 20:35:16.604
256, 1.80642, 0.178968, 71.9624, 0, 0, -0.000976562, -0.00878906, 0.302734, -9.73438, 1.18.2022 20:35:16.612
257, 1.80642, 0.178968, 71.9624, 0, -0.000976562, 0, -0.0751953, 0.303711, -9.70312, 1.18.2022 20:35:16.620
258, 1.80642, 0.178968, 71.9624, 0, -0.000976562, 0, 0.0078125, 0.280273, -9.70703, 1.18.2022 20:35:16.628
259, 1.80642, 0.178968, 71.9624, -0.000976562, -0.000976562, 0, 0.00488281, 0.288086, -9.75391, 1.18.2022 20:35:16.636
260, 1.80642, 0.178968, 71.9624, -0.000976562, 0, 0, -0.0693359, 0.308594, -9.77637, 1.18.2022 20:35:16.644
261, 1.80642, 0.178968, 71.9624, 0, 0, 0, 0.0175781, 0.291992, -9.72363, 1.18.2022 20:35:16.652
262, 1.80642, 0.178968, 71.9624, -0.000976562, -0.000976562, 0, -0.03125, 0.291016, -9.74609, 1.18.2022 20:35:16.660
263, 1.80642, 0.178968, 71.9624, -0.000976562, -0.000976562, 0, -0.0537109, 0.328125, -9.71191, 1.18.2022 20:35:16.668
264, 1.80642, 0.178968, 71.9624, 0, -0.000976562, 0, 0.0117188, 0.288086, -9.74902, 1.18.2022 20:35:16.676
265, 1.80642, 0.178968, 71.9624, -0.000976562, 0, 0, -0.0664062, 0.304688, -9.72363, 1.18.2022 20:35:16.684
266, 1.80642, 0.178968, 71.9624, -0.000976562, 0, 0, 0.00683594, 0.28418, -9.78223, 1.18.2022 20:35:16.692
267, 1.80642, 0.178968, 71.9624, -0.000976562, -0.000976562, 0.000976562, 0.00976562, 0.289062, -9.76074, 1.18.2022 20:35:16.700
268, 1.80642, 0.178968, 71.9624, -0.000976562, -0.000976562, 0, -0.0927734, 0.34082, -9.72461, 1.18.2022 20:35:16.708
269, 1.80642, 0.178968, 71.9624, -0.000976562, -0.000976562, 0, -0.00390625, 0.304688, -9.72461, 1.18.2022 20:35:16.716
270, 1.80642, 0.178968, 71.9624, 0, -0.000976562, 0, -0.0380859, 0.307617, -9.75488, 1.18.2022 20:35:16.724
271, 1.80642, 0.178968, 71.9624, 0, 0, 0, -0.0634766, 0.293945, -9.69336, 1.18.2022 20:35:16.732
272, 1.80076, 0.17486, 71.9626, 0, 0, 0, 0.0214844, 0.297852, -9.74023, 1.18.2022 20:35:16.740
273, 1.80076, 0.17486, 71.9626, -0.000976562, -0.000976562, 0.000976562, -0.0527344, 0.324219, -9.75879, 1.18.2022 20:35:16.748
274, 1.80076, 0.17486, 71.9626, -0.000976562, 0, 0, -0.0400391, 0.324219, -9.75, 1.18.2022 20:35:16.756
275, 1.80487, 0.169201, 71.9626, -0.000976562, 0, -0.000976562, -0.0234375, 0.295898, -9.74902, 1.18.2022 20:35:16.764
276, 1.80487, 0.169201, 71.9626, 0, -0.000976562, 0, -0.0908203, 0.305664, -9.75, 1.18.2022 20:35:16.772
277, 1.80076, 0.17486, 71.9626, 0, -0.000976562, -0.00195312, -0.00195312, 0.308594, -9.71289, 1.18.2022 20:35:16.780
278, 1.80076, 0.17486, 71.9626, 0, -0.000976562, 0, -0.0595703, 0.285156, -9.72754, 1.18.2022 20:35:16.788
279, 1.80076, 0.17486, 71.9626, -0.000976562, -0.000976562, 0, -0.0800781, 0.323242, -9.69531, 1.18.2022 20:35:16.796
280, 1.80076, 0.17486, 71.9626, -0.000976562, -0.000976562, 0, 0.0117188, 0.283203, -9.74023, 1.18.2022 20:35:16.804
281, 1.80076, 0.17486, 71.9626, -0.000976562, -0.000976562, 0, -0.0429688, 0.292969, -9.74121, 1.18.2022 20:35:16.812
282, 1.80076, 0.17486, 71.9626, -0.000976562, 0, 0, -0.0400391, 0.318359, -9.70312, 1.18.2022 20:35:16.820
283, 1.80076, 0.17486, 71.9626, -0.000976562, -0.000976562, 0, 0.00488281, 0.288086, -9.74902, 1.18.2022 20:35:16.828
284, 1.80076, 0.17486, 71.9626, -0.00195312, -0.000976562, 0, -0.0810547, 0.30957, -9.74023, 1.18.2022 20:35:16.836
285, 1.80076, 0.17486, 71.9626, -0.000976562, -0.000976562, 0, -0.0253906, 0.306641, -9.71094, 1.18.2022 20:35:16.844
286, 1.80076, 0.17486, 71.9626, -0.000976562, -0.000976562, 0, -0.0117188, 0.302734, -9.76074, 1.18.2022 20:35:16.852
287, 1.80076, 0.17486, 71.9626, -0.000976562, -0.000976562, 0, -0.111328, 0.321289, -9.7207, 1.18.2022 20:35:16.860
288, 1.80076, 0.17486, 71.9626, 0, -0.000976562, 0, -0.0205078, 0.293945, -9.69434, 1.18.2022 20:35:16.868
289, 1.80076, 0.17486, 71.9626, 0, 0, 0, -0.0527344, 0.305664, -9.76465, 1.18.2022 20:35:16.876
290, 1.80076, 0.17486, 71.9626, -0.000976562, -0.000976562, 0.000976562, -0.0634766, 0.321289, -9.72559, 1.18.2022 20:35:16.884
291, 1.79665, 0.180519, 71.9625, -0.000976562, -0.000976562, 0, 0.0263672, 0.286133, -9.74512, 1.18.2022 20:35:16.892
292, 1.79665, 0.180519, 71.9625, -0.000976562, -0.000976562, 0, -0.0859375, 0.317383, -9.74023, 1.18.2022 20:35:16.900
293, 1.79665, 0.180519, 71.9625, 0, -0.000976562, -0.00195312, -0.0400391, 0.34082, -9.72559, 1.18.2022 20:35:16.908
294, 1.79665, 0.180519, 71.9625, 0, -0.000976562, 0, -0.0146484, 0.276367, -9.75684, 1.18.2022 20:35:16.916
295, 1.79665, 0.180519, 71.9625, 0, 0, 0, -0.0761719, 0.324219, -9.73535, 1.18.2022 20:35:16.924
296, 1.80231, 0.184627, 71.9624, 0, -0.000976562, 0, 0.00976562, 0.303711, -9.71777, 1.18.2022 20:35:16.932
297, 1.80231, 0.184627, 71.9624, -0.000976562, -0.000976562, 0, -0.0214844, 0.299805, -9.73633, 1.18.2022 20:35:16.940
298, 1.80231, 0.184627, 71.9624, -0.00195312, 0, 0.000976562, -0.0712891, 0.323242, -9.72363, 1.18.2022 20:35:16.948
299, 1.80231, 0.184627, 71.9624, -0.000976562, 0, 0, -0.0136719, 0.31543, -9.70605, 1.18.2022 20:35:16.956
300, 1.7982, 0.190286, 71.9624, -0.000976562, -0.000976562, 0, -0.0683594, 0.335938, -9.7373, 1.18.2022 20:35:16.964
301, 1.7982, 0.190286, 71.9624, -0.000976562, -0.000976562, 0, -0.0253906, 0.316406, -9.71484, 1.18.2022 20:35:16.972
302, 1.7982, 0.190286, 71.9624, -0.000976562, -0.000976562, 0, -0.00878906, 0.306641, -9.73438, 1.18.2022 20:35:16.980
303, 1.7982, 0.190286, 71.9624, -0.000976562, -0.000976562, 0, -0.0947266, 0.337891, -9.73438, 1.18.2022 20:35:16.988
304, 1.80386, 0.194394, 71.9622, -0.000976562, -0.000976562, 0.000976562, -0.0283203, 0.314453, -9.73633, 1.18.2022 20:35:16.996
305, 1.80406, 0.194298, 71.9604, -0.000976562, -0.000976562, 0.000976562, -0.0234375, 0.3125, -9.75488, 1.18.2022 20:35:17.004
306, 1.80406, 0.194298, 71.9604, -0.000976562, 0, 0, -0.0712891, 0.302734, -9.74805, 1.18.2022 20:35:17.012
307, 1.80406, 0.194298, 71.9604, -0.000976562, 0, 0, 0.0234375, 0.267578, -9.77344, 1.18.2022 20:35:17.020
308, 1.80406, 0.194298, 71.9604, -0.000976562, -0.000976562, 0, -0.046875, 0.292969, -9.73438, 1.18.2022 20:35:17.028
309, 1.80972, 0.198406, 71.9603, -0.000976562, -0.000976562, 0, -0.0546875, 0.302734, -9.73633, 1.18.2022 20:35:17.036
310, 1.80972, 0.198406, 71.9603, 0, -0.00195312, 0, 0.00976562, 0.3125, -9.75586, 1.18.2022 20:35:17.044
311, 1.80946, 0.198351, 71.9508, -0.000976562, -0.00195312, 0.000976562, -0.0791016, 0.320312, -9.76367, 1.18.2022 20:35:17.052
312, 1.80946, 0.198351, 71.9508, -0.000976562, -0.000976562, 0, -0.0527344, 0.3125, -9.76172, 1.18.2022 20:35:17.060
313, 1.80946, 0.198351, 71.9508, 0, -0.000976562, -0.00195312, -0.0195312, 0.291016, -9.76562, 1.18.2022 20:35:17.068
314, 1.80972, 0.198406, 71.9603, -0.000976562, -0.000976562, -0.000976562, -0.100586, 0.34668, -9.75977, 1.18.2022 20:35:17.076
315, 1.80972, 0.198406, 71.9603, -0.000976562, 0, -0.000976562, 0.0136719, 0.3125, -9.76562, 1.18.2022 20:35:17.084
316, 1.80972, 0.198406, 71.9603, -0.000976562, -0.000976562, -0.000976562, -0.0507812, 0.332031, -9.78223, 1.18.2022 20:35:17.092
317, 1.81538, 0.202514, 71.9601, -0.000976562, -0.000976562, -0.00195312, -0.0585938, 0.314453, -9.72168, 1.18.2022 20:35:17.100
318, 1.81517, 0.202611, 71.9619, -0.000976562, 0, -0.000976562, 0.0214844, 0.301758, -9.73047, 1.18.2022 20:35:17.108
319, 1.81517, 0.202611, 71.9619, -0.000976562, 0, -0.000976562, -0.0400391, 0.288086, -9.74609, 1.18.2022 20:35:17.116
320, 1.81517, 0.202611, 71.9619, -0.000976562, 0, -0.000976562, -0.0283203, 0.306641, -9.72656, 1.18.2022 20:35:17.124
321, 1.81517, 0.202611, 71.9619, 0, 0, -0.000976562, -0.00195312, 0.288086, -9.73242, 1.18.2022 20:35:17.132
322, 1.81517, 0.202611, 71.9619, 0, 0, -0.000976562, -0.0742188, 0.295898, -9.75684, 1.18.2022 20:35:17.140
323, 1.81517, 0.202611, 71.9619, 0, 0, 0.000976562, -0.00195312, 0.301758, -9.72266, 1.18.2022 20:35:17.148
324, 1.81538, 0.202514, 71.9601, 0, 0.00195312, -0.000976562, -0.0302734, 0.30957, -9.72656, 1.18.2022 20:35:17.156
325, 1.81538, 0.202514, 71.9601, 0, -0.000976562, -0.000976562, -0.0498047, 0.326172, -9.73047, 1.18.2022 20:35:17.164
326, 1.81538, 0.202514, 71.9601, -0.000976562, -0.000976562, -0.000976562, 0.0224609, 0.308594, -9.72266, 1.18.2022 20:35:17.172
327, 1.81517, 0.202611, 71.9619, -0.000976562, -0.000976562, -0.000976562, -0.0546875, 0.314453, -9.72363, 1.18.2022 20:35:17.180
328, 1.81517, 0.202611, 71.9619, 0, -0.000976562, -0.00195312, -0.0351562, 0.308594, -9.71289, 1.18.2022 20:35:17.188
329, 1.81517, 0.202611, 71.9619, -0.000976562, -0.000976562, -0.000976562, 0.00683594, 0.31543, -9.76465, 1.18.2022 20:35:17.196
330, 1.81517, 0.202611, 71.9619, -0.000976562, -0.000976562, -0.000976562, -0.078125, 0.317383, -9.74707, 1.18.2022 20:35:17.204
331, 1.81517, 0.202611, 71.9619, -0.000976562, -0.000976562, -0.000976562, -0.00292969, 0.305664, -9.76562, 1.18.2022 20:35:17.212
332, 1.81517, 0.202611, 71.9619, -0.000976562, 0, -0.000976562, -0.0166016, 0.300781, -9.76953, 1.18.2022 20:35:17.220
333, 1.81517, 0.202611, 71.9619, -0.000976562, -0.000976562, -0.00195312, -0.0693359, 0.313477, -9.77539, 1.18.2022 20:35:17.228
334, 1.81517, 0.202611, 71.9619, -0.000976562, 0, -0.00195312, 0.0126953, 0.290039, -9.7373, 1.18.2022 20:35:17.236
335, 1.81517, 0.202611, 71.9619, -0.000976562, -0.000976562, -0.000976562, -0.0615234, 0.321289, -9.73828, 1.18.2022 20:35:17.244
336, 1.81928, 0.196952, 71.9619, -0.000976562, 0, -0.00195312, -0.0458984, 0.308594, -9.7666, 1.18.2022 20:35:17.252
337, 1.81928, 0.196952, 71.9619, -0.000976562, -0.000976562, -0.000976562, 0.0195312, 0.296875, -9.72559, 1.18.2022 20:35:17.260
338, 1.81928, 0.196952, 71.9619, -0.000976562, -0.000976562, -0.000976562, -0.0927734, 0.301758, -9.72363, 1.18.2022 20:35:17.268
339, 1.81928, 0.196952, 71.9619, -0.000976562, -0.000976562, -0.00195312, -0.03125, 0.30957, -9.74805, 1.18.2022 20:35:17.276
340, 1.81362, 0.192844, 71.9621, -0.000976562, 0, 0.000976562, 0.0214844, 0.266602, -9.72852, 1.18.2022 20:35:17.284
341, 1.81362, 0.192844, 71.9621, -0.000976562, -0.000976562, 0, -0.0761719, 0.292969, -9.72168, 1.18.2022 20:35:17.292
342, 1.81362, 0.192844, 71.9621, -0.000976562, -0.000976562, -0.000976562, 0.00488281, 0.30957, -9.74609, 1.18.2022 20:35:17.300
343, 1.81362, 0.192844, 71.9621, -0.000976562, -0.000976562, -0.000976562, -0.046875, 0.321289, -9.71875, 1.18.2022 20:35:17.308
344, 1.81362, 0.192844, 71.9621, -0.00195312, -0.000976562, -0.000976562, -0.0537109, 0.306641, -9.71484, 1.18.2022 20:35:17.316
345, 1.81362, 0.192844, 71.9621, -0.000976562, 0, -0.000976562, 0.0527344, 0.290039, -9.72852, 1.18.2022 20:35:17.324
346, 1.81362, 0.192844, 71.9621, 0, 0, 0, -0.0498047, 0.304688, -9.73828, 1.18.2022 20:35:17.332
347, 1.81362, 0.192844, 71.9621, -0.000976562, 0, 0, -0.0214844, 0.324219, -9.75488, 1.18.2022 20:35:17.340
348, 1.81362, 0.192844, 71.9621, 0, -0.00195312, 0, -0.00976562, 0.322266, -9.76953, 1.18.2022 20:35:17.348
349, 1.81362, 0.192844, 71.9621, 0, -0.000976562, 0, -0.0664062, 0.326172, -9.74023, 1.18.2022 20:35:17.356
350, 1.81207, 0.183077, 71.9622, -0.000976562, -0.000976562, 0.000976562, 0.00292969, 0.280273, -9.72363, 1.18.2022 20:35:17.364
351, 1.81207, 0.183077, 71.9622, -0.000976562, -0.000976562, 0.000976562, 0.00195312, 0.282227, -9.78516, 1.18.2022 20:35:17.372
352, 1.81207, 0.183077, 71.9622, -0.000976562, -0.000976562, -0.00195312, -0.0566406, 0.314453, -9.7334, 1.18.2022 20:35:17.380
353, 1.81207, 0.183077, 71.9622, -0.000976562, -0.000976562, -0.00195312, 0.0361328, 0.291992, -9.72852, 1.18.2022 20:35:17.388
354, 1.81207, 0.183077, 71.9622, -0.000976562, -0.000976562, 0, -0.0615234, 0.299805, -9.72949, 1.18.2022 20:35:17.396
355, 1.81207, 0.183077, 71.9622, 0, -0.000976562, 0, -0.0449219, 0.331055, -9.73828, 1.18.2022 20:35:17.404
356, 1.81207, 0.183077, 71.9622, -0.00195312, -0.000976562, 0, -0.00683594, 0.285156, -9.73242, 1.18.2022 20:35:17.412
357, 1.81207, 0.183077, 71.9622, 0, -0.000976562, 0, -0.101562, 0.321289, -9.70898, 1.18.2022 20:35:17.420
358, 1.81207, 0.183077, 71.9622, 0, 0, 0, -0.0400391, 0.319336, -9.73828, 1.18.2022 20:35:17.428
359, 1.80642, 0.178968, 71.9624, 0, 0.000976562, 0, -0.0136719, 0.311523, -9.72461, 1.18.2022 20:35:17.436
360, 1.80642, 0.178968, 71.9624, 0, -0.000976562, 0, -0.0546875, 0.331055, -9.74512, 1.18.2022 20:35:17.444
361, 1.80642, 0.178968, 71.9624, -0.000976562, -0.000976562, 0, 0.0175781, 0.299805, -9.72363, 1.18.2022 20:35:17.452
362, 1.80642, 0.178968, 71.9624, -0.000976562, 0, 0, -0.0585938, 0.287109, -9.70312, 1.18.2022 20:35:17.460
363, 1.80642, 0.178968, 71.9624, 0, -0.000976562, 0, -0.0234375, 0.329102, -9.74316, 1.18.2022 20:35:17.468
364, 1.80642, 0.178968, 71.9624, -0.000976562, -0.000976562, 0, 0.00683594, 0.307617, -9.74609, 1.18.2022 20:35:17.476
365, 1.80642, 0.178968, 71.9624, 0, -0.000976562, 0, -0.078125, 0.297852, -9.7334, 1.18.2022 20:35:17.484
366, 1.80642, 0.178968, 71.9624, 0, -0.00195312, 0, -0.0107422, 0.285156, -9.71094, 1.18.2022 20:35:17.492
367, 1.80642, 0.178968, 71.9624, -0.00195312, 0, 0, -0.0166016, 0.302734, -9.74414, 1.18.2022 20:35:17.500
368, 1.80642, 0.178968, 71.9624, -0.000976562, 0, 0, -0.0683594, 0.326172, -9.7373, 1.18.2022 20:35:17.508
369, 1.81052, 0.173309, 71.9624, -0.000976562, 0, 0, -0.00488281, 0.302734, -9.76562, 1.18.2022 20:35:17.516
370, 1.81052, 0.173309, 71.9624, -0.00195312, 0, 0, -0.0380859, 0.300781, -9.77441, 1.18.2022 20:35:17.522
371, 1.81052, 0.173309, 71.9624, 0, 0, 0, -0.0546875, 0.329102, -9.75195, 1.18.2022 20:35:17.530
372, 1.81052, 0.173309, 71.9624, 0, -0.000976562, 0, 0.0146484, 0.311523, -9.71777, 1.18.2022 20:35:17.538
373, 1.81052, 0.173309, 71.9624, -0.000976562, -0.000976562, 0, -0.0966797, 0.318359, -9.71094, 1.18.2022 20:35:17.546
374, 1.81052, 0.173309, 71.9624, -0.000976562, -0.000976562, 0, -0.0283203, 0.324219, -9.74805, 1.18.2022 20:35:17.554
375, 1.81052, 0.173309, 71.9624, 0, -0.000976562, 0, 0.0117188, 0.291016, -9.77051, 1.18.2022 20:35:17.562
376, 1.81052, 0.173309, 71.9624, 0, 0, 0, -0.0830078, 0.304688, -9.71484, 1.18.2022 20:35:17.570
377, 1.81052, 0.173309, 71.9624, -0.000976562, 0, 0, 0.00976562, 0.294922, -9.72754, 1.18.2022 20:35:17.578
378, 1.81052, 0.173309, 71.9624, -0.000976562, 0, 0, -0.0214844, 0.28125, -9.73926, 1.18.2022 20:35:17.586
379, 1.81052, 0.173309, 71.9624, -0.000976562, 0, 0, -0.0693359, 0.304688, -9.74512, 1.18.2022 20:35:17.594
380, 1.81052, 0.173309, 71.9624, 0, -0.000976562, 0.000976562, 0.0126953, 0.290039, -9.71582, 1.18.2022 20:35:17.602
381, 1.81052, 0.173309, 71.9624, -0.000976562, -0.000976562, -0.000976562, -0.0683594, 0.299805, -9.72168, 1.18.2022 20:35:17.610
382, 1.81052, 0.173309, 71.9624, -0.000976562, -0.000976562, -0.000976562, -0.0566406, 0.302734, -9.73828, 1.18.2022 20:35:17.618
383, 1.81073, 0.173214, 71.9607, 0, -0.00195312, 0.000976562, -0.0117188, 0.292969, -9.75586, 1.18.2022 20:35:17.626
384, 1.81073, 0.173214, 71.9607, 0, -0.000976562, -0.000976562, -0.0664062, 0.302734, -9.74805, 1.18.2022 20:35:17.634
385, 1.80662, 0.178873, 71.9607, 0, -0.000976562, -0.000976562, -0.0205078, 0.301758, -9.72461, 1.18.2022 20:35:17.642
386, 1.80662, 0.178873, 71.9607, -0.000976562, -0.00195312, 0.000976562, -0.0244141, 0.305664, -9.7793, 1.18.2022 20:35:17.650
387, 1.80636, 0.178817, 71.9512, -0.00195312, -0.000976562, 0.000976562, -0.0771484, 0.3125, -9.68555, 1.18.2022 20:35:17.658
388, 1.80636, 0.178817, 71.9512, -0.000976562, 0, 0, 0.0175781, 0.279297, -9.7002, 1.18.2022 20:35:17.666
389, 1.80636, 0.178817, 71.9512, -0.000976562, -0.000976562, -0.000976562, -0.0517578, 0.306641, -9.72656, 1.18.2022 20:35:17.674
390, 1.80636, 0.178817, 71.9512, -0.000976562, 0, 0, -0.0302734, 0.333008, -9.7168, 1.18.2022 20:35:17.682
391, 1.80636, 0.178817, 71.9512, -0.000976562, 0, 0, 0.0078125, 0.291992, -9.69727, 1.18.2022 20:35:17.690
392, 1.80636, 0.178817, 71.9512, -0.000976562, -0.000976562, -0.000976562, -0.0830078, 0.369141, -9.7334, 1.18.2022 20:35:17.698
393, 1.80636, 0.178817, 71.9512, -0.000976562, -0.000976562, -0.000976562, -0.00195312, 0.333984, -9.73828, 1.18.2022 20:35:17.706
394, 1.80636, 0.178817, 71.9512, -0.000976562, -0.000976562, -0.00195312, 0, 0.279297, -9.76562, 1.18.2022 20:35:17.714
395, 1.80662, 0.178873, 71.9607, -0.000976562, -0.000976562, -0.00195312, -0.0712891, 0.347656, -9.73242, 1.18.2022 20:35:17.722
396, 1.80642, 0.178968, 71.9624, -0.000976562, -0.000976562, -0.00195312, 0.00976562, 0.308594, -9.7207, 1.18.2022 20:35:17.730
397, 1.80642, 0.178968, 71.9624, 0, 0, 0.000976562, -0.0458984, 0.305664, -9.77637, 1.18.2022 20:35:17.738
398, 1.80662, 0.178873, 71.9607, -0.000976562, 0, 0, -0.0683594, 0.331055, -9.72559, 1.18.2022 20:35:17.746
399, 1.80662, 0.178873, 71.9607, 0, -0.000976562, -0.000976562, -0.0136719, 0.331055, -9.74316, 1.18.2022 20:35:17.754
400, 1.80662, 0.178873, 71.9607, -0.000976562, -0.000976562, -0.000976562, -0.109375, 0.316406, -9.7207, 1.18.2022 20:35:17.762
401, 1.80662, 0.178873, 71.9607, -0.000976562, -0.000976562, -0.000976562, -0.0332031, 0.302734, -9.75098, 1.18.2022 20:35:17.770
402, 1.80662, 0.178873, 71.9607, -0.000976562, -0.000976562, -0.000976562, -0.0185547, 0.291016, -9.74609, 1.18.2022 20:35:17.778
403, 1.80662, 0.178873, 71.9607, -0.000976562, -0.000976562, -0.000976562, -0.0732422, 0.30957, -9.73535, 1.18.2022 20:35:17.786
404, 1.81228, 0.182981, 71.9605, -0.000976562, -0.000976562, -0.000976562, 0.0126953, 0.297852, -9.73242, 1.18.2022 20:35:17.794
405, 1.81228, 0.182981, 71.9605, -0.000976562, -0.000976562, -0.000976562, -0.03125, 0.28418, -9.75098, 1.18.2022 20:35:17.802
406, 1.81228, 0.182981, 71.9605, 0, -0.000976562, -0.000976562, -0.0712891, 0.302734, -9.74805, 1.18.2022 20:35:17.810
407, 1.81228, 0.182981, 71.9605, 0, 0, 0, 0.0146484, 0.276367, -9.74707, 1.18.2022 20:35:17.818
408, 1.81228, 0.182981, 71.9605, 0, -0.000976562, -0.000976562, -0.0322266, 0.305664, -9.69434, 1.18.2022 20:35:17.826
409, 1.81228, 0.182981, 71.9605, -0.000976562, -0.000976562, -0.000976562, -0.0634766, 0.316406, -9.70703, 1.18.2022 20:35:17.834
410, 1.81207, 0.183077, 71.9622, -0.000976562, -0.000976562, -0.00195312, 0.00488281, 0.28418, -9.76562, 1.18.2022 20:35:17.842
411, 1.81207, 0.183077, 71.9622, -0.000976562, -0.000976562, -0.000976562, -0.0869141, 0.311523, -9.70215, 1.18.2022 20:35:17.850
412, 1.81207, 0.183077, 71.9622, 0, -0.000976562, -0.000976562, -0.015625, 0.354492, -9.72559, 1.18.2022 20:35:17.858
413, 1.80797, 0.188736, 71.9622, 0, -0.000976562, -0.000976562, -0.0429688, 0.302734, -9.74121, 1.18.2022 20:35:17.866
414, 1.80797, 0.188736, 71.9622, -0.000976562, -0.000976562, -0.000976562, -0.0664062, 0.329102, -9.73047, 1.18.2022 20:35:17.874
415, 1.80797, 0.188736, 71.9622, 0, 0, -0.000976562, 0.0175781, 0.316406, -9.71582, 1.18.2022 20:35:17.882
416, 1.80797, 0.188736, 71.9622, 0, 0, -0.00195312, -0.0498047, 0.324219, -9.7334, 1.18.2022 20:35:17.890
417, 1.80797, 0.188736, 71.9622, -0.000976562, 0, 0, -0.078125, 0.34082, -9.7373, 1.18.2022 20:35:17.898
418, 1.81362, 0.192844, 71.9621, -0.000976562, -0.000976562, 0.000976562, 0.00390625, 0.322266, -9.68457, 1.18.2022 20:35:17.906
419, 1.81362, 0.192844, 71.9621, -0.000976562, -0.000976562, -0.000976562, -0.078125, 0.329102, -9.74219, 1.18.2022 20:35:17.914
420, 1.81362, 0.192844, 71.9621, 0, -0.000976562, 0.000976562, -0.0136719, 0.322266, -9.69629, 1.18.2022 20:35:17.922
421, 1.81383, 0.192747, 71.9603, -0.000976562, -0.000976562, 0.000976562, -0.00390625, 0.321289, -9.72656, 1.18.2022 20:35:17.930
422, 1.81383, 0.192747, 71.9603, -0.000976562, -0.000976562, -0.000976562, -0.0664062, 0.337891, -9.73047, 1.18.2022 20:35:17.938
423, 1.81383, 0.192747, 71.9603, 0, -0.000976562, -0.000976562, 0.0224609, 0.299805, -9.72363, 1.18.2022 20:35:17.946
424, 1.81383, 0.192747, 71.9603, -0.000976562, -0.000976562, -0.000976562, -0.0371094, 0.311523, -9.72168, 1.18.2022 20:35:17.954
425, 1.81949, 0.196855, 71.9601, 0, -0.000976562, -0.000976562, -0.0615234, 0.327148, -9.74707, 1.18.2022 20:35:17.962
426, 1.81949, 0.196855, 71.9601, 0, 0, -0.000976562, -0.0107422, 0.290039, -9.71094, 1.18.2022 20:35:17.970
427, 1.82359, 0.191197, 71.9602, 0, 0.000976562, 0.000976562, -0.0615234, 0.308594, -9.7002, 1.18.2022 20:35:17.978
428, 1.82359, 0.191197, 71.9602, 0, -0.000976562, -0.000976562, -0.0185547, 0.3125, -9.74316, 1.18.2022 20:35:17.986
429, 1.82359, 0.191197, 71.9602, -0.000976562, 0, 0, 0.0146484, 0.296875, -9.70898, 1.18.2022 20:35:17.994
430, 1.82359, 0.191197, 71.9602, -0.000976562, -0.000976562, -0.000976562, -0.0830078, 0.335938, -9.73047, 1.18.2022 20:35:18.002
431, 1.82359, 0.191197, 71.9602, -0.000976562, 0, 0, 0.000976562, 0.305664, -9.69434, 1.18.2022 20:35:18.010
432, 1.82359, 0.191197, 71.9602, -0.000976562, -0.000976562, -0.000976562, -0.0419922, 0.299805, -9.72949, 1.18.2022 20:35:18.018
433, 1.82359, 0.191197, 71.9602, 0, 0, -0.00195312, -0.0615234, 0.328125, -9.72852, 1.18.2022 20:35:18.026
434, 1.82359, 0.191197, 71.9602, 0, -0.000976562, -0.00195312, 0.0214844, 0.299805, -9.7373, 1.18.2022 20:35:18.034
435, 1.82339, 0.191293, 71.9619, 0, -0.000976562, -0.000976562, -0.0683594, 0.314453, -9.73535, 1.18.2022 20:35:18.042
436, 1.82904, 0.195402, 71.9617, -0.000976562, -0.000976562, -0.000976562, -0.0400391, 0.339844, -9.71191, 1.18.2022 20:35:18.050
437, 1.83315, 0.189743, 71.9618, -0.000976562, 0, 0, -0.0185547, 0.283203, -9.73242, 1.18.2022 20:35:18.058
438, 1.83315, 0.189743, 71.9618, -0.000976562, 0, 0, -0.0898438, 0.342773, -9.71094, 1.18.2022 20:35:18.066
439, 1.83315, 0.189743, 71.9618, -0.000976562, -0.000976562, -0.000976562, -0.0117188, 0.307617, -9.74609, 1.18.2022 20:35:18.074
440, 1.83315, 0.189743, 71.9618, 0, 0, -0.000976562, -0.0302734, 0.323242, -9.71484, 1.18.2022 20:35:18.082
441, 1.83315, 0.189743, 71.9618, 0, -0.000976562, -0.000976562, -0.0849609, 0.34082, -9.73438, 1.18.2022 20:35:18.090
442, 1.83315, 0.189743, 71.9618, 0, -0.00195312, -0.000976562, 0.0078125, 0.296875, -9.71387, 1.18.2022 20:35:18.098
443, 1.83315, 0.189743, 71.9618, -0.000976562, -0.000976562, -0.000976562, -0.0234375, 0.292969, -9.73438, 1.18.2022 20:35:18.106
444, 1.83315, 0.189743, 71.9618, 0, 0, -0.000976562, -0.0283203, 0.297852, -9.74805, 1.18.2022 20:35:18.114
445, 1.83315, 0.189743, 71.9618, 0, 0, -0.000976562, 0.0214844, 0.295898, -9.77344, 1.18.2022 20:35:18.122
446, 1.83315, 0.189743, 71.9618, 0, -0.000976562, -0.000976562, -0.0966797, 0.344727, -9.71973, 1.18.2022 20:35:18.130
447, 1.83315, 0.189743, 71.9618, 0, -0.000976562, -0.000976562, -0.0361328, 0.308594, -9.77637, 1.18.2022 20:35:18.138
448, 1.83315, 0.189743, 71.9618, -0.000976562, -0.000976562, -0.000976562, -0.0283203, 0.285156, -9.70898, 1.18.2022 20:35:18.146
449, 1.83881, 0.193851, 71.9616, 0, -0.000976562, -0.000976562, -0.0820312, 0.333008, -9.69922, 1.18.2022 20:35:18.154
450, 1.83881, 0.193851, 71.9616, 0, -0.000976562, -0.000976562, 0.0078125, 0.280273, -9.72852, 1.18.2022 20:35:18.162
451, 1.83881, 0.193851, 71.9616, -0.000976562, 0, 0, -0.0292969, 0.308594, -9.77148, 1.18.2022 20:35:18.170
452, 1.83881, 0.193851, 71.9616, 0, -0.000976562, 0.000976562, -0.0693359, 0.307617, -9.75684, 1.18.2022 20:35:18.178
453, 1.83902, 0.193754, 71.9599, 0, 0, -0.000976562, 0.0292969, 0.301758, -9.73047, 1.18.2022 20:35:18.186
454, 1.83902, 0.193754, 71.9599, 0, 0, -0.000976562, -0.0712891, 0.294922, -9.72852, 1.18.2022 20:35:18.194
455, 1.83902, 0.193754, 71.9599, 0, 0, -0.000976562, -0.0302734, 0.323242, -9.71191, 1.18.2022 20:35:18.202
456, 1.83881, 0.193851, 71.9616, -0.000976562, 0, -0.00195312, -0.00488281, 0.314453, -9.75098, 1.18.2022 20:35:18.210
457, 1.83881, 0.193851, 71.9616, 0, 0, -0.000976562, -0.0976562, 0.342773, -9.72949, 1.18.2022 20:35:18.218
458, 1.83881, 0.193851, 71.9616, 0, -0.000976562, -0.000976562, -0.00488281, 0.294922, -9.73926, 1.18.2022 20:35:18.226
459, 1.83881, 0.193851, 71.9616, -0.000976562, -0.000976562, -0.000976562, -0.0400391, 0.27832, -9.73438, 1.18.2022 20:35:18.234
460, 1.83881, 0.193851, 71.9616, 0, -0.00195312, -0.000976562, -0.0615234, 0.319336, -9.73828, 1.18.2022 20:35:18.242
461, 1.83881, 0.193851, 71.9616, 0, 0, -0.000976562, 0.0224609, 0.285156, -9.71387, 1.18.2022 20:35:18.250
462, 1.83315, 0.189743, 71.9618, -0.000976562, 0, 0, -0.0683594, 0.294922, -9.72168, 1.18.2022 20:35:18.258
463, 1.83315, 0.189743, 71.9618, 0, 0, -0.000976562, -0.0283203, 0.316406, -9.7334, 1.18.2022 20:35:18.266
464, 1.83315, 0.189743, 71.9618, 0, 0, -0.000976562, 0.03125, 0.295898, -9.74902, 1.18.2022 20:35:18.274
465, 1.83315, 0.189743, 71.9618, -0.000976562, -0.000976562, -0.00195312, -0.0546875, 0.350586, -9.73926, 1.18.2022 20:35:18.282
466, 1.83315, 0.189743, 71.9618, -0.000976562, -0.000976562, -0.000976562, -0.0117188, 0.319336, -9.72949, 1.18.2022 20:35:18.290
467, 1.83315, 0.189743, 71.9618, 0, -0.000976562, -0.000976562, -0.0400391, 0.302734, -9.74609, 1.18.2022 20:35:18.298
468, 1.83315, 0.189743, 71.9618, 0, -0.000976562, -0.000976562, -0.0683594, 0.321289, -9.73047, 1.18.2022 20:35:18.306
469, 1.83315, 0.189743, 71.9618, -0.000976562, -0.00195312, -0.000976562, 0.0195312, 0.299805, -9.7373, 1.18.2022 20:35:18.314
470, 1.83315, 0.189743, 71.9618, 0, -0.000976562, -0.000976562, -0.0351562, 0.299805, -9.74121, 1.18.2022 20:35:18.322
471, 1.83315, 0.189743, 71.9618, 0, -0.000976562, -0.000976562, -0.0400391, 0.328125, -9.7168, 1.18.2022 20:35:18.330
472, 1.83315, 0.189743, 71.9618, 0, -0.000976562, -0.000976562, 0.0166016, 0.286133, -9.75, 1.18.2022 20:35:18.338
473, 1.83315, 0.189743, 71.9618, -0.000976562, -0.000976562, -0.000976562, -0.0732422, 0.321289, -9.74023, 1.18.2022 20:35:18.346
474, 1.83315, 0.189743, 71.9618, -0.000976562, -0.000976562, 0, -0.0214844, 0.350586, -9.75879, 1.18.2022 20:35:18.354
475, 1.83315, 0.189743, 71.9618, 0, -0.000976562, 0, -0.0185547, 0.322266, -9.75, 1.18.2022 20:35:18.362
476, 1.83315, 0.189743, 71.9618, -0.000976562, 0, 0, -0.0908203, 0.336914, -9.77246, 1.18.2022 20:35:18.370
477, 1.83315, 0.189743, 71.9618, 0, -0.000976562, 0, -0.00878906, 0.288086, -9.7373, 1.18.2022 20:35:18.378
478, 1.83315, 0.189743, 71.9618, -0.000976562, -0.000976562, 0.000976562, -0.0595703, 0.288086, -9.74121, 1.18.2022 20:35:18.386
479, 1.83315, 0.189743, 71.9618, 0, 0, 0, -0.0830078, 0.30957, -9.7168, 1.18.2022 20:35:18.394
480, 1.83315, 0.189743, 71.9618, 0, -0.000976562, 0, -0.0117188, 0.279297, -9.76074, 1.18.2022 20:35:18.402
481, 1.83315, 0.189743, 71.9618, 0, 0, 0.000976562, -0.0693359, 0.283203, -9.74316, 1.18.2022 20:35:18.410
482, 1.83336, 0.189646, 71.96, -0.000976562, -0.000976562, 0.000976562, -0.03125, 0.324219, -9.75684, 1.18.2022 20:35:18.418
483, 1.83336, 0.189646, 71.96, 0, -0.00195312, 0.000976562, 0.00488281, 0.300781, -9.74902, 1.18.2022 20:35:18.426
484, 1.83336, 0.189646, 71.96, 0, -0.000976562, 0, -0.0908203, 0.314453, -9.74707, 1.18.2022 20:35:18.434
485, 1.83336, 0.189646, 71.96, -0.000976562, -0.000976562, 0, -0.00683594, 0.285156, -9.73047, 1.18.2022 20:35:18.442
486, 1.83336, 0.189646, 71.96, 0, 0, 0, -0.0410156, 0.300781, -9.76758, 1.18.2022 20:35:18.450
487, 1.83336, 0.189646, 71.96, 0, 0, -0.00195312, -0.0566406, 0.308594, -9.71191, 1.18.2022 20:35:18.458
488, 1.8277, 0.185538, 71.9602, 0, 0, 0, 0, 0.280273, -9.73047, 1.18.2022 20:35:18.466
489, 1.82359, 0.191197, 71.9602, -0.000976562, -0.000976562, 0, -0.0566406, 0.307617, -9.74023, 1.18.2022 20:35:18.474
490, 1.82359, 0.191197, 71.9602, 0, -0.000976562, 0, -0.0283203, 0.323242, -9.72656, 1.18.2022 20:35:18.482
491, 1.82359, 0.191197, 71.9602, 0, -0.00195312, -0.000976562, 0.0361328, 0.270508, -9.72461, 1.18.2022 20:35:18.490
492, 1.82359, 0.191197, 71.9602, 0, -0.000976562, 0, -0.0693359, 0.329102, -9.74902, 1.18.2022 20:35:18.496
493, 1.82359, 0.191197, 71.9602, 0, -0.000976562, 0, -0.00878906, 0.326172, -9.72461, 1.18.2022 20:35:18.504
494, 1.82359, 0.191197, 71.9602, -0.000976562, -0.000976562, 0.000976562, -0.0283203, 0.299805, -9.73926, 1.18.2022 20:35:18.512
495, 1.82359, 0.191197, 71.9602, -0.000976562, -0.000976562, 0.000976562, -0.0712891, 0.323242, -9.72363, 1.18.2022 20:35:18.520
496, 1.82333, 0.191141, 71.9507, -0.000976562, -0.000976562, 0.000976562, -0.00488281, 0.285156, -9.73242, 1.18.2022 20:35:18.528
497, 1.82333, 0.191141, 71.9507, -0.000976562, -0.000976562, 0, -0.0380859, 0.307617, -9.75781, 1.18.2022 20:35:18.536
498, 1.82333, 0.191141, 71.9507, 0, -0.000976562, 0, -0.0498047, 0.304688, -9.7334, 1.18.2022 20:35:18.544
499, 1.82333, 0.191141, 71.9507, 0, 0, 0, -0.0117188, 0.292969, -9.7373, 1.18.2022 20:35:18.552
500, 1.81922, 0.1968, 71.9506, 0, -0.000976562, 0, -0.0683594, 0.316406, -9.72363, 1.18.2022 20:35:18.560
501, 1.81922, 0.1968, 71.9506, 0, -0.000976562, 0, -0.00878906, 0.313477, -9.70605, 1.18.2022 20:35:18.568
502, 1.81922, 0.1968, 71.9506, -0.000976562, -0.000976562, 0, 0.0078125, 0.287109, -9.70703, 1.18.2022 20:35:18.576
503, 1.81922, 0.1968, 71.9506, -0.000976562, -0.000976562, 0, -0.0976562, 0.351562, -9.76953, 1.18.2022 20:35:18.584
504, 1.81922, 0.1968, 71.9506, -0.000976562, -0.000976562, 0, -0.00976562, 0.28418, -9.76074, 1.18.2022 20:35:18.592
505, 1.81922, 0.1968, 71.9506, 0, -0.000976562, 0, -0.00683594, 0.294922, -9.74414, 1.18.2022 20:35:18.600
506, 1.81922, 0.1968, 71.9506, -0.000976562, -0.000976562, 0, -0.0478516, 0.324219, -9.74316, 1.18.2022 20:35:18.608
507, 1.81357, 0.192692, 71.9508, -0.000976562, 0, -0.000976562, 0.0136719, 0.308594, -9.77441, 1.18.2022 20:35:18.616
508, 1.81357, 0.192692, 71.9508, -0.000976562, 0, 0, -0.0644531, 0.327148, -9.74707, 1.18.2022 20:35:18.624
509, 1.81357, 0.192692, 71.9508, -0.000976562, -0.000976562, -0.000976562, -0.0361328, 0.298828, -9.7627, 1.18.2022 20:35:18.632
510, 1.81357, 0.192692, 71.9508, -0.000976562, -0.000976562, -0.000976562, 0.0195312, 0.296875, -9.72559, 1.18.2022 20:35:18.640
511, 1.81357, 0.192692, 71.9508, -0.000976562, -0.000976562, -0.000976562, -0.0878906, 0.338867, -9.76074, 1.18.2022 20:35:18.648
512, 1.81357, 0.192692, 71.9508, -0.000976562, -0.000976562, -0.000976562, 0, 0.317383, -9.76758, 1.18.2022 20:35:18.656
513, 1.81767, 0.187033, 71.9508, -0.000976562, 0, -0.000976562, -0.0302734, 0.275391, -9.71094, 1.18.2022 20:35:18.664
514, 1.81767, 0.187033, 71.9508, 0, 0, -0.000976562, -0.0683594, 0.324219, -9.72852, 1.18.2022 20:35:18.672
515, 1.81767, 0.187033, 71.9508, -0.000976562, 0, -0.000976562, 0.0205078, 0.334961, -9.79102, 1.18.2022 20:35:18.680
516, 1.81767, 0.187033, 71.9508, -0.000976562, 0, -0.000976562, -0.0615234, 0.3125, -9.75684, 1.18.2022 20:35:18.688
517, 1.81767, 0.187033, 71.9508, 0, 0, -0.000976562, -0.0595703, 0.313477, -9.77637, 1.18.2022 20:35:18.696
518, 1.81767, 0.187033, 71.9508, -0.000976562, 0, -0.000976562, 0.0146484, 0.305664, -9.7627, 1.18.2022 20:35:18.704
519, 1.81767, 0.187033, 71.9508, -0.000976562, -0.000976562, 0, -0.106445, 0.333008, -9.70801, 1.18.2022 20:35:18.712
520, 1.81767, 0.187033, 71.9508, -0.000976562, -0.000976562, -0.000976562, -0.0332031, 0.304688, -9.71777, 1.18.2022 20:35:18.720
521, 1.81767, 0.187033, 71.9508, -0.000976562, 0, -0.000976562, -0.00488281, 0.273438, -9.74023, 1.18.2022 20:35:18.728
522, 1.81767, 0.187033, 71.9508, -0.000976562, 0, -0.000976562, -0.0595703, 0.333984, -9.74219, 1.18.2022 20:35:18.736
523, 1.81767, 0.187033, 71.9508, 0, 0, -0.000976562, 0.0458984, 0.30957, -9.74219, 1.18.2022 20:35:18.744
524, 1.82178, 0.181373, 71.9509, 0, -0.000976562, 0, -0.0263672, 0.317383, -9.75781, 1.18.2022 20:35:18.752
525, 1.82178, 0.181373, 71.9509, -0.000976562, -0.000976562, -0.000976562, -0.0400391, 0.314453, -9.75293, 1.18.2022 20:35:18.760
526, 1.82178, 0.181373, 71.9509, -0.000976562, -0.000976562, -0.000976562, 0.0341797, 0.290039, -9.72852, 1.18.2022 20:35:18.768
527, 1.82178, 0.181373, 71.9509, 0, -0.000976562, -0.000976562, -0.078125, 0.297852, -9.73828, 1.18.2022 20:35:18.776
528, 1.82178, 0.181373, 71.9509, 0, 0, -0.00195312, -0.00195312, 0.324219, -9.73633, 1.18.2022 20:35:18.784
529, 1.82204, 0.18143, 71.9604, 0, -0.000976562, -0.000976562, -0.00488281, 0.288086, -9.74414, 1.18.2022 20:35:18.792
530, 1.82204, 0.18143, 71.9604, -0.000976562, -0.000976562, -0.000976562, -0.0566406, 0.293945, -9.70312, 1.18.2022 20:35:18.800
531, 1.82204, 0.18143, 71.9604, -0.000976562, -0.000976562, -0.000976562, -0.00878906, 0.291992, -9.70898, 1.18.2022 20:35:18.808
532, 1.82204, 0.18143, 71.9604, 0, 0, 0, -0.0214844, 0.295898, -9.74902, 1.18.2022 20:35:18.816
533, 1.82178, 0.181373, 71.9509, 0, -0.000976562, -0.000976562, -0.0498047, 0.304688, -9.7168, 1.18.2022 20:35:18.824
534, 1.82204, 0.18143, 71.9604, -0.000976562, 0, -0.000976562, 0.0078125, 0.30957, -9.73438, 1.18.2022 20:35:18.832
535, 1.82049, 0.171663, 71.9605, -0.000976562, 0, -0.000976562, -0.0566406, 0.333984, -9.74902, 1.18.2022 20:35:18.840
536, 1.82049, 0.171663, 71.9605, 0, 0, -0.000976562, -0.0351562, 0.306641, -9.73145, 1.18.2022 20:35:18.848
537, 1.82049, 0.171663, 71.9605, 0, 0, -0.00195312, 0.0117188, 0.3125, -9.77246, 1.18.2022 20:35:18.856
538, 1.82049, 0.171663, 71.9605, -0.000976562, -0.000976562, -0.000976562, -0.0927734, 0.329102, -9.76074, 1.18.2022 20:35:18.864
539, 1.82049, 0.171663, 71.9605, -0.000976562, -0.000976562, -0.000976562, -0.00683594, 0.316406, -9.73145, 1.18.2022 20:35:18.872
540, 1.82029, 0.171759, 71.9623, 0, -0.00195312, -0.00195312, -0.0488281, 0.287109, -9.70605, 1.18.2022 20:35:18.880
541, 1.82029, 0.171759, 71.9623, -0.000976562, 0, -0.000976562, -0.0712891, 0.329102, -9.74023, 1.18.2022 20:35:18.888
542, 1.82029, 0.171759, 71.9623, -0.000976562, -0.000976562, -0.00195312, 0.0195312, 0.280273, -9.73535, 1.18.2022 20:35:18.896
543, 1.82029, 0.171759, 71.9623, -0.000976562, -0.000976562, -0.00195312, -0.0546875, 0.297852, -9.74805, 1.18.2022 20:35:18.904
544, 1.82029, 0.171759, 71.9623, 0, -0.000976562, -0.000976562, -0.0371094, 0.333008, -9.71875, 1.18.2022 20:35:18.912
545, 1.82029, 0.171759, 71.9623, 0, -0.000976562, -0.00195312, 0.00976562, 0.294922, -9.72754, 1.18.2022 20:35:18.920
546, 1.82029, 0.171759, 71.9623, -0.000976562, 0, -0.000976562, -0.0947266, 0.321289, -9.71094, 1.18.2022 20:35:18.928
547, 1.82029, 0.171759, 71.9623, -0.000976562, -0.000976562, -0.000976562, -0.0136719, 0.288086, -9.73047, 1.18.2022 20:35:18.936
548, 1.82029, 0.171759, 71.9623, 0, -0.000976562, -0.000976562, -0.00390625, 0.287109, -9.71094, 1.18.2022 20:35:18.944
549, 1.82029, 0.171759, 71.9623, -0.000976562, -0.000976562, 0.000976562, -0.0830078, 0.339844, -9.70898, 1.18.2022 20:35:18.952
550, 1.82029, 0.171759, 71.9623, 0, -0.000976562, -0.000976562, 0.0146484, 0.290039, -9.72363, 1.18.2022 20:35:18.960
551, 1.82029, 0.171759, 71.9623, 0, -0.000976562, -0.000976562, -0.0205078, 0.304688, -9.72461, 1.18.2022 20:35:18.968
552, 1.82029, 0.171759, 71.9623, 0, -0.000976562, -0.00195312, -0.0419922, 0.334961, -9.71875, 1.18.2022 20:35:18.976
553, 1.82029, 0.171759, 71.9623, 0, -0.000976562, -0.00195312, 0.0390625, 0.293945, -9.71191, 1.18.2022 20:35:18.984
554, 1.82029, 0.171759, 71.9623, 0, -0.000976562, -0.000976562, -0.0693359, 0.335938, -9.74414, 1.18.2022 20:35:18.992
555, 1.82029, 0.171759, 71.9623, -0.000976562, -0.000976562, -0.000976562, -0.00976562, 0.304688, -9.74414, 1.18.2022 20:35:19.000
556, 1.82029, 0.171759, 71.9623, -0.000976562, -0.000976562, -0.000976562, -0.0410156, 0.28418, -9.78125, 1.18.2022 20:35:19.008
557, 1.82029, 0.171759, 71.9623, -0.000976562, -0.000976562, -0.000976562, -0.0849609, 0.314453, -9.7207, 1.18.2022 20:35:19.016
558, 1.82029, 0.171759, 71.9623, -0.000976562, -0.000976562, -0.000976562, 0.0117188, 0.294922, -9.74023, 1.18.2022 20:35:19.024
559, 1.82029, 0.171759, 71.9623, -0.000976562, -0.000976562, -0.000976562, -0.0322266, 0.265625, -9.69727, 1.18.2022 20:35:19.032
560, 1.82029, 0.171759, 71.9623, 0, 0, -0.000976562, -0.0761719, 0.3125, -9.74707, 1.18.2022 20:35:19.040
561, 1.82029, 0.171759, 71.9623, -0.000976562, 0, -0.000976562, 0.0195312, 0.306641, -9.72266, 1.18.2022 20:35:19.048
562, 1.81463, 0.167651, 71.9625, 0, -0.000976562, -0.000976562, -0.0615234, 0.323242, -9.7168, 1.18.2022 20:35:19.056
563, 1.81463, 0.167651, 71.9625, 0.000976562, 0, 0.000976562, -0.0400391, 0.323242, -9.7168, 1.18.2022 20:35:19.064
564, 1.81463, 0.167651, 71.9625, 0.000976562, 0, -0.000976562, -0.0117188, 0.270508, -9.72559, 1.18.2022 20:35:19.072
565, 1.81463, 0.167651, 71.9625, 0.000976562, 0, 0.000976562, -0.0878906, 0.333008, -9.72266, 1.18.2022 20:35:19.080
566, 1.81052, 0.173309, 71.9624, 0, 0, 0.000976562, -0.0146484, 0.3125, -9.75977, 1.18.2022 20:35:19.088
567, 1.81052, 0.173309, 71.9624, -0.000976562, 0, -0.000976562, -0.00878906, 0.30957, -9.73242, 1.18.2022 20:35:19.096
568, 1.81052, 0.173309, 71.9624, -0.000976562, 0, -0.000976562, -0.0634766, 0.328125, -9.70215, 1.18.2022 20:35:19.104
569, 1.81052, 0.173309, 71.9624, -0.000976562, 0, -0.000976562, 0.0263672, 0.291016, -9.75195, 1.18.2022 20:35:19.112
570, 1.81052, 0.173309, 71.9624, 0, -0.000976562, 0, -0.0576172, 0.322266, -9.75879, 1.18.2022 20:35:19.120
571, 1.81052, 0.173309, 71.9624, -0.000976562, -0.000976562, 0, -0.0429688, 0.332031, -9.75195, 1.18.2022 20:35:19.128
572, 1.81052, 0.173309, 71.9624, 0, 0, 0, -0.00195312, 0.291992, -9.71387, 1.18.2022 20:35:19.136
573, 1.81052, 0.173309, 71.9624, 0, 0, 0, -0.0742188, 0.333984, -9.76074, 1.18.2022 20:35:19.144
574, 1.81052, 0.173309, 71.9624, 0, -0.000976562, 0, -0.03125, 0.314453, -9.74609, 1.18.2022 20:35:19.152
575, 1.81052, 0.173309, 71.9624, 0, -0.000976562, 0, -0.0234375, 0.285156, -9.71777, 1.18.2022 20:35:19.160
576, 1.81052, 0.173309, 71.9624, -0.000976562, -0.000976562, 0.000976562, -0.0498047, 0.298828, -9.7666, 1.18.2022 20:35:19.168
577, 1.81052, 0.173309, 71.9624, -0.000976562, 0, 0, 0.03125, 0.299805, -9.74219, 1.18.2022 20:35:19.176
578, 1.81052, 0.173309, 71.9624, -0.000976562, 0, -0.000976562, -0.0507812, 0.298828, -9.77148, 1.18.2022 20:35:19.184
579, 1.81052, 0.173309, 71.9624, -0.000976562, 0, -0.000976562, -0.0576172, 0.318359, -9.77832, 1.18.2022 20:35:19.192
580, 1.81052, 0.173309, 71.9624, -0.000976562, -0.000976562, 0, 0.0478516, 0.327148, -9.76758, 1.18.2022 20:35:19.200
581, 1.81052, 0.173309, 71.9624, 0, 0, 0, -0.0712891, 0.321289, -9.73535, 1.18.2022 20:35:19.208
582, 1.81052, 0.173309, 71.9624, 0, -0.000976562, 0, -0.0478516, 0.299805, -9.73633, 1.18.2022 20:35:19.216
583, 1.81052, 0.173309, 71.9624, -0.000976562, -0.000976562, 0, 0.00976562, 0.291016, -9.74219, 1.18.2022 20:35:19.224
584, 1.81052, 0.173309, 71.9624, -0.000976562, 0, 0, -0.0703125, 0.313477, -9.71191, 1.18.2022 20:35:19.232
585, 1.81463, 0.167651, 71.9625, -0.000976562, 0, 0, 0.000976562, 0.287109, -9.69043, 1.18.2022 20:35:19.240
586, 1.81463, 0.167651, 71.9625, -0.000976562, 0, 0, -0.0332031, 0.288086, -9.72266, 1.18.2022 20:35:19.248
587, 1.81463, 0.167651, 71.9625, 0, -0.000976562, 0, -0.0517578, 0.311523, -9.7334, 1.18.2022 20:35:19.256
588, 1.81463, 0.167651, 71.9625, 0, 0, 0, 0.0332031, 0.303711, -9.77246, 1.18.2022 20:35:19.264
589, 1.81463, 0.167651, 71.9625, -0.000976562, 0, 0, -0.0517578, 0.291016, -9.73926, 1.18.2022 20:35:19.272
590, 1.81463, 0.167651, 71.9625, -0.000976562, 0.000976562, 0, -0.0292969, 0.320312, -9.77832, 1.18.2022 20:35:19.280
591, 1.81463, 0.167651, 71.9625, 0, 0, 0.000976562, 0.00488281, 0.291016, -9.74707, 1.18.2022 20:35:19.288
592, 1.81463, 0.167651, 71.9625, 0, -0.000976562, 0.000976562, -0.0644531, 0.34082, -9.74414, 1.18.2022 20:35:19.296
593, 1.81463, 0.167651, 71.9625, -0.000976562, -0.000976562, 0, -0.0263672, 0.322266, -9.75, 1.18.2022 20:35:19.304
594, 1.81463, 0.167651, 71.9625, -0.000976562, -0.000976562, 0, -0.0361328, 0.297852, -9.74805, 1.18.2022 20:35:19.312
595, 1.81463, 0.167651, 71.9625, -0.000976562, -0.000976562, 0.000976562, -0.0683594, 0.330078, -9.71387, 1.18.2022 20:35:19.320
596, 1.81463, 0.167651, 71.9625, -0.000976562, -0.000976562, 0, 0.0166016, 0.283203, -9.73047, 1.18.2022 20:35:19.328
597, 1.81483, 0.167555, 71.9607, -0.000976562, -0.000976562, 0, -0.0410156, 0.28418, -9.78125, 1.18.2022 20:35:19.336
598, 1.81483, 0.167555, 71.9607, 0, -0.000976562, 0, -0.0205078, 0.306641, -9.72266, 1.18.2022 20:35:19.344
599, 1.81483, 0.167555, 71.9607, -0.000976562, -0.000976562, 0, -0.0136719, 0.285156, -9.7207, 1.18.2022 20:35:19.352
600, 1.81483, 0.167555, 71.9607, 0, -0.000976562, 0, -0.0849609, 0.308594, -9.70508, 1.18.2022 20:35:19.360
601, 1.81463, 0.167651, 71.9625, 0, -0.000976562, -0.00195312, -0.00292969, 0.3125, -9.76465, 1.18.2022 20:35:19.368
602, 1.81463, 0.167651, 71.9625, -0.000976562, 0.000976562, -0.00195312, -0.0263672, 0.318359, -9.77637, 1.18.2022 20:35:19.376
603, 1.81463, 0.167651, 71.9625, 0, 0, 0, -0.0810547, 0.324219, -9.74707, 1.18.2022 20:35:19.384
604, 1.81463, 0.167651, 71.9625, -0.000976562, -0.000976562, -0.00195312, 0.0117188, 0.286133, -9.74023, 1.18.2022 20:35:19.392
605, 1.81463, 0.167651, 71.9625, -0.000976562, 0, -0.00195312, -0.0537109, 0.301758, -9.71289, 1.18.2022 20:35:19.400
606, 1.81463, 0.167651, 71.9625, 0, -0.000976562, -0.000976562, -0.0302734, 0.324219, -9.74316, 1.18.2022 20:35:19.408
607, 1.81463, 0.167651, 71.9625, 0, 0, 0, 0.0283203, 0.295898, -9.77539, 1.18.2022 20:35:19.416
608, 1.80897, 0.163542, 71.9626, 0, -0.000976562, -0.000976562, -0.0732422, 0.321289, -9.7334, 1.18.2022 20:35:19.424
609, 1.80897, 0.163542, 71.9626, 0, 0, 0.000976562, -0.0332031, 0.317383, -9.75684, 1.18.2022 20:35:19.432
610, 1.80897, 0.163542, 71.9626, 0, 0, 0.000976562, 0.00292969, 0.288086, -9.74414, 1.18.2022 20:35:19.440
611, 1.80897, 0.163542, 71.9626, 0, 0, 0, -0.0761719, 0.322266, -9.74219, 1.18.2022 20:35:19.448
612, 1.80897, 0.163542, 71.9626, 0.000976562, 0, -0.000976562, 0.00292969, 0.30957, -9.73438, 1.18.2022 20:35:19.456
613, 1.80897, 0.163542, 71.9626, 0, -0.00195312, -0.000976562, -0.0283203, 0.286133, -9.7627, 1.18.2022 20:35:19.464
614, 1.80897, 0.163542, 71.9626, -0.000976562, -0.00195312, -0.000976562, -0.0595703, 0.295898, -9.74121, 1.18.2022 20:35:19.472
615, 1.80487, 0.169201, 71.9626, -0.000976562, -0.000976562, -0.000976562, 0.0146484, 0.280273, -9.71191, 1.18.2022 20:35:19.480
616, 1.80487, 0.169201, 71.9626, -0.000976562, 0, 0, -0.078125, 0.296875, -9.70801, 1.18.2022 20:35:19.486
617, 1.80487, 0.169201, 71.9626, 0, 0, 0, -0.0351562, 0.342773, -9.71191, 1.18.2022 20:35:19.494
618, 1.80487, 0.169201, 71.9626, 0, 0, 0, -0.00683594, 0.301758, -9.72266, 1.18.2022 20:35:19.502
619, 1.80487, 0.169201, 71.9626, 0, -0.000976562, -0.000976562, -0.109375, 0.329102, -9.73438, 1.18.2022 20:35:19.510
620, 1.80487, 0.169201, 71.9626, 0, -0.000976562, -0.000976562, -0.0507812, 0.298828, -9.77637, 1.18.2022 20:35:19.518
621, 1.80487, 0.169201, 71.9626, 0, -0.000976562, -0.000976562, -0.0224609, 0.274414, -9.69238, 1.18.2022 20:35:19.526
622, 1.80487, 0.169201, 71.9626, 0, -0.000976562, -0.000976562, -0.0683594, 0.321289, -9.7334, 1.18.2022 20:35:19.534
623, 1.80487, 0.169201, 71.9626, 0, -0.000976562, -0.000976562, 0, 0.331055, -9.73828, 1.18.2022 20:35:19.542
624, 1.80487, 0.169201, 71.9626, 0, -0.000976562, -0.000976562, -0.0830078, 0.316406, -9.73047, 1.18.2022 20:35:19.550
625, 1.80487, 0.169201, 71.9626, 0, -0.000976562, -0.000976562, -0.0283203, 0.322266, -9.75977, 1.18.2022 20:35:19.558
626, 1.80076, 0.17486, 71.9626, -0.000976562, -0.000976562, -0.000976562, 0.0263672, 0.3125, -9.75586, 1.18.2022 20:35:19.566
627, 1.80076, 0.17486, 71.9626, -0.000976562, -0.00195312, -0.000976562, -0.104492, 0.341797, -9.7627, 1.18.2022 20:35:19.574
628, 1.80642, 0.178968, 71.9624, -0.000976562, -0.000976562, -0.000976562, -0.0234375, 0.317383, -9.74316, 1.18.2022 20:35:19.582
629, 1.80642, 0.178968, 71.9624, 0, 0, 0, -0.0361328, 0.336914, -9.76172, 1.18.2022 20:35:19.590
630, 1.80642, 0.178968, 71.9624, 0, 0, 0, -0.0908203, 0.333984, -9.74902, 1.18.2022 20:35:19.598
631, 1.80642, 0.178968, 71.9624, -0.000976562, 0, 0, 0.0146484, 0.288086, -9.74902, 1.18.2022 20:35:19.606
632, 1.80642, 0.178968, 71.9624, -0.000976562, 0, 0, -0.0693359, 0.304688, -9.73828, 1.18.2022 20:35:19.614
633, 1.80642, 0.178968, 71.9624, 0, -0.000976562, -0.000976562, -0.0527344, 0.302734, -9.75977, 1.18.2022 20:35:19.622
634, 1.80642, 0.178968, 71.9624, -0.000976562, -0.000976562, -0.000976562, 0.0195312, 0.291992, -9.70898, 1.18.2022 20:35:19.630
635, 1.81207, 0.183077, 71.9622, -0.00195312, -0.000976562, 0, -0.0810547, 0.327148, -9.76367, 1.18.2022 20:35:19.638
636, 1.81207, 0.183077, 71.9622, -0.00195312, -0.000976562, -0.00195312, -0.0283203, 0.30957, -9.71973, 1.18.2022 20:35:19.646
637, 1.81207, 0.183077, 71.9622, -0.000976562, -0.000976562, -0.000976562, -0.0234375, 0.276367, -9.75195, 1.18.2022 20:35:19.654
638, 1.81207, 0.183077, 71.9622, 0, 0, 0, -0.0664062, 0.326172, -9.74512, 1.18.2022 20:35:19.662
639, 1.81362, 0.192844, 71.9621, 0, -0.000976562, -0.000976562, 0.0126953, 0.328125, -9.73145, 1.18.2022 20:35:19.670
640, 1.81362, 0.192844, 71.9621, 0, -0.000976562, -0.00195312, -0.0302734, 0.307617, -9.74121, 1.18.2022 20:35:19.678
641, 1.81362, 0.192844, 71.9621, -0.000976562, -0.000976562, -0.00195312, -0.0712891, 0.338867, -9.74707, 1.18.2022 20:35:19.686
642, 1.81362, 0.192844, 71.9621, -0.000976562, -0.000976562, -0.00195312, -0.00292969, 0.31543, -9.75977, 1.18.2022 20:35:19.694
643, 1.81362, 0.192844, 71.9621, -0.000976562, 0, 0.000976562, -0.0830078, 0.310547, -9.75195, 1.18.2022 20:35:19.702
644, 1.81928, 0.196952, 71.9619, 0, 0, 0.000976562, -0.0332031, 0.280273, -9.73047, 1.18.2022 20:35:19.710
645, 1.81928, 0.196952, 71.9619, 0, 0, 0, 0, 0.274414, -9.77051, 1.18.2022 20:35:19.718
646, 1.81928, 0.196952, 71.9619, 0, 0, 0, -0.0683594, 0.301758, -9.72656, 1.18.2022 20:35:19.726
647, 1.81928, 0.196952, 71.9619, 0, -0.000976562, -0.00195312, 0.0263672, 0.296875, -9.7207, 1.18.2022 20:35:19.734
648, 1.81928, 0.196952, 71.9619, 0, -0.000976562, -0.000976562, -0.0283203, 0.294922, -9.74121, 1.18.2022 20:35:19.742
649, 1.81928, 0.196952, 71.9619, -0.000976562, -0.000976562, -0.000976562, -0.0712891, 0.316406, -9.7168, 1.18.2022 20:35:19.750
650, 1.81928, 0.196952, 71.9619, -0.000976562, 0, 0.000976562, 0.0146484, 0.275391, -9.72656, 1.18.2022 20:35:19.758
651, 1.81928, 0.196952, 71.9619, 0, 0, 0.000976562, -0.0537109, 0.299805, -9.71484, 1.18.2022 20:35:19.766
652, 1.81928, 0.196952, 71.9619, 0, -0.000976562, 0.000976562, -0.0332031, 0.297852, -9.73145, 1.18.2022 20:35:19.774
653, 1.81928, 0.196952, 71.9619, 0, 0, 0, 0.0234375, 0.286133, -9.75195, 1.18.2022 20:35:19.782
654, 1.81928, 0.196952, 71.9619, -0.000976562, 0, 0, -0.078125, 0.329102, -9.73047, 1.18.2022 20:35:19.790
655, 1.81928, 0.196952, 71.9619, -0.000976562, -0.000976562, -0.00195312, -0.0166016, 0.321289, -9.7334, 1.18.2022 20:35:19.798
656, 1.81928, 0.196952, 71.9619, -0.000976562, -0.000976562, -0.00195312, -0.0136719, 0.288086, -9.73438, 1.18.2022 20:35:19.806
657, 1.81928, 0.196952, 71.9619, 0, 0, 0, -0.0615234, 0.302734, -9.75488, 1.18.2022 20:35:19.814
658, 1.81928, 0.196952, 71.9619, 0, 0, 0, 0.00683594, 0.289062, -9.77246, 1.18.2022 20:35:19.822
659, 1.81928, 0.196952, 71.9619, -0.000976562, 0, 0, -0.0458984, 0.336914, -9.76855, 1.18.2022 20:35:19.830
660, 1.81928, 0.196952, 71.9619, -0.000976562, 0, 0, -0.0664062, 0.355469, -9.73926, 1.18.2022 20:35:19.838
661, 1.81928, 0.196952, 71.9619, -0.000976562, -0.000976562, -0.000976562, -0.00488281, 0.320312, -9.76758, 1.18.2022 20:35:19.846
662, 1.81362, 0.192844, 71.9621, 0, 0, 0, -0.0849609, 0.301758, -9.71875, 1.18.2022 20:35:19.854
663, 1.81362, 0.192844, 71.9621, -0.000976562, 0, 0, -0.0292969, 0.325195, -9.77344, 1.18.2022 20:35:19.862
664, 1.81362, 0.192844, 71.9621, 0.000976562, -0.000976562, -0.000976562, -0.0136719, 0.285156, -9.71387, 1.18.2022 20:35:19.870
665, 1.81362, 0.192844, 71.9621, -0.000976562, -0.000976562, -0.00195312, -0.0888672, 0.301758, -9.79004, 1.18.2022 20:35:19.878
666, 1.81362, 0.192844, 71.9621, 0, -0.000976562, -0.000976562, 0.0146484, 0.300781, -9.75391, 1.18.2022 20:35:19.886
667, 1.81362, 0.192844, 71.9621, -0.000976562, 0, 0, -0.0449219, 0.297852, -9.74316, 1.18.2022 20:35:19.894
668, 1.81362, 0.192844, 71.9621, -0.000976562, -0.000976562, 0, -0.0742188, 0.327148, -9.77051, 1.18.2022 20:35:19.902
669, 1.81362, 0.192844, 71.9621, -0.000976562, -0.000976562, 0.000976562, 0, 0.291016, -9.75391, 1.18.2022 20:35:19.910
670, 1.81362, 0.192844, 71.9621, 0, -0.000976562, 0, -0.0839844, 0.325195, -9.76367, 1.18.2022 20:35:19.918
671, 1.81362, 0.192844, 71.9621, -0.000976562, 0, -0.000976562, -0.0371094, 0.313477, -9.69336, 1.18.2022 20:35:19.926
672, 1.81362, 0.192844, 71.9621, -0.000976562, -0.000976562, 0, -0.00976562, 0.293945, -9.78906, 1.18.2022 20:35:19.934
673, 1.81362, 0.192844, 71.9621, -0.000976562, -0.000976562, 0.000976562, -0.0712891, 0.299805, -9.71973, 1.18.2022 20:35:19.942
674, 1.81362, 0.192844, 71.9621, -0.000976562, 0, 0.000976562, -0.00390625, 0.308594, -9.71289, 1.18.2022 20:35:19.950
675, 1.81362, 0.192844, 71.9621, -0.000976562, 0, 0.000976562, -0.0380859, 0.310547, -9.75488, 1.18.2022 20:35:19.958
676, 1.81362, 0.192844, 71.9621, -0.000976562, -0.000976562, -0.000976562, -0.0800781, 0.318359, -9.7168, 1.18.2022 20:35:19.966
677, 1.81362, 0.192844, 71.9621, 0, 0, -0.000976562, 0.0078125, 0.282227, -9.71387, 1.18.2022 20:35:19.974
678, 1.81362, 0.192844, 71.9621, 0, 0, 0, -0.0498047, 0.310547, -9.75293, 1.18.2022 20:35:19.982
679, 1.81362, 0.192844, 71.9621, 0, 0, 0, -0.0371094, 0.308594, -9.71484, 1.18.2022 20:35:19.990
680, 1.81362, 0.192844, 71.9621, 0, -0.000976562, 0, 0.0361328, 0.317383, -9.74902, 1.18.2022 20:35:19.998
681, 1.81362, 0.192844, 71.9621, -0.000976562, -0.000976562, 0, -0.106445, 0.299805, -9.72168, 1.18.2022 20:35:20.006
682, 1.81362, 0.192844, 71.9621, 0, -0.000976562, 0, -0.0351562, 0.318359, -9.72461, 1.18.2022 20:35:20.014
683, 1.80952, 0.198503, 71.962, -0.000976562, -0.000976562, -0.000976562, -0.00195312, 0.306641, -9.72461, 1.18.2022 20:35:20.022
684, 1.80952, 0.198503, 71.962, 0, -0.000976562, 0, -0.0878906, 0.306641, -9.72559, 1.18.2022 20:35:20.030
685, 1.80952, 0.198503, 71.962, -0.000976562, -0.000976562, 0.000976562, 0.0263672, 0.288086, -9.75195, 1.18.2022 20:35:20.038
686, 1.81517, 0.202611, 71.9619, 0, -0.00195312, 0.000976562, -0.0615234, 0.301758, -9.71973, 1.18.2022 20:35:20.046
687, 1.81517, 0.202611, 71.9619, -0.000976562, -0.000976562, 0, -0.0449219, 0.331055, -9.73047, 1.18.2022 20:35:20.054
688, 1.81517, 0.202611, 71.9619, -0.000976562, 0, 0, 0.00292969, 0.285156, -9.72363, 1.18.2022 20:35:20.062
689, 1.81517, 0.202611, 71.9619, -0.000976562, 0, 0, -0.0742188, 0.310547, -9.75488, 1.18.2022 20:35:20.070
690, 1.81517, 0.202611, 71.9619, -0.00195312, 0, 0, -0.0185547, 0.327148, -9.75488, 1.18.2022 20:35:20.078
691, 1.81517, 0.202611, 71.9619, -0.00195312, 0, 0, 0.0195312, 0.290039, -9.73535, 1.18.2022 20:35:20.086
692, 1.81517, 0.202611, 71.9619, -0.000976562, -0.000976562, 0, -0.0732422, 0.326172, -9.72559, 1.18.2022 20:35:20.094
693, 1.81517, 0.202611, 71.9619, -0.000976562, -0.000976562, 0, 0.0244141, 0.285156, -9.72363, 1.18.2022 20:35:20.102
694, 1.81517, 0.202611, 71.9619, 0, -0.000976562, 0, -0.0332031, 0.303711, -9.76953, 1.18.2022 20:35:20.110
695, 1.81517, 0.202611, 71.9619, 0, 0, 0, -0.0761719, 0.294922, -9.72852, 1.18.2022 20:35:20.118
696, 1.81517, 0.202611, 71.9619, 0, -0.000976562, 0, 0.0214844, 0.289062, -9.78027, 1.18.2022 20:35:20.126
697, 1.80952, 0.198503, 71.962, 0, -0.000976562, 0.000976562, -0.0683594, 0.306641, -9.72656, 1.18.2022 20:35:20.134
698, 1.80952, 0.198503, 71.962, 0, -0.000976562, -0.000976562, -0.0429688, 0.28125, -9.7627, 1.18.2022 20:35:20.142
699, 1.80952, 0.198503, 71.962, -0.000976562, -0.000976562, -0.000976562, 0, 0.276367, -9.76172, 1.18.2022 20:35:20.150
700, 1.80952, 0.198503, 71.962, -0.000976562, -0.000976562, -0.00195312, -0.0712891, 0.314453, -9.73047, 1.18.2022 20:35:20.158
701, 1.80952, 0.198503, 71.962, -0.000976562, -0.000976562, -0.000976562, 0.0341797, 0.287109, -9.7168, 1.18.2022 20:35:20.166
702, 1.80952, 0.198503, 71.962, 0, 0, -0.00195312, -0.0566406, 0.275391, -9.71582, 1.18.2022 20:35:20.174
703, 1.80952, 0.198503, 71.962, 0, 0, -0.000976562, -0.0761719, 0.319336, -9.75391, 1.18.2022 20:35:20.182
704, 1.80952, 0.198503, 71.962, 0, -0.000976562, -0.000976562, -0.00683594, 0.314453, -9.75586, 1.18.2022 20:35:20.190
705, 1.80386, 0.194394, 71.9622, -0.000976562, -0.000976562, -0.000976562, -0.0712891, 0.307617, -9.75, 1.18.2022 20:35:20.198
706, 1.80386, 0.194394, 71.9622, -0.000976562, -0.000976562, -0.000976562, -0.0517578, 0.331055, -9.74219, 1.18.2022 20:35:20.206
707, 1.80386, 0.194394, 71.9622, -0.000976562, 0, -0.000976562, 0.0078125, 0.291992, -9.69727, 1.18.2022 20:35:20.214
708, 1.80386, 0.194394, 71.9622, -0.000976562, 0, -0.000976562, -0.0703125, 0.305664, -9.69824, 1.18.2022 20:35:20.222
709, 1.80386, 0.194394, 71.9622, 0, -0.000976562, -0.00195312, -0.0332031, 0.299805, -9.74316, 1.18.2022 20:35:20.230
710, 1.80386, 0.194394, 71.9622, -0.000976562, -0.000976562, -0.000976562, -0.00195312, 0.310547, -9.70605, 1.18.2022 20:35:20.238
711, 1.80386, 0.194394, 71.9622, 0, -0.00195312, 0, -0.046875, 0.324219, -9.7334, 1.18.2022 20:35:20.246
712, 1.80386, 0.194394, 71.9622, -0.000976562, 0, 0.000976562, 0.0263672, 0.27832, -9.72168, 1.18.2022 20:35:20.254
713, 1.80386, 0.194394, 71.9622, 0, -0.000976562, -0.000976562, -0.0371094, 0.301758, -9.70605, 1.18.2022 20:35:20.262
714, 1.80386, 0.194394, 71.9622, -0.000976562, 0, 0.000976562, -0.0654297, 0.318359, -9.69043, 1.18.2022 20:35:20.270
715, 1.7982, 0.190286, 71.9624, 0, 0, -0.000976562, -0.00878906, 0.28418, -9.69727, 1.18.2022 20:35:20.278
716, 1.7982, 0.190286, 71.9624, -0.000976562, 0, -0.00195312, -0.0800781, 0.310547, -9.68555, 1.18.2022 20:35:20.286
717, 1.7982, 0.190286, 71.9624, -0.000976562, -0.000976562, -0.00195312, -0.0546875, 0.30957, -9.73145, 1.18.2022 20:35:20.294
718, 1.7982, 0.190286, 71.9624, 0, -0.000976562, -0.000976562, -0.0185547, 0.304688, -9.74414, 1.18.2022 20:35:20.302
719, 1.7982, 0.190286, 71.9624, -0.000976562, 0, -0.000976562, -0.0810547, 0.34082, -9.73926, 1.18.2022 20:35:20.310
720, 1.7982, 0.190286, 71.9624, -0.000976562, 0, -0.000976562, -0.0078125, 0.291016, -9.76562, 1.18.2022 20:35:20.318
721, 1.7982, 0.190286, 71.9624, -0.000976562, 0, -0.000976562, -0.0595703, 0.292969, -9.73633, 1.18.2022 20:35:20.326
722, 1.7982, 0.190286, 71.9624, -0.000976562, -0.000976562, -0.000976562, -0.0791016, 0.320312, -9.76562, 1.18.2022 20:35:20.334
723, 1.7982, 0.190286, 71.9624, -0.000976562, 0, -0.000976562, 0.0380859, 0.295898, -9.76367, 1.18.2022 20:35:20.342
724, 1.7982, 0.190286, 71.9624, -0.000976562, -0.000976562, -0.000976562, -0.0732422, 0.319336, -9.74512, 1.18.2022 20:35:20.350
725, 1.7982, 0.190286, 71.9624, 0, -0.000976562, 0, -0.0332031, 0.307617, -9.75098, 1.18.2022 20:35:20.358
726, 1.7982, 0.190286, 71.9624, 0, -0.000976562, -0.000976562, -0.0146484, 0.274414, -9.75391, 1.18.2022 20:35:20.366
727, 1.79409, 0.195945, 71.9623, -0.000976562, 0, -0.000976562, -0.0927734, 0.317383, -9.75195, 1.18.2022 20:35:20.374
728, 1.79409, 0.195945, 71.9623, 0, -0.000976562, -0.000976562, -0.0117188, 0.329102, -9.75781, 1.18.2022 20:35:20.382
729, 1.79409, 0.195945, 71.9623, -0.000976562, -0.000976562, -0.000976562, 0.00488281, 0.297852, -9.75586, 1.18.2022 20:35:20.390
730, 1.79409, 0.195945, 71.9623, 0, -0.000976562, 0, -0.0498047, 0.324219, -9.73047, 1.18.2022 20:35:20.398
731, 1.79409, 0.195945, 71.9623, -0.000976562, -0.000976562, 0.000976562, 0.0166016, 0.28125, -9.73828, 1.18.2022 20:35:20.406
732, 1.79409, 0.195945, 71.9623, -0.00195312, 0, 0, -0.0664062, 0.302734, -9.75, 1.18.2022 20:35:20.414
733, 1.79409, 0.195945, 71.9623, -0.000976562, -0.000976562, 0, -0.0380859, 0.302734, -9.75488, 1.18.2022 20:35:20.422
734, 1.79409, 0.195945, 71.9623, 0, -0.000976562, 0, 0.0234375, 0.293945, -9.76855, 1.18.2022 20:35:20.430
735, 1.79409, 0.195945, 71.9623, 0, 0, 0, -0.0947266, 0.319336, -9.72754, 1.18.2022 20:35:20.438
736, 1.79409, 0.195945, 71.9623, 0, -0.000976562, 0, -0.0273438, 0.313477, -9.69141, 1.18.2022 20:35:20.446
737, 1.79409, 0.195945, 71.9623, -0.000976562, 0, 0, -0.0136719, 0.275391, -9.70703, 1.18.2022 20:35:20.454
738, 1.79409, 0.195945, 71.9623, 0, -0.000976562, 0, -0.0878906, 0.314453, -9.7207, 1.18.2022 20:35:20.460
739, 1.79409, 0.195945, 71.9623, 0, -0.000976562, 0, 0.0214844, 0.295898, -9.75684, 1.18.2022 20:35:20.468
740, 1.79409, 0.195945, 71.9623, -0.000976562, -0.000976562, 0, -0.0361328, 0.308594, -9.76953, 1.18.2022 20:35:20.476
741, 1.79409, 0.195945, 71.9623, -0.000976562, 0.000976562, 0, -0.0615234, 0.301758, -9.70996, 1.18.2022 20:35:20.484
742, 1.79409, 0.195945, 71.9623, 0, 0, 0, 0.00976562, 0.311523, -9.7207, 1.18.2022 20:35:20.492
743, 1.79409, 0.195945, 71.9623, 0, -0.000976562, 0, -0.0673828, 0.305664, -9.76855, 1.18.2022 20:35:20.500
744, 1.79409, 0.195945, 71.9623, -0.00195312, -0.000976562, 0, -0.0234375, 0.317383, -9.75781, 1.18.2022 20:35:20.508
745, 1.79409, 0.195945, 71.9623, -0.000976562, -0.000976562, 0, 0, 0.288086, -9.75586, 1.18.2022 20:35:20.516
746, 1.79409, 0.195945, 71.9623, 0, -0.000976562, 0, -0.0498047, 0.331055, -9.72363, 1.18.2022 20:35:20.524
747, 1.79409, 0.195945, 71.9623, -0.000976562, 0, 0, -0.0185547, 0.326172, -9.7168, 1.18.2022 20:35:20.532
748, 1.79409, 0.195945, 71.9623, -0.000976562, 0, 0, -0.0322266, 0.308594, -9.70996, 1.18.2022 20:35:20.540
749, 1.79409, 0.195945, 71.9623, -0.000976562, -0.000976562, 0, -0.0517578, 0.311523, -9.7334, 1.18.2022 20:35:20.548
750, 1.79409, 0.195945, 71.9623, 0, -0.000976562, 0, 0.0214844, 0.300781, -9.75586, 1.18.2022 20:35:20.556
751, 1.79409, 0.195945, 71.9623, 0, -0.000976562, 0, -0.0419922, 0.285156, -9.70605, 1.18.2022 20:35:20.564
752, 1.79409, 0.195945, 71.9623, 0, 0, 0, -0.03125, 0.314453, -9.74316, 1.18.2022 20:35:20.572
753, 1.7982, 0.190286, 71.9624, -0.000976562, -0.000976562, 0, -0.00390625, 0.282227, -9.69727, 1.18.2022 20:35:20.580
754, 1.7982, 0.190286, 71.9624, -0.000976562, -0.000976562, 0, -0.0634766, 0.321289, -9.72168, 1.18.2022 20:35:20.588
755, 1.7982, 0.190286, 71.9624, -0.000976562, 0, 0, -0.0214844, 0.299805, -9.73926, 1.18.2022 20:35:20.596
756, 1.7982, 0.190286, 71.9624, -0.000976562, 0, 0.000976562, -0.03125, 0.291016, -9.74414, 1.18.2022 20:35:20.604
757, 1.7982, 0.190286, 71.9624, 0, 0, 0, -0.0546875, 0.322266, -9.75488, 1.18.2022 20:35:20.612
758, 1.7982, 0.190286, 71.9624, 0, 0, 0, 0.0146484, 0.288086, -9.74902, 1.18.2022 20:35:20.620
759, 1.7982, 0.190286, 71.9624, 0, 0, 0, -0.0498047, 0.319336, -9.74707, 1.18.2022 20:35:20.628
760, 1.7982, 0.190286, 71.9624, 0, 0, 0, -0.0332031, 0.331055, -9.74023, 1.18.2022 20:35:20.636
761, 1.79254, 0.186178, 71.9625, 0.000976562, 0, 0, 0.00976562, 0.271484, -9.75879, 1.18.2022 20:35:20.644
762, 1.79254, 0.186178, 71.9625, 0, -0.000976562, 0, -0.0566406, 0.328125, -9.71875, 1.18.2022 20:35:20.652
763, 1.79254, 0.186178, 71.9625, -0.000976562, -0.000976562, -0.000976562, -0.0166016, 0.314453, -9.72949, 1.18.2022 20:35:20.660
764, 1.79665, 0.180519, 71.9625, 0, 0, -0.000976562, -0.00683594, 0.30957, -9.75098, 1.18.2022 20:35:20.668
765, 1.79665, 0.180519, 71.9625, -0.000976562, -0.000976562, -0.000976562, -0.0664062, 0.319336, -9.74512, 1.18.2022 20:35:20.676
766, 1.79665, 0.180519, 71.9625, 0, -0.000976562, -0.00195312, 0.0361328, 0.3125, -9.74902, 1.18.2022 20:35:20.684
767, 1.79665, 0.180519, 71.9625, -0.000976562, 0, -0.000976562, -0.0566406, 0.297852, -9.74316, 1.18.2022 20:35:20.692
768, 1.79665, 0.180519, 71.9625, -0.000976562, -0.000976562, -0.000976562, -0.0488281, 0.337891, -9.71191, 1.18.2022 20:35:20.700
769, 1.79665, 0.180519, 71.9625, 0, -0.000976562, -0.000976562, 0, 0.292969, -9.74414, 1.18.2022 20:35:20.708
770, 1.79665, 0.180519, 71.9625, -0.000976562, -0.000976562, -0.00195312, -0.0996094, 0.303711, -9.70703, 1.18.2022 20:35:20.716
771, 1.79665, 0.180519, 71.9625, 0, 0, -0.000976562, -0.0166016, 0.307617, -9.74609, 1.18.2022 20:35:20.724
772, 1.79665, 0.180519, 71.9625, 0, 0, -0.000976562, 0, 0.319336, -9.74121, 1.18.2022 20:35:20.732
773, 1.80076, 0.17486, 71.9626, 0, 0, -0.000976562, -0.102539, 0.329102, -9.74219, 1.18.2022 20:35:20.740
774, 1.80076, 0.17486, 71.9626, -0.000976562, 0, -0.00195312, 0.00390625, 0.316406, -9.80566, 1.18.2022 20:35:20.748
775, 1.80076, 0.17486, 71.9626, 0, 0, -0.000976562, -0.0341797, 0.303711, -9.7793, 1.18.2022 20:35:20.756
776, 1.80076, 0.17486, 71.9626, -0.000976562, -0.000976562, -0.000976562, -0.0566406, 0.335938, -9.73535, 1.18.2022 20:35:20.764
777, 1.80076, 0.17486, 71.9626, -0.000976562, 0, -0.000976562, 0.0146484, 0.294922, -9.73242, 1.18.2022 20:35:20.772
778, 1.80076, 0.17486, 71.9626, 0, 0, -0.000976562, -0.0976562, 0.295898, -9.74316, 1.18.2022 20:35:20.780
779, 1.80076, 0.17486, 71.9626, -0.000976562, -0.000976562, 0, -0.0253906, 0.294922, -9.71777, 1.18.2022 20:35:20.788
780, 1.80076, 0.17486, 71.9626, 0, -0.000976562, -0.000976562, 0.0078125, 0.296875, -9.70215, 1.18.2022 20:35:20.796
781, 1.80642, 0.178968, 71.9624, 0, 0, -0.000976562, -0.0849609, 0.298828, -9.69043, 1.18.2022 20:35:20.804
782, 1.80642, 0.178968, 71.9624, -0.000976562, -0.000976562, -0.000976562, -0.0166016, 0.292969, -9.74414, 1.18.2022 20:35:20.812
783, 1.80642, 0.178968, 71.9624, 0, -0.000976562, -0.000976562, -0.0400391, 0.286133, -9.74121, 1.18.2022 20:35:20.820
784, 1.80642, 0.178968, 71.9624, 0, -0.000976562, -0.000976562, -0.0566406, 0.321289, -9.73047, 1.18.2022 20:35:20.828
785, 1.80642, 0.178968, 71.9624, 0, -0.000976562, -0.000976562, 0.0332031, 0.3125, -9.76074, 1.18.2022 20:35:20.836
786, 1.80642, 0.178968, 71.9624, 0, -0.000976562, -0.000976562, -0.0722656, 0.313477, -9.78516, 1.18.2022 20:35:20.844
787, 1.80642, 0.178968, 71.9624, 0, -0.000976562, -0.000976562, -0.0537109, 0.325195, -9.69727, 1.18.2022 20:35:20.852
788, 1.80642, 0.178968, 71.9624, 0, -0.000976562, -0.00195312, -0.00488281, 0.305664, -9.76758, 1.18.2022 20:35:20.860
789, 1.80642, 0.178968, 71.9624, -0.000976562, -0.000976562, -0.000976562, -0.0849609, 0.311523, -9.72852, 1.18.2022 20:35:20.868
790, 1.80642, 0.178968, 71.9624, -0.000976562, -0.000976562, -0.00195312, -0.00976562, 0.3125, -9.7627, 1.18.2022 20:35:20.876
791, 1.80642, 0.178968, 71.9624, -0.000976562, -0.000976562, -0.000976562, -0.00878906, 0.319336, -9.73438, 1.18.2022 20:35:20.884
792, 1.80642, 0.178968, 71.9624, -0.000976562, -0.00195312, -0.000976562, -0.0566406, 0.319336, -9.75, 1.18.2022 20:35:20.892
793, 1.80642, 0.178968, 71.9624, -0.000976562, -0.000976562, -0.000976562, 0.0273438, 0.308594, -9.70898, 1.18.2022 20:35:20.900
794, 1.81207, 0.183077, 71.9622, -0.000976562, -0.000976562, 0.000976562, -0.0537109, 0.326172, -9.7168, 1.18.2022 20:35:20.908
795, 1.81207, 0.183077, 71.9622, -0.000976562, -0.000976562, 0, -0.0449219, 0.324219, -9.74707, 1.18.2022 20:35:20.916
796, 1.81207, 0.183077, 71.9622, -0.000976562, -0.000976562, 0.000976562, 0.0078125, 0.288086, -9.74023, 1.18.2022 20:35:20.924
797, 1.81207, 0.183077, 71.9622, 0, -0.000976562, 0, -0.0595703, 0.317383, -9.74707, 1.18.2022 20:35:20.932
798, 1.81207, 0.183077, 71.9622, 0, -0.000976562, 0, -0.03125, 0.325195, -9.7832, 1.18.2022 20:35:20.940
799, 1.81207, 0.183077, 71.9622, 0, -0.000976562, 0, -0.0214844, 0.307617, -9.74805, 1.18.2022 20:35:20.948
800, 1.81207, 0.183077, 71.9622, 0, -0.000976562, 0, -0.0830078, 0.311523, -9.72559, 1.18.2022 20:35:20.956
801, 1.81207, 0.183077, 71.9622, 0, -0.000976562, -0.00195312, 0.0126953, 0.289062, -9.6875, 1.18.2022 20:35:20.964
802, 1.81207, 0.183077, 71.9622, -0.000976562, -0.000976562, 0, -0.0371094, 0.296875, -9.69629, 1.18.2022 20:35:20.972
803, 1.81207, 0.183077, 71.9622, -0.000976562, -0.000976562, 0, -0.078125, 0.317383, -9.75195, 1.18.2022 20:35:20.980
804, 1.81207, 0.183077, 71.9622, 0, 0, 0, 0.0166016, 0.300781, -9.75195, 1.18.2022 20:35:20.988
805, 1.81207, 0.183077, 71.9622, -0.000976562, 0, -0.000976562, -0.0742188, 0.295898, -9.76172, 1.18.2022 20:35:20.996
806, 1.81207, 0.183077, 71.9622, 0, -0.000976562, 0, -0.00683594, 0.331055, -9.74316, 1.18.2022 20:35:21.004
807, 1.81773, 0.187185, 71.9621, 0, 0, 0, 0.0078125, 0.311523, -9.71289, 1.18.2022 20:35:21.012
808, 1.81773, 0.187185, 71.9621, 0, -0.000976562, 0, -0.0966797, 0.333008, -9.72266, 1.18.2022 20:35:21.020
809, 1.81773, 0.187185, 71.9621, 0, -0.000976562, 0, 0.0166016, 0.298828, -9.77246, 1.18.2022 20:35:21.028
810, 1.81773, 0.187185, 71.9621, 0, 0, 0, -0.0449219, 0.299805, -9.73145, 1.18.2022 20:35:21.036
811, 1.81773, 0.187185, 71.9621, 0, 0, 0, -0.0742188, 0.31543, -9.75684, 1.18.2022 20:35:21.044
812, 1.81773, 0.187185, 71.9621, 0, -0.000976562, 0.000976562, 0.00976562, 0.296875, -9.72754, 1.18.2022 20:35:21.052
813, 1.81773, 0.187185, 71.9621, -0.000976562, -0.000976562, 0.000976562, -0.0634766, 0.329102, -9.73242, 1.18.2022 20:35:21.060
814, 1.81773, 0.187185, 71.9621, -0.000976562, 0, 0, -0.0234375, 0.321289, -9.73828, 1.18.2022 20:35:21.068
815, 1.81773, 0.187185, 71.9621, -0.00195312, 0, 0, -0.0166016, 0.28418, -9.75586, 1.18.2022 20:35:21.076
816, 1.81773, 0.187185, 71.9621, -0.000976562, -0.000976562, 0, -0.0898438, 0.283203, -9.7334, 1.18.2022 20:35:21.084
817, 1.81773, 0.187185, 71.9621, -0.000976562, 0, 0, -0.0205078, 0.306641, -9.70605, 1.18.2022 20:35:21.092
818, 1.81773, 0.187185, 71.9621, -0.000976562, 0, 0, -0.0136719, 0.287109, -9.7041, 1.18.2022 20:35:21.100
819, 1.81773, 0.187185, 71.9621, -0.000976562, -0.000976562, 0, -0.0761719, 0.338867, -9.74219, 1.18.2022 20:35:21.108
820, 1.81773, 0.187185, 71.9621, 0, -0.000976562, 0.000976562, 0.0341797, 0.318359, -9.71094, 1.18.2022 20:35:21.116
821, 1.81773, 0.187185, 71.9621, 0, -0.000976562, 0, -0.0595703, 0.31543, -9.77539, 1.18.2022 20:35:21.124
822, 1.81773, 0.187185, 71.9621, 0, 0, 0, -0.0517578, 0.319336, -9.73535, 1.18.2022 20:35:21.132
823, 1.81773, 0.187185, 71.9621, -0.000976562, -0.000976562, 0.000976562, 0.0263672, 0.288086, -9.75684, 1.18.2022 20:35:21.140
824, 1.81773, 0.187185, 71.9621, -0.000976562, 0, 0, -0.0996094, 0.316406, -9.73047, 1.18.2022 20:35:21.148
825, 1.81773, 0.187185, 71.9621, 0, 0, 0, -0.0380859, 0.298828, -9.77148, 1.18.2022 20:35:21.156
826, 1.81773, 0.187185, 71.9621, 0, -0.000976562, -0.000976562, -0.0253906, 0.321289, -9.72168, 1.18.2022 20:35:21.164
827, 1.81773, 0.187185, 71.9621, 0, -0.000976562, -0.000976562, -0.109375, 0.332031, -9.74902, 1.18.2022 20:35:21.172
828, 1.81773, 0.187185, 71.9621, 0, 0, -0.000976562, 0.0195312, 0.311523, -9.73242, 1.18.2022 20:35:21.180
829, 1.81773, 0.187185, 71.9621, 0, -0.000976562, -0.000976562, -0.03125, 0.3125, -9.74609, 1.18.2022 20:35:21.188
830, 1.81773, 0.187185, 71.9621, -0.000976562, -0.000976562, -0.000976562, -0.0400391, 0.329102, -9.7334, 1.18.2022 20:35:21.196
831, 1.81773, 0.187185, 71.9621, -0.000976562, -0.000976562, -0.000976562, 0.0263672, 0.296875, -9.73047, 1.18.2022 20:35:21.204
832, 1.81773, 0.187185, 71.9621, 0, -0.000976562, -0.000976562, -0.0693359, 0.332031, -9.76074, 1.18.2022 20:35:21.212
833, 1.81773, 0.187185, 71.9621, 0, 0, -0.000976562, -0.0175781, 0.325195, -9.68652, 1.18.2022 20:35:21.220
834, 1.82339, 0.191293, 71.9619, 0, -0.000976562, -0.000976562, -0.00390625, 0.297852, -9.73242, 1.18.2022 20:35:21.228
835, 1.82339, 0.191293, 71.9619, -0.000976562, 0, -0.000976562, -0.0996094, 0.333008, -9.7207, 1.18.2022 20:35:21.236
836, 1.82339, 0.191293, 71.9619, 0, 0, -0.000976562, 0.0205078, 0.320312, -9.69629, 1.18.2022 20:35:21.244
837, 1.82339, 0.191293, 71.9619, -0.000976562, -0.000976562, -0.000976562, -0.0419922, 0.321289, -9.72852, 1.18.2022 20:35:21.252
838, 1.82339, 0.191293, 71.9619, -0.000976562, 0, -0.00195312, -0.0732422, 0.30957, -9.72852, 1.18.2022 20:35:21.260
839, 1.82339, 0.191293, 71.9619, -0.000976562, 0, -0.000976562, 0.03125, 0.286133, -9.74707, 1.18.2022 20:35:21.268
840, 1.82749, 0.185635, 71.9619, 0, 0, -0.000976562, -0.0537109, 0.318359, -9.70996, 1.18.2022 20:35:21.276
841, 1.82749, 0.185635, 71.9619, 0, 0, -0.00195312, -0.03125, 0.317383, -9.74316, 1.18.2022 20:35:21.284
842, 1.82749, 0.185635, 71.9619, -0.000976562, -0.000976562, -0.000976562, -0.0117188, 0.305664, -9.76758, 1.18.2022 20:35:21.292
843, 1.82749, 0.185635, 71.9619, -0.000976562, -0.000976562, -0.000976562, -0.0996094, 0.326172, -9.73242, 1.18.2022 20:35:21.300
844, 1.82749, 0.185635, 71.9619, -0.000976562, -0.000976562, -0.000976562, -0.0166016, 0.324219, -9.74512, 1.18.2022 20:35:21.308
845, 1.82749, 0.185635, 71.9619, 0, 0, -0.00195312, -0.0332031, 0.302734, -9.75977, 1.18.2022 20:35:21.316
846, 1.82749, 0.185635, 71.9619, 0, 0, -0.000976562, -0.0537109, 0.334961, -9.70215, 1.18.2022 20:35:21.324
847, 1.82749, 0.185635, 71.9619, 0, 0, -0.000976562, 0.0205078, 0.334961, -9.79102, 1.18.2022 20:35:21.332
848, 1.83315, 0.189743, 71.9618, 0, 0, -0.000976562, -0.0478516, 0.310547, -9.75977, 1.18.2022 20:35:21.340
849, 1.83315, 0.189743, 71.9618, 0, -0.000976562, -0.00195312, -0.0449219, 0.337891, -9.71191, 1.18.2022 20:35:21.348
850, 1.83315, 0.189743, 71.9618, 0, -0.000976562, -0.000976562, 0.0117188, 0.285156, -9.7373, 1.18.2022 20:35:21.356
851, 1.83315, 0.189743, 71.9618, 0, -0.000976562, -0.000976562, -0.0888672, 0.308594, -9.78516, 1.18.2022 20:35:21.364
852, 1.83315, 0.189743, 71.9618, -0.000976562, -0.000976562, -0.000976562, -0.0498047, 0.333984, -9.75684, 1.18.2022 20:35:21.372
853, 1.83315, 0.189743, 71.9618, 0, -0.000976562, -0.000976562, -0.0117188, 0.301758, -9.72461, 1.18.2022 20:35:21.380
854, 1.83315, 0.189743, 71.9618, 0, -0.000976562, -0.000976562, -0.0830078, 0.323242, -9.71191, 1.18.2022 20:35:21.388
855, 1.83315, 0.189743, 71.9618, -0.000976562, 0, -0.000976562, 0.00292969, 0.276367, -9.74707, 1.18.2022 20:35:21.396
856, 1.83315, 0.189743, 71.9618, -0.000976562, -0.000976562, -0.000976562, -0.0117188, 0.304688, -9.73438, 1.18.2022 20:35:21.404
857, 1.83315, 0.189743, 71.9618, 0, -0.000976562, -0.000976562, -0.0400391, 0.333008, -9.7168, 1.18.2022 20:35:21.412
858, 1.83315, 0.189743, 71.9618, 0, -0.000976562, 0, 0.0175781, 0.287109, -9.7207, 1.18.2022 20:35:21.420
859, 1.83881, 0.193851, 71.9616, -0.000976562, -0.000976562, -0.000976562, -0.0595703, 0.324219, -9.73828, 1.18.2022 20:35:21.426
860, 1.84291, 0.188193, 71.9616, -0.000976562, -0.000976562, 0, -0.0517578, 0.314453, -9.7334, 1.18.2022 20:35:21.434
861, 1.84291, 0.188193, 71.9616, -0.000976562, -0.000976562, 0, 0.00195312, 0.3125, -9.77246, 1.18.2022 20:35:21.442
862, 1.84291, 0.188193, 71.9616, -0.000976562, 0, 0, -0.0927734, 0.324219, -9.74414, 1.18.2022 20:35:21.450
863, 1.84291, 0.188193, 71.9616, -0.000976562, 0, 0, 0.0175781, 0.306641, -9.73242, 1.18.2022 20:35:21.458
864, 1.84291, 0.188193, 71.9616, -0.000976562, -0.000976562, 0, -0.03125, 0.305664, -9.76953, 1.18.2022 20:35:21.466
865, 1.84291, 0.188193, 71.9616, 0, 0, 0, -0.0742188, 0.303711, -9.76855, 1.18.2022 20:35:21.474
866, 1.84291, 0.188193, 71.9616, -0.000976562, 0, -0.000976562, 0.00292969, 0.280273, -9.71191, 1.18.2022 20:35:21.482
867, 1.84291, 0.188193, 71.9616, -0.000976562, 0, 0, -0.0585938, 0.331055, -9.72559, 1.18.2022 20:35:21.490
868, 1.84291, 0.188193, 71.9616, 0, -0.000976562, -0.000976562, -0.0527344, 0.31543, -9.7666, 1.18.2022 20:35:21.498
869, 1.84291, 0.188193, 71.9616, 0, -0.000976562, -0.000976562, -0.0117188, 0.316406, -9.73926, 1.18.2022 20:35:21.506
870, 1.84291, 0.188193, 71.9616, 0, 0, 0, -0.0976562, 0.311523, -9.73242, 1.18.2022 20:35:21.514
871, 1.84291, 0.188193, 71.9616, -0.000976562, 0, 0, -0.0380859, 0.302734, -9.74121, 1.18.2022 20:35:21.522
872, 1.84291, 0.188193, 71.9616, 0, 0, 0, -0.00878906, 0.316406, -9.71289, 1.18.2022 20:35:21.530
873, 1.84291, 0.188193, 71.9616, -0.000976562, -0.000976562, 0.000976562, -0.078125, 0.330078, -9.7041, 1.18.2022 20:35:21.538
874, 1.84291, 0.188193, 71.9616, -0.000976562, 0, 0, 0.0283203, 0.302734, -9.76367, 1.18.2022 20:35:21.546
875, 1.84291, 0.188193, 71.9616, -0.000976562, -0.000976562, 0, -0.0478516, 0.297852, -9.73633, 1.18.2022 20:35:21.554
876, 1.84291, 0.188193, 71.9616, -0.000976562, -0.000976562, -0.000976562, -0.0478516, 0.317383, -9.77148, 1.18.2022 20:35:21.562
877, 1.84291, 0.188193, 71.9616, 0, 0, -0.000976562, 0.0195312, 0.285156, -9.72363, 1.18.2022 20:35:21.570
878, 1.84291, 0.188193, 71.9616, -0.000976562, 0, 0, -0.078125, 0.324219, -9.7373, 1.18.2022 20:35:21.578
879, 1.84291, 0.188193, 71.9616, 0, -0.000976562, 0, -0.0214844, 0.317383, -9.75293, 1.18.2022 20:35:21.586
880, 1.84291, 0.188193, 71.9616, 0, -0.000976562, 0.000976562, -0.00976562, 0.3125, -9.74121, 1.18.2022 20:35:21.594
881, 1.84291, 0.188193, 71.9616, 0, 0, 0, -0.0634766, 0.344727, -9.69727, 1.18.2022 20:35:21.602
882, 1.84291, 0.188193, 71.9616, -0.000976562, 0, 0, 0.0390625, 0.296875, -9.71191, 1.18.2022 20:35:21.610
883, 1.84291, 0.188193, 71.9616, -0.000976562, 0, -0.000976562, -0.0283203, 0.297852, -9.73926, 1.18.2022 20:35:21.618
884, 1.84291, 0.188193, 71.9616, -0.000976562, 0, 0, -0.046875, 0.319336, -9.72656, 1.18.2022 20:35:21.626
885, 1.84291, 0.188193, 71.9616, -0.000976562, 0, 0, 0.0292969, 0.304688, -9.73242, 1.18.2022 20:35:21.634
886, 1.84291, 0.188193, 71.9616, -0.000976562, 0, 0, -0.125977, 0.306641, -9.72559, 1.18.2022 20:35:21.642
887, 1.84291, 0.188193, 71.9616, -0.000976562, 0, 0, -0.0341797, 0.313477, -9.78125, 1.18.2022 20:35:21.650
888, 1.84291, 0.188193, 71.9616, -0.000976562, 0, 0, -0.03125, 0.3125, -9.76953, 1.18.2022 20:35:21.658
889, 1.84291, 0.188193, 71.9616, -0.000976562, -0.000976562, 0, -0.0830078, 0.317383, -9.75391, 1.18.2022 20:35:21.666
890, 1.84291, 0.188193, 71.9616, -0.000976562, -0.000976562, 0, -0.00195312, 0.311523, -9.70801, 1.18.2022 20:35:21.674
891, 1.84291, 0.188193, 71.9616, 0, -0.000976562, 0, -0.0419922, 0.308594, -9.71289, 1.18.2022 20:35:21.682
892, 1.84291, 0.188193, 71.9616, -0.000976562, -0.000976562, -0.000976562, -0.0966797, 0.306641, -9.70215, 1.18.2022 20:35:21.690
893, 1.84291, 0.188193, 71.9616, -0.00195312, -0.000976562, 0, 0.03125, 0.311523, -9.73047, 1.18.2022 20:35:21.698
894, 1.84291, 0.188193, 71.9616, 0, -0.000976562, -0.000976562, -0.0712891, 0.321289, -9.72363, 1.18.2022 20:35:21.706
895, 1.84291, 0.188193, 71.9616, -0.000976562, 0, -0.000976562, -0.0380859, 0.327148, -9.75488, 1.18.2022 20:35:21.714
896, 1.84291, 0.188193, 71.9616, -0.000976562, 0, -0.000976562, -0.0214844, 0.295898, -9.76953, 1.18.2022 20:35:21.722
897, 1.84291, 0.188193, 71.9616, -0.000976562, 0, -0.000976562, -0.0957031, 0.302734, -9.75684, 1.18.2022 20:35:21.730
898, 1.84291, 0.188193, 71.9616, 0, 0, 0, -0.0166016, 0.30957, -9.75293, 1.18.2022 20:35:21.738
899, 1.84291, 0.188193, 71.9616, -0.000976562, 0, 0, -0.03125, 0.297852, -9.74414, 1.18.2022 20:35:21.746
900, 1.84291, 0.188193, 71.9616, -0.00195312, 0, 0, -0.100586, 0.330078, -9.78418, 1.18.2022 20:35:21.754
901, 1.84291, 0.188193, 71.9616, -0.000976562, 0, 0, 0.000976562, 0.291992, -9.71582, 1.18.2022 20:35:21.762
902, 1.84291, 0.188193, 71.9616, -0.00195312, 0, 0, -0.0585938, 0.318359, -9.71191, 1.18.2022 20:35:21.770
903, 1.83881, 0.193851, 71.9616, -0.000976562, 0, 0, -0.0517578, 0.335938, -9.73242, 1.18.2022 20:35:21.778
904, 1.83881, 0.193851, 71.9616, -0.000976562, 0, 0, 0.0175781, 0.296875, -9.7207, 1.18.2022 20:35:21.786
905, 1.83881, 0.193851, 71.9616, 0, 0, 0.000976562, -0.0849609, 0.318359, -9.7207, 1.18.2022 20:35:21.794
906, 1.83881, 0.193851, 71.9616, 0, 0, 0.000976562, -0.0302734, 0.306641, -9.71289, 1.18.2022 20:35:21.802
907, 1.83881, 0.193851, 71.9616, 0, 0, 0, 0.0117188, 0.286133, -9.76172, 1.18.2022 20:35:21.810
908, 1.83881, 0.193851, 71.9616, -0.000976562, -0.000976562, 0, -0.101562, 0.325195, -9.69727, 1.18.2022 20:35:21.818
909, 1.83881, 0.193851, 71.9616, 0, -0.000976562, 0, 0.0146484, 0.306641, -9.71094, 1.18.2022 20:35:21.826
910, 1.83881, 0.193851, 71.9616, -0.000976562, 0, 0, -0.0263672, 0.291016, -9.74121, 1.18.2022 20:35:21.834
911, 1.8347, 0.19951, 71.9616, -0.000976562, -0.000976562, 0, -0.0576172, 0.306641, -9.78516, 1.18.2022 20:35:21.842
912, 1.84036, 0.203619, 71.9614, -0.000976562, -0.000976562, 0.000976562, 0.0175781, 0.328125, -9.72461, 1.18.2022 20:35:21.850
913, 1.84036, 0.203619, 71.9614, -0.000976562, -0.000976562, 0.000976562, -0.0869141, 0.337891, -9.7041, 1.18.2022 20:35:21.858
914, 1.84036, 0.203619, 71.9614, -0.000976562, -0.000976562, 0, -0.0371094, 0.323242, -9.71484, 1.18.2022 20:35:21.866
915, 1.84036, 0.203619, 71.9614, -0.000976562, 0, 0, -0.0234375, 0.285156, -9.7207, 1.18.2022 20:35:21.874
916, 1.84036, 0.203619, 71.9614, 0, 0, 0, -0.0898438, 0.298828, -9.69531, 1.18.2022 20:35:21.882
917, 1.84036, 0.203619, 71.9614, 0, 0, 0, 0.00488281, 0.288086, -9.74902, 1.18.2022 20:35:21.890
918, 1.84036, 0.203619, 71.9614, -0.000976562, 0, 0, -0.0351562, 0.306641, -9.73145, 1.18.2022 20:35:21.898
919, 1.84036, 0.203619, 71.9614, 0, -0.000976562, 0, -0.0449219, 0.304688, -9.72168, 1.18.2022 20:35:21.906
920, 1.84036, 0.203619, 71.9614, 0, -0.000976562, 0.000976562, 0.0332031, 0.31543, -9.7627, 1.18.2022 20:35:21.914
921, 1.83625, 0.209277, 71.9614, 0, -0.000976562, 0.000976562, -0.078125, 0.290039, -9.71973, 1.18.2022 20:35:21.922
922, 1.83625, 0.209277, 71.9614, -0.000976562, -0.000976562, -0.000976562, -0.0302734, 0.335938, -9.74023, 1.18.2022 20:35:21.930
923, 1.83625, 0.209277, 71.9614, -0.000976562, -0.000976562, -0.000976562, 0.00292969, 0.317383, -9.75293, 1.18.2022 20:35:21.938
924, 1.83059, 0.205169, 71.9615, 0, -0.000976562, -0.000976562, -0.0703125, 0.31543, -9.70508, 1.18.2022 20:35:21.946
925, 1.83059, 0.205169, 71.9615, -0.000976562, 0, -0.000976562, -0.0185547, 0.337891, -9.73145, 1.18.2022 20:35:21.954
926, 1.83059, 0.205169, 71.9615, 0, 0, -0.000976562, -0.03125, 0.279297, -9.76562, 1.18.2022 20:35:21.962
927, 1.83059, 0.205169, 71.9615, 0, -0.000976562, -0.000976562, -0.0732422, 0.329102, -9.73047, 1.18.2022 20:35:21.970
928, 1.83059, 0.205169, 71.9615, 0, 0, -0.000976562, 0.0410156, 0.292969, -9.73047, 1.18.2022 20:35:21.978
929, 1.83059, 0.205169, 71.9615, 0, 0, -0.000976562, -0.0117188, 0.333984, -9.75977, 1.18.2022 20:35:21.986
930, 1.83059, 0.205169, 71.9615, 0, 0, -0.000976562, -0.0351562, 0.329102, -9.74707, 1.18.2022 20:35:21.994
931, 1.83059, 0.205169, 71.9615, 0, -0.000976562, -0.00195312, 0.0214844, 0.319336, -9.75586, 1.18.2022 20:35:22.002
932, 1.83059, 0.205169, 71.9615, -0.000976562, -0.000976562, -0.000976562, -0.0839844, 0.325195, -9.79199, 1.18.2022 20:35:22.010
933, 1.83059, 0.205169, 71.9615, -0.000976562, 0, -0.000976562, -0.0214844, 0.319336, -9.7334, 1.18.2022 20:35:22.018
934, 1.83059, 0.205169, 71.9615, -0.000976562, -0.000976562, 0.000976562, -0.0332031, 0.322266, -9.7666, 1.18.2022 20:35:22.026
935, 1.83059, 0.205169, 71.9615, -0.000976562, -0.000976562, -0.000976562, -0.0839844, 0.310547, -9.77832, 1.18.2022 20:35:22.034
936, 1.8347, 0.19951, 71.9616, -0.000976562, -0.000976562, -0.000976562, 0.0263672, 0.283203, -9.75195, 1.18.2022 20:35:22.042
937, 1.8347, 0.19951, 71.9616, 0, -0.000976562, -0.00195312, -0.015625, 0.293945, -9.7041, 1.18.2022 20:35:22.050
938, 1.8347, 0.19951, 71.9616, -0.000976562, -0.000976562, -0.000976562, -0.0380859, 0.307617, -9.74121, 1.18.2022 20:35:22.058
939, 1.8347, 0.19951, 71.9616, -0.000976562, -0.000976562, -0.000976562, 0.000976562, 0.262695, -9.69336, 1.18.2022 20:35:22.066
940, 1.8347, 0.19951, 71.9616, 0, 0, -0.000976562, -0.0683594, 0.304688, -9.7334, 1.18.2022 20:35:22.074
941, 1.8347, 0.19951, 71.9616, 0, -0.000976562, -0.000976562, -0.046875, 0.326172, -9.7334, 1.18.2022 20:35:22.082
942, 1.82904, 0.195402, 71.9617, 0, -0.000976562, -0.000976562, -0.00683594, 0.302734, -9.7373, 1.18.2022 20:35:22.090
943, 1.82904, 0.195402, 71.9617, -0.000976562, -0.000976562, -0.000976562, -0.0527344, 0.3125, -9.74512, 1.18.2022 20:35:22.098
944, 1.82904, 0.195402, 71.9617, 0, 0, -0.000976562, -0.0136719, 0.285156, -9.71582, 1.18.2022 20:35:22.106
945, 1.82904, 0.195402, 71.9617, 0, 0, -0.000976562, -0.0371094, 0.296875, -9.71484, 1.18.2022 20:35:22.114
946, 1.82904, 0.195402, 71.9617, 0, 0, -0.000976562, -0.0898438, 0.330078, -9.71094, 1.18.2022 20:35:22.122
947, 1.82904, 0.195402, 71.9617, 0, 0, -0.000976562, 0.00488281, 0.285156, -9.73047, 1.18.2022 20:35:22.130
948, 1.82904, 0.195402, 71.9617, 0, 0, -0.000976562, -0.0429688, 0.342773, -9.74023, 1.18.2022 20:35:22.138
949, 1.82339, 0.191293, 71.9619, 0, -0.00195312, 0, -0.0263672, 0.321289, -9.73828, 1.18.2022 20:35:22.146
950, 1.82339, 0.191293, 71.9619, -0.000976562, -0.000976562, -0.000976562, 0, 0.304688, -9.7373, 1.18.2022 20:35:22.154
951, 1.82339, 0.191293, 71.9619, 0, -0.000976562, -0.000976562, -0.0908203, 0.307617, -9.75, 1.18.2022 20:35:22.162
952, 1.82339, 0.191293, 71.9619, 0, -0.000976562, -0.000976562, -0.00878906, 0.288086, -9.72266, 1.18.2022 20:35:22.170
953, 1.82339, 0.191293, 71.9619, -0.000976562, 0, -0.000976562, -0.00585938, 0.277344, -9.69531, 1.18.2022 20:35:22.178
954, 1.82339, 0.191293, 71.9619, -0.000976562, -0.000976562, -0.000976562, -0.0566406, 0.322266, -9.74707, 1.18.2022 20:35:22.186
955, 1.82339, 0.191293, 71.9619, 0, -0.000976562, -0.000976562, 0.0322266, 0.322266, -9.67773, 1.18.2022 20:35:22.194
956, 1.82339, 0.191293, 71.9619, 0, 0, 0, -0.0302734, 0.287109, -9.69434, 1.18.2022 20:35:22.202
957, 1.82339, 0.191293, 71.9619, -0.00195312, 0, 0, -0.0517578, 0.316406, -9.73145, 1.18.2022 20:35:22.210
958, 1.82339, 0.191293, 71.9619, -0.000976562, -0.000976562, -0.000976562, 0.0205078, 0.303711, -9.69727, 1.18.2022 20:35:22.218
959, 1.82339, 0.191293, 71.9619, -0.000976562, -0.000976562, -0.000976562, -0.0585938, 0.311523, -9.70703, 1.18.2022 20:35:22.226
960, 1.82749, 0.185635, 71.9619, -0.000976562, -0.000976562, -0.000976562, -0.0449219, 0.326172, -9.73828, 1.18.2022 20:35:22.234
961, 1.82184, 0.181526, 71.9621, -0.000976562, 0, 0, -0.0214844, 0.300781, -9.7627, 1.18.2022 20:35:22.242
962, 1.82184, 0.181526, 71.9621, -0.000976562, -0.000976562, -0.000976562, -0.0791016, 0.307617, -9.76367, 1.18.2022 20:35:22.250
963, 1.82184, 0.181526, 71.9621, 0, -0.000976562, 0.000976562, 0.0195312, 0.306641, -9.72266, 1.18.2022 20:35:22.258
964, 1.82184, 0.181526, 71.9621, -0.000976562, -0.000976562, 0.000976562, -0.0634766, 0.321289, -9.70996, 1.18.2022 20:35:22.266
965, 1.82184, 0.181526, 71.9621, -0.000976562, -0.000976562, -0.000976562, -0.0634766, 0.334961, -9.7041, 1.18.2022 20:35:22.274
966, 1.82184, 0.181526, 71.9621, 0, 0, 0, 0.0078125, 0.299805, -9.72754, 1.18.2022 20:35:22.282
967, 1.82184, 0.181526, 71.9621, -0.000976562, 0, 0, -0.0566406, 0.3125, -9.73828, 1.18.2022 20:35:22.290
968, 1.82184, 0.181526, 71.9621, -0.000976562, 0, 0, -0.0517578, 0.331055, -9.74023, 1.18.2022 20:35:22.298
969, 1.82184, 0.181526, 71.9621, -0.000976562, -0.000976562, -0.000976562, -0.0136719, 0.314453, -9.73438, 1.18.2022 20:35:22.306
970, 1.82184, 0.181526, 71.9621, 0, -0.000976562, -0.000976562, -0.102539, 0.305664, -9.75391, 1.18.2022 20:35:22.314
971, 1.82184, 0.181526, 71.9621, -0.000976562, -0.000976562, -0.000976562, -0.00195312, 0.286133, -9.75586, 1.18.2022 20:35:22.322
972, 1.82184, 0.181526, 71.9621, 0, -0.000976562, -0.000976562, 0.00976562, 0.321289, -9.72461, 1.18.2022 20:35:22.330
973, 1.82184, 0.181526, 71.9621, 0, -0.000976562, -0.000976562, -0.0605469, 0.336914, -9.6875, 1.18.2022 20:35:22.338
974, 1.82184, 0.181526, 71.9621, 0, -0.000976562, -0.000976562, 0.0195312, 0.299805, -9.7373, 1.18.2022 20:35:22.346
975, 1.82184, 0.181526, 71.9621, -0.000976562, -0.000976562, -0.000976562, -0.0332031, 0.337891, -9.72852, 1.18.2022 20:35:22.354
976, 1.82184, 0.181526, 71.9621, -0.000976562, -0.000976562, -0.000976562, -0.0400391, 0.313477, -9.70996, 1.18.2022 20:35:22.362
977, 1.82184, 0.181526, 71.9621, -0.000976562, 0, 0, 0.00195312, 0.302734, -9.75391, 1.18.2022 20:35:22.370
978, 1.82184, 0.181526, 71.9621, -0.000976562, -0.000976562, -0.000976562, -0.0947266, 0.3125, -9.74512, 1.18.2022 20:35:22.378
979, 1.82749, 0.185635, 71.9619, -0.000976562, -0.000976562, -0.000976562, -0.0136719, 0.319336, -9.73633, 1.18.2022 20:35:22.386
980, 1.82749, 0.185635, 71.9619, -0.000976562, 0, -0.00195312, -0.0126953, 0.323242, -9.7998, 1.18.2022 20:35:22.394
981, 1.82749, 0.185635, 71.9619, 0, -0.000976562, -0.000976562, -0.0595703, 0.291016, -9.74316, 1.18.2022 20:35:22.402
982, 1.82749, 0.185635, 71.9619, -0.000976562, -0.000976562, -0.000976562, 0.0292969, 0.290039, -9.73047, 1.18.2022 20:35:22.408
983, 1.82749, 0.185635, 71.9619, 0, -0.00195312, -0.000976562, -0.0410156, 0.310547, -9.76465, 1.18.2022 20:35:22.416
984, 1.82749, 0.185635, 71.9619, -0.000976562, -0.000976562, -0.000976562, -0.046875, 0.337891, -9.73535, 1.18.2022 20:35:22.424
985, 1.8316, 0.179976, 71.962, -0.000976562, -0.000976562, 0.000976562, 0.0361328, 0.261719, -9.75293, 1.18.2022 20:35:22.432
986, 1.8316, 0.179976, 71.962, -0.000976562, -0.000976562, -0.000976562, -0.0664062, 0.299805, -9.71484, 1.18.2022 20:35:22.442
987, 1.8316, 0.179976, 71.962, -0.000976562, -0.000976562, -0.000976562, -0.0214844, 0.335938, -9.73828, 1.18.2022 20:35:22.448
988, 1.8316, 0.179976, 71.962, 0, 0, -0.000976562, -0.00488281, 0.285156, -9.7373, 1.18.2022 20:35:22.456
989, 1.8316, 0.179976, 71.962, 0, -0.000976562, -0.000976562, -0.0761719, 0.324219, -9.74023, 1.18.2022 20:35:22.464
990, 1.8316, 0.179976, 71.962, -0.000976562, 0, -0.000976562, 0.0429688, 0.274414, -9.76465, 1.18.2022 20:35:22.472
991, 1.8316, 0.179976, 71.962, 0, -0.000976562, -0.000976562, -0.0302734, 0.283203, -9.73438, 1.18.2022 20:35:22.480
992, 1.8316, 0.179976, 71.962, -0.000976562, 0, -0.000976562, -0.0449219, 0.333984, -9.76172, 1.18.2022 20:35:22.488
993, 1.82594, 0.175867, 71.9621, 0, 0, -0.000976562, 0.0136719, 0.264648, -9.77344, 1.18.2022 20:35:22.496
994, 1.82594, 0.175867, 71.9621, 0, -0.000976562, 0.000976562, -0.0830078, 0.310547, -9.75195, 1.18.2022 20:35:22.504
995, 1.82594, 0.175867, 71.9621, 0, -0.000976562, -0.000976562, -0.0351562, 0.3125, -9.74316, 1.18.2022 20:35:22.512
996, 1.82594, 0.175867, 71.9621, -0.000976562, -0.000976562, -0.000976562, -0.0273438, 0.287109, -9.7959, 1.18.2022 20:35:22.520
997, 1.82594, 0.175867, 71.9621, 0, -0.000976562, 0.000976562, -0.0761719, 0.331055, -9.74219, 1.18.2022 20:35:22.528
998, 1.82615, 0.175771, 71.9604, 0, -0.000976562, 0.000976562, 0.00585938, 0.287109, -9.71387, 1.18.2022 20:35:22.536
999, 1.82049, 0.171663, 71.9605, -0.000976562, -0.000976562, -0.000976562, -0.0302734, 0.306641, -9.73145, 1.18.2022 20:35:22.544
1000, 1.82049, 0.171663, 71.9605, -0.000976562, 0, -0.000976562, -0.0732422, 0.313477, -9.71191, 1.18.2022 20:35:22.552
1001, 1.82049, 0.171663, 71.9605, -0.000976562, 0, -0.000976562, 0.0244141, 0.304688, -9.73047, 1.18.2022 20:35:22.560
1002, 1.82049, 0.171663, 71.9605, -0.000976562, -0.000976562, -0.000976562, -0.0351562, 0.3125, -9.74121, 1.18.2022 20:35:22.568
1003, 1.82049, 0.171663, 71.9605, -0.00195312, -0.000976562, -0.000976562, -0.0429688, 0.311523, -9.73633, 1.18.2022 20:35:22.576
1004, 1.82049, 0.171663, 71.9605, -0.000976562, -0.000976562, -0.000976562, 0.00585938, 0.280273, -9.71191, 1.18.2022 20:35:22.584
1005, 1.82049, 0.171663, 71.9605, -0.000976562, -0.000976562, -0.00195312, -0.0927734, 0.297852, -9.74316, 1.18.2022 20:35:22.592
1006, 1.82029, 0.171759, 71.9623, 0, -0.000976562, -0.00195312, -0.0185547, 0.304688, -9.71777, 1.18.2022 20:35:22.600
1007, 1.82029, 0.171759, 71.9623, 0, 0, -0.00195312, -0.0234375, 0.291016, -9.74121, 1.18.2022 20:35:22.608
1008, 1.81463, 0.167651, 71.9625, 0, 0, -0.000976562, -0.0498047, 0.314453, -9.75, 1.18.2022 20:35:22.616
1009, 1.81463, 0.167651, 71.9625, 0, 0, -0.000976562, 0.0263672, 0.276367, -9.74805, 1.18.2022 20:35:22.624
1010, 1.81463, 0.167651, 71.9625, 0, -0.000976562, -0.000976562, -0.0380859, 0.30957, -9.74609, 1.18.2022 20:35:22.632
1011, 1.81463, 0.167651, 71.9625, 0, 0, -0.000976562, -0.0517578, 0.328125, -9.71387, 1.18.2022 20:35:22.640
1012, 1.81463, 0.167651, 71.9625, 0, 0, -0.00195312, -0.0117188, 0.290039, -9.72754, 1.18.2022 20:35:22.648
1013, 1.81463, 0.167651, 71.9625, 0, -0.000976562, -0.000976562, -0.0849609, 0.299805, -9.73145, 1.18.2022 20:35:22.656
1014, 1.80897, 0.163542, 71.9626, -0.000976562, -0.00195312, -0.000976562, -0.0449219, 0.321289, -9.73145, 1.18.2022 20:35:22.664
1015, 1.80897, 0.163542, 71.9626, -0.000976562, -0.000976562, -0.000976562, -0.0390625, 0.306641, -9.79785, 1.18.2022 20:35:22.672
1016, 1.80487, 0.169201, 71.9626, -0.000976562, -0.000976562, -0.000976562, -0.0869141, 0.325195, -9.7041, 1.18.2022 20:35:22.680
1017, 1.80487, 0.169201, 71.9626, -0.000976562, 0, -0.000976562, 0.0263672, 0.294922, -9.72559, 1.18.2022 20:35:22.688
1018, 1.80487, 0.169201, 71.9626, -0.000976562, 0, 0.000976562, -0.0322266, 0.316406, -9.70996, 1.18.2022 20:35:22.696
1019, 1.80487, 0.169201, 71.9626, 0, 0.000976562, 0, -0.0400391, 0.316406, -9.73828, 1.18.2022 20:35:22.704
1020, 1.80487, 0.169201, 71.9626, 0, 0, 0, 0.0146484, 0.288086, -9.74512, 1.18.2022 20:35:22.712
1021, 1.80487, 0.169201, 71.9626, 0, 0, 0, -0.0546875, 0.320312, -9.76172, 1.18.2022 20:35:22.720
1022, 1.80487, 0.169201, 71.9626, 0, -0.000976562, -0.000976562, -0.0400391, 0.28125, -9.73926, 1.18.2022 20:35:22.728
1023, 1.80487, 0.169201, 71.9626, 0.000976562, -0.000976562, -0.00195312, 0.0195312, 0.294922, -9.73047, 1.18.2022 20:35:22.736
1024, 1.80487, 0.169201, 71.9626, 0, 0, 0, -0.0859375, 0.317383, -9.74707, 1.18.2022 20:35:22.744
1025, 1.80487, 0.169201, 71.9626, -0.000976562, -0.000976562, -0.000976562, -0.0166016, 0.301758, -9.72266, 1.18.2022 20:35:22.752
1026, 1.80487, 0.169201, 71.9626, 0, -0.000976562, -0.000976562, -0.0371094, 0.308594, -9.70996, 1.18.2022 20:35:22.760
1027, 1.80076, 0.17486, 71.9626, 0.000976562, -0.000976562, 0.000976562, -0.0712891, 0.319336, -9.75195, 1.18.2022 20:35:22.768
1028, 1.80076, 0.17486, 71.9626, 0, -0.000976562, 0.000976562, 0.0146484, 0.291016, -9.75195, 1.18.2022 20:35:22.776
1029, 1.80076, 0.17486, 71.9626, 0, -0.000976562, -0.000976562, -0.0458984, 0.327148, -9.77148, 1.18.2022 20:35:22.784
1030, 1.80076, 0.17486, 71.9626, 0, 0, 0, -0.0449219, 0.3125, -9.75, 1.18.2022 20:35:22.792
1031, 1.80076, 0.17486, 71.9626, -0.000976562, -0.000976562, -0.000976562, -0.0166016, 0.285156, -9.73047, 1.18.2022 20:35:22.800
1032, 1.80076, 0.17486, 71.9626, -0.000976562, -0.000976562, -0.000976562, -0.0683594, 0.314453, -9.72852, 1.18.2022 20:35:22.808
1033, 1.80076, 0.17486, 71.9626, -0.000976562, -0.00195312, -0.000976562, -0.00390625, 0.330078, -9.71973, 1.18.2022 20:35:22.816
