Seq, Rot x, Rot y, Rot z, Vel x, Vel y, Vel z, Acc x, Acc y, Acc z, Time(m.d.y h:m:s.ms)
0, 1.77804, 0.343409, 81.1434, -0.000976562, -0.000976562, 0, -0.0263672, 0.288086, -9.75098, 1.18.2022 19:19:15.414
1, 1.77804, 0.343409, 81.1434, -0.000976562, -0.000976562, 0, -0.140625, 0.28418, -9.75684, 1.18.2022 19:19:15.420
2, 1.77804, 0.343409, 81.1434, 0, -0.000976562, 0, -0.0546875, 0.276367, -9.73926, 1.18.2022 19:19:15.428
3, 1.77804, 0.343409, 81.1434, -0.00195312, 0, 0, -0.0498047, 0.27832, -9.73438, 1.18.2022 19:19:15.436
4, 1.77804, 0.343409, 81.1434, -0.000976562, 0, 0, -0.0878906, 0.316406, -9.73535, 1.18.2022 19:19:15.444
5, 1.77804, 0.343409, 81.1434, -0.00195312, 0, 0, -0.0234375, 0.299805, -9.74414, 1.18.2022 19:19:15.452
6, 1.77804, 0.343409, 81.1434, -0.000976562, -0.000976562, -0.000976562, -0.0810547, 0.324219, -9.73242, 1.18.2022 19:19:15.460
7, 1.77804, 0.343409, 81.1434, 0, 0, 0, -0.0732422, 0.334961, -9.70898, 1.18.2022 19:19:15.468
8, 1.77781, 0.343355, 81.1336, -0.000976562, -0.000976562, 0.000976562, -0.00390625, 0.285156, -9.72559, 1.18.2022 19:19:15.476
9, 1.77781, 0.343355, 81.1336, -0.000976562, -0.000976562, 0, -0.102539, 0.299805, -9.73828, 1.18.2022 19:19:15.484
10, 1.77781, 0.343355, 81.1336, 0, 0, -0.000976562, -0.0429688, 0.268555, -9.73926, 1.18.2022 19:19:15.492
11, 1.77781, 0.343355, 81.1336, -0.000976562, 0, 0, -0.0214844, 0.288086, -9.73438, 1.18.2022 19:19:15.500
12, 1.77804, 0.343259, 81.1328, -0.000976562, 0, 0, -0.104492, 0.319336, -9.74707, 1.18.2022 19:19:15.508
13, 1.77804, 0.343259, 81.1328, 0, 0, 0, -0.0214844, 0.290039, -9.72949, 1.18.2022 19:19:15.516
14, 1.77804, 0.343259, 81.1328, -0.000976562, 0, -0.000976562, -0.0800781, 0.301758, -9.71191, 1.18.2022 19:19:15.524
15, 1.77804, 0.343259, 81.1328, -0.000976562, -0.000976562, 0, -0.0732422, 0.311523, -9.71191, 1.18.2022 19:19:15.532
16, 1.77804, 0.343259, 81.1328, -0.000976562, -0.000976562, 0, 0, 0.305664, -9.76758, 1.18.2022 19:19:15.540
17, 1.77804, 0.343259, 81.1328, -0.000976562, -0.000976562, 0, -0.0976562, 0.314453, -9.7373, 1.18.2022 19:19:15.548
18, 1.77804, 0.343259, 81.1328, -0.000976562, 0, 0, -0.0380859, 0.311523, -9.72461, 1.18.2022 19:19:15.556
19, 1.77804, 0.343259, 81.1328, -0.000976562, -0.000976562, 0, -0.0371094, 0.282227, -9.71094, 1.18.2022 19:19:15.564
20, 1.77804, 0.343259, 81.1328, -0.000976562, -0.000976562, 0, -0.116211, 0.329102, -9.72949, 1.18.2022 19:19:15.572
21, 1.77804, 0.343259, 81.1328, -0.00195312, -0.000976562, 0, -0.0185547, 0.306641, -9.71777, 1.18.2022 19:19:15.580
22, 1.77804, 0.343259, 81.1328, 0, -0.000976562, 0, -0.0263672, 0.308594, -9.77148, 1.18.2022 19:19:15.588
23, 1.77804, 0.343259, 81.1328, -0.000976562, -0.000976562, 0, -0.0683594, 0.30957, -9.7168, 1.18.2022 19:19:15.596
24, 1.77804, 0.343259, 81.1328, 0, 0, 0, -0.0146484, 0.291016, -9.74609, 1.18.2022 19:19:15.604
25, 1.77804, 0.343259, 81.1328, -0.000976562, 0, 0, -0.078125, 0.294922, -9.73145, 1.18.2022 19:19:15.612
26, 1.77804, 0.343259, 81.1328, -0.000976562, -0.000976562, 0.000976562, -0.0429688, 0.313477, -9.78516, 1.18.2022 19:19:15.620
27, 1.77804, 0.343259, 81.1328, 0, 0, 0, -0.0205078, 0.318359, -9.71973, 1.18.2022 19:19:15.628
28, 1.77804, 0.343259, 81.1328, -0.000976562, -0.000976562, -0.00195312, -0.116211, 0.314453, -9.72266, 1.18.2022 19:19:15.636
29, 1.77804, 0.343259, 81.1328, -0.000976562, -0.000976562, -0.00195312, -0.00976562, 0.322266, -9.7627, 1.18.2022 19:19:15.644
30, 1.77804, 0.343259, 81.1328, -0.000976562, 0, 0, -0.0498047, 0.304688, -9.72949, 1.18.2022 19:19:15.652
31, 1.77804, 0.343259, 81.1328, 0, 0, 0, -0.0957031, 0.308594, -9.76855, 1.18.2022 19:19:15.660
32, 1.77273, 0.338711, 81.133, -0.00195312, 0, 0, -0.00488281, 0.295898, -9.75879, 1.18.2022 19:19:15.668
33, 1.77273, 0.338711, 81.133, -0.000976562, 0, 0, -0.09375, 0.270508, -9.77637, 1.18.2022 19:19:15.676
34, 1.77273, 0.338711, 81.133, 0, 0.000976562, 0, -0.0517578, 0.279297, -9.69629, 1.18.2022 19:19:15.684
35, 1.77273, 0.338711, 81.133, 0, 0, -0.000976562, -0.0351562, 0.27832, -9.73242, 1.18.2022 19:19:15.692
36, 1.77273, 0.338711, 81.133, -0.000976562, 0, 0, -0.133789, 0.297852, -9.74219, 1.18.2022 19:19:15.700
37, 1.77273, 0.338711, 81.133, -0.000976562, 0, 0.000976562, -0.0615234, 0.285156, -9.71777, 1.18.2022 19:19:15.708
38, 1.77273, 0.338711, 81.133, -0.000976562, 0, 0, -0.0380859, 0.280273, -9.72559, 1.18.2022 19:19:15.716
39, 1.77273, 0.338711, 81.133, 0, -0.000976562, 0, -0.0947266, 0.30957, -9.71875, 1.18.2022 19:19:15.724
40, 1.77273, 0.338711, 81.133, 0, -0.000976562, -0.00195312, -0.0136719, 0.28125, -9.73535, 1.18.2022 19:19:15.732
41, 1.77273, 0.338711, 81.133, 0, 0, 0, -0.0566406, 0.251953, -9.7207, 1.18.2022 19:19:15.740
42, 1.77273, 0.338711, 81.133, 0, -0.000976562, 0, -0.0595703, 0.3125, -9.76855, 1.18.2022 19:19:15.748
43, 1.77273, 0.338711, 81.133, -0.000976562, -0.000976562, 0, -0.0166016, 0.274414, -9.75684, 1.18.2022 19:19:15.756
44, 1.77273, 0.338711, 81.133, -0.000976562, -0.000976562, 0, -0.116211, 0.297852, -9.74023, 1.18.2022 19:19:15.764
45, 1.77273, 0.338711, 81.133, -0.000976562, 0, 0, -0.0449219, 0.294922, -9.73145, 1.18.2022 19:19:15.772
46, 1.77273, 0.338711, 81.133, 0, 0, -0.000976562, -0.0185547, 0.279297, -9.69727, 1.18.2022 19:19:15.780
47, 1.77273, 0.338711, 81.133, -0.000976562, -0.000976562, 0, -0.0986328, 0.317383, -9.68262, 1.18.2022 19:19:15.788
48, 1.77273, 0.338711, 81.133, -0.00195312, 0, 0, -0.00683594, 0.313477, -9.72266, 1.18.2022 19:19:15.796
49, 1.77273, 0.338711, 81.133, 0, -0.000976562, 0, -0.0371094, 0.296875, -9.72266, 1.18.2022 19:19:15.804
50, 1.77273, 0.338711, 81.133, 0, -0.000976562, -0.00195312, -0.0712891, 0.333008, -9.7207, 1.18.2022 19:19:15.812
51, 1.77273, 0.338711, 81.133, -0.000976562, 0, 0, -0.0234375, 0.3125, -9.74121, 1.18.2022 19:19:15.820
52, 1.77249, 0.338656, 81.1232, -0.000976562, -0.000976562, 0.000976562, -0.128906, 0.319336, -9.74414, 1.18.2022 19:19:15.828
53, 1.77249, 0.338656, 81.1232, 0, -0.000976562, -0.00195312, -0.0625, 0.298828, -9.77344, 1.18.2022 19:19:15.836
54, 1.77249, 0.338656, 81.1232, -0.000976562, -0.000976562, -0.00195312, -0.0498047, 0.279297, -9.75293, 1.18.2022 19:19:15.844
55, 1.77249, 0.338656, 81.1232, -0.000976562, -0.000976562, -0.00195312, -0.114258, 0.323242, -9.7207, 1.18.2022 19:19:15.852
56, 1.77249, 0.338656, 81.1232, -0.000976562, -0.000976562, -0.00195312, -0.00878906, 0.287109, -9.71387, 1.18.2022 19:19:15.860
57, 1.77249, 0.338656, 81.1232, -0.00195312, 0, 0, -0.0517578, 0.288086, -9.73145, 1.18.2022 19:19:15.868
58, 1.77249, 0.338656, 81.1232, -0.000976562, 0, 0, -0.0732422, 0.314453, -9.74023, 1.18.2022 19:19:15.876
59, 1.77249, 0.338656, 81.1232, -0.000976562, 0, 0, -0.0166016, 0.266602, -9.75684, 1.18.2022 19:19:15.884
60, 1.77249, 0.338656, 81.1232, 0, -0.000976562, 0, -0.0615234, 0.290039, -9.73633, 1.18.2022 19:19:15.892
61, 1.77249, 0.338656, 81.1232, 0, 0, -0.000976562, -0.0664062, 0.311523, -9.71484, 1.18.2022 19:19:15.900
62, 1.77249, 0.338656, 81.1232, -0.000976562, 0, -0.000976562, -0.0449219, 0.31543, -9.76172, 1.18.2022 19:19:15.908
63, 1.77273, 0.338711, 81.133, -0.00195312, 0.000976562, 0, -0.119141, 0.319336, -9.72559, 1.18.2022 19:19:15.916
64, 1.77273, 0.338711, 81.133, -0.000976562, 0, 0, -0.0283203, 0.298828, -9.76465, 1.18.2022 19:19:15.924
65, 1.77273, 0.338711, 81.133, -0.000976562, -0.000976562, 0, -0.0595703, 0.319336, -9.75684, 1.18.2022 19:19:15.932
66, 1.77273, 0.338711, 81.133, -0.000976562, 0, 0, -0.0957031, 0.31543, -9.75391, 1.18.2022 19:19:15.940
67, 1.77273, 0.338711, 81.133, 0, 0, -0.000976562, -0.0136719, 0.298828, -9.71289, 1.18.2022 19:19:15.948
68, 1.77273, 0.338711, 81.133, -0.000976562, -0.000976562, 0, -0.0996094, 0.319336, -9.73242, 1.18.2022 19:19:15.956
69, 1.77273, 0.338711, 81.133, -0.00195312, 0, 0, -0.0810547, 0.322266, -9.75195, 1.18.2022 19:19:15.964
70, 1.77273, 0.338711, 81.133, -0.000976562, 0, 0, -0.0351562, 0.301758, -9.72461, 1.18.2022 19:19:15.972
71, 1.77273, 0.338711, 81.133, -0.000976562, 0, 0, -0.0996094, 0.316406, -9.70898, 1.18.2022 19:19:15.980
72, 1.7725, 0.338807, 81.1338, 0, 0, 0, -0.0351562, 0.294922, -9.73926, 1.18.2022 19:19:15.988
73, 1.7725, 0.338807, 81.1338, -0.000976562, 0, 0, -0.03125, 0.279297, -9.76758, 1.18.2022 19:19:15.996
74, 1.7725, 0.338807, 81.1338, -0.000976562, -0.000976562, 0, -0.0712891, 0.288086, -9.74805, 1.18.2022 19:19:16.004
75, 1.77273, 0.338861, 81.1436, -0.000976562, 0, 0, -0.00683594, 0.302734, -9.76074, 1.18.2022 19:19:16.012
76, 1.77273, 0.338861, 81.1436, -0.00195312, -0.000976562, 0, -0.0927734, 0.28125, -9.73828, 1.18.2022 19:19:16.020
77, 1.77273, 0.338861, 81.1436, -0.000976562, 0, 0.000976562, -0.0664062, 0.290039, -9.72461, 1.18.2022 19:19:16.028
78, 1.77273, 0.338861, 81.1436, -0.000976562, -0.000976562, 0.000976562, -0.0117188, 0.25, -9.74512, 1.18.2022 19:19:16.036
79, 1.77273, 0.338861, 81.1436, -0.000976562, -0.000976562, 0, -0.0957031, 0.303711, -9.79004, 1.18.2022 19:19:16.044
80, 1.77273, 0.338861, 81.1436, -0.000976562, 0, 0, -0.0449219, 0.316406, -9.72852, 1.18.2022 19:19:16.052
81, 1.77273, 0.338861, 81.1436, -0.000976562, 0, 0, -0.0214844, 0.276367, -9.75391, 1.18.2022 19:19:16.060
82, 1.77273, 0.338861, 81.1436, -0.000976562, 0, 0, -0.107422, 0.334961, -9.76465, 1.18.2022 19:19:16.068
83, 1.77273, 0.338861, 81.1436, -0.000976562, 0, 0, -0.0283203, 0.303711, -9.71289, 1.18.2022 19:19:16.076
84, 1.77273, 0.338861, 81.1436, -0.000976562, 0, 0, -0.0625, 0.288086, -9.66992, 1.18.2022 19:19:16.084
85, 1.77251, 0.338957, 81.1444, -0.000976562, -0.000976562, -0.000976562, -0.0683594, 0.334961, -9.7041, 1.18.2022 19:19:16.092
86, 1.77251, 0.338957, 81.1444, -0.000976562, -0.000976562, 0, -0.0078125, 0.269531, -9.7666, 1.18.2022 19:19:16.100
87, 1.77251, 0.338957, 81.1444, -0.000976562, 0, -0.000976562, -0.0732422, 0.30957, -9.73535, 1.18.2022 19:19:16.108
88, 1.77251, 0.338957, 81.1444, -0.000976562, 0, -0.000976562, -0.0380859, 0.307617, -9.75488, 1.18.2022 19:19:16.116
89, 1.77705, 0.333645, 81.1444, -0.000976562, 0, -0.000976562, -0.0507812, 0.289062, -9.77637, 1.18.2022 19:19:16.124
90, 1.77705, 0.333645, 81.1444, -0.000976562, 0, 0, -0.155273, 0.3125, -9.75586, 1.18.2022 19:19:16.132
91, 1.77705, 0.333645, 81.1444, 0.000976562, 0, 0, -0.0214844, 0.276367, -9.74023, 1.18.2022 19:19:16.140
92, 1.77705, 0.333645, 81.1444, -0.000976562, 0, -0.000976562, -0.0498047, 0.30957, -9.72461, 1.18.2022 19:19:16.148
93, 1.77729, 0.3337, 81.1542, -0.000976562, -0.000976562, -0.000976562, -0.0859375, 0.302734, -9.74023, 1.18.2022 19:19:16.156
94, 1.77729, 0.3337, 81.1542, -0.000976562, 0, -0.000976562, 0.000976562, 0.293945, -9.70215, 1.18.2022 19:19:16.164
95, 1.77729, 0.3337, 81.1542, -0.00195312, -0.000976562, 0, -0.112305, 0.31543, -9.76758, 1.18.2022 19:19:16.172
96, 1.77729, 0.3337, 81.1542, -0.00195312, -0.000976562, -0.000976562, -0.0634766, 0.308594, -9.70996, 1.18.2022 19:19:16.180
97, 1.77729, 0.3337, 81.1542, -0.00195312, -0.000976562, 0, -0.0361328, 0.272461, -9.78711, 1.18.2022 19:19:16.188
98, 1.77729, 0.3337, 81.1542, -0.000976562, 0, 0, -0.101562, 0.320312, -9.70215, 1.18.2022 19:19:16.196
99, 1.77729, 0.3337, 81.1542, -0.000976562, -0.000976562, 0, -0.046875, 0.326172, -9.71484, 1.18.2022 19:19:16.204
100, 1.77729, 0.3337, 81.1542, -0.000976562, -0.000976562, 0, -0.0498047, 0.306641, -9.73145, 1.18.2022 19:19:16.212
101, 1.77729, 0.3337, 81.1542, -0.000976562, 0, 0.000976562, -0.0761719, 0.311523, -9.72168, 1.18.2022 19:19:16.220
102, 1.77729, 0.3337, 81.1542, -0.000976562, -0.000976562, 0, -0.0195312, 0.259766, -9.75488, 1.18.2022 19:19:16.228
103, 1.77729, 0.3337, 81.1542, -0.000976562, -0.000976562, 0, -0.0849609, 0.30957, -9.72168, 1.18.2022 19:19:16.236
104, 1.77274, 0.339012, 81.1542, 0, -0.000976562, -0.000976562, -0.0615234, 0.311523, -9.72363, 1.18.2022 19:19:16.244
105, 1.77274, 0.339012, 81.1542, -0.000976562, -0.000976562, 0, 0, 0.259766, -9.73828, 1.18.2022 19:19:16.252
106, 1.77251, 0.338957, 81.1444, -0.000976562, -0.000976562, 0, -0.121094, 0.333984, -9.73926, 1.18.2022 19:19:16.258
107, 1.77251, 0.338957, 81.1444, -0.000976562, -0.000976562, 0, -0.0576172, 0.295898, -9.76953, 1.18.2022 19:19:16.268
108, 1.77251, 0.338957, 81.1444, -0.000976562, 0, 0, -0.0253906, 0.273438, -9.71875, 1.18.2022 19:19:16.274
109, 1.77251, 0.338957, 81.1444, -0.00195312, 0, 0, -0.112305, 0.3125, -9.75586, 1.18.2022 19:19:16.282
110, 1.77251, 0.338957, 81.1444, -0.000976562, -0.000976562, 0, -0.0166016, 0.285156, -9.7207, 1.18.2022 19:19:16.290
111, 1.77251, 0.338957, 81.1444, 0, -0.000976562, -0.000976562, -0.0664062, 0.302734, -9.7334, 1.18.2022 19:19:16.298
112, 1.77251, 0.338957, 81.1444, 0, -0.000976562, -0.000976562, -0.0751953, 0.323242, -9.70898, 1.18.2022 19:19:16.306
113, 1.77251, 0.338957, 81.1444, 0, -0.000976562, 0, -0.0234375, 0.302734, -9.73633, 1.18.2022 19:19:16.314
114, 1.77251, 0.338957, 81.1444, 0.000976562, 0, 0, -0.124023, 0.307617, -9.73926, 1.18.2022 19:19:16.322
115, 1.77251, 0.338957, 81.1444, 0, -0.000976562, 0, -0.0185547, 0.30957, -9.74805, 1.18.2022 19:19:16.330
116, 1.77251, 0.338957, 81.1444, 0, -0.00195312, 0, -0.0527344, 0.295898, -9.75781, 1.18.2022 19:19:16.338
117, 1.77251, 0.338957, 81.1444, 0.000976562, -0.000976562, -0.000976562, -0.102539, 0.317383, -9.74219, 1.18.2022 19:19:16.346
118, 1.77251, 0.338957, 81.1444, 0.000976562, 0.000976562, 0, -0.00195312, 0.299805, -9.71777, 1.18.2022 19:19:16.354
119, 1.77251, 0.338957, 81.1444, 0, 0, 0, -0.0810547, 0.307617, -9.74707, 1.18.2022 19:19:16.362
120, 1.77251, 0.338957, 81.1444, -0.000976562, -0.000976562, -0.000976562, -0.0761719, 0.324219, -9.74023, 1.18.2022 19:19:16.370
121, 1.77251, 0.338957, 81.1444, -0.000976562, -0.000976562, -0.000976562, -0.00390625, 0.287109, -9.71387, 1.18.2022 19:19:16.378
122, 1.77251, 0.338957, 81.1444, 0, -0.000976562, 0, -0.104492, 0.327148, -9.74902, 1.18.2022 19:19:16.386
123, 1.77251, 0.338957, 81.1444, 0, -0.000976562, 0, -0.0595703, 0.308594, -9.77148, 1.18.2022 19:19:16.394
124, 1.77251, 0.338957, 81.1444, 0, -0.000976562, 0, -0.0644531, 0.286133, -9.74609, 1.18.2022 19:19:16.402
125, 1.77251, 0.338957, 81.1444, 0, 0, 0.000976562, -0.0986328, 0.320312, -9.67871, 1.18.2022 19:19:16.410
126, 1.77251, 0.338957, 81.1444, 0, -0.000976562, 0, -0.0517578, 0.265625, -9.70898, 1.18.2022 19:19:16.418
127, 1.77251, 0.338957, 81.1444, 0, -0.000976562, 0, -0.0751953, 0.299805, -9.70996, 1.18.2022 19:19:16.426
128, 1.77251, 0.338957, 81.1444, 0, 0, 0, -0.0810547, 0.288086, -9.73145, 1.18.2022 19:19:16.434
129, 1.77273, 0.338861, 81.1436, 0, 0, 0, -0.00683594, 0.270508, -9.72168, 1.18.2022 19:19:16.442
130, 1.77273, 0.338861, 81.1436, 0.000976562, 0, 0, -0.101562, 0.311523, -9.71191, 1.18.2022 19:19:16.450
131, 1.77273, 0.338861, 81.1436, 0, 0, 0, -0.0800781, 0.321289, -9.71875, 1.18.2022 19:19:16.458
132, 1.77273, 0.338861, 81.1436, 0, 0, 0, -0.0283203, 0.273438, -9.71094, 1.18.2022 19:19:16.466
133, 1.77273, 0.338861, 81.1436, 0, -0.000976562, 0, -0.134766, 0.299805, -9.71094, 1.18.2022 19:19:16.474
134, 1.77273, 0.338861, 81.1436, -0.00195312, 0, -0.000976562, -0.0458984, 0.295898, -9.76758, 1.18.2022 19:19:16.482
135, 1.77273, 0.338861, 81.1436, 0, 0, 0, -0.0546875, 0.285156, -9.72461, 1.18.2022 19:19:16.490
136, 1.77273, 0.338861, 81.1436, 0, -0.000976562, 0, -0.0957031, 0.332031, -9.74902, 1.18.2022 19:19:16.498
137, 1.77273, 0.338861, 81.1436, -0.000976562, -0.000976562, -0.000976562, -0.0136719, 0.306641, -9.7041, 1.18.2022 19:19:16.506
138, 1.77273, 0.338861, 81.1436, -0.00195312, 0, 0, -0.0859375, 0.331055, -9.74707, 1.18.2022 19:19:16.514
139, 1.7725, 0.338807, 81.1338, 0, 0, 0, -0.0830078, 0.326172, -9.72363, 1.18.2022 19:19:16.522
140, 1.7725, 0.338807, 81.1338, 0, -0.000976562, 0, -0.0419922, 0.275391, -9.71582, 1.18.2022 19:19:16.530
141, 1.77273, 0.338711, 81.133, 0, -0.000976562, 0, -0.109375, 0.295898, -9.75, 1.18.2022 19:19:16.538
142, 1.77273, 0.338711, 81.133, -0.000976562, -0.000976562, -0.000976562, -0.0507812, 0.307617, -9.67676, 1.18.2022 19:19:16.546
143, 1.77273, 0.338711, 81.133, 0.000976562, 0, 0, -0.0664062, 0.291016, -9.74121, 1.18.2022 19:19:16.554
144, 1.77273, 0.338711, 81.133, 0.000976562, 0, 0, -0.0751953, 0.311523, -9.71875, 1.18.2022 19:19:16.562
145, 1.77273, 0.338711, 81.133, -0.000976562, -0.00195312, 0, -0.00878906, 0.301758, -9.71289, 1.18.2022 19:19:16.570
146, 1.77273, 0.338711, 81.133, -0.00195312, -0.000976562, 0, -0.102539, 0.324219, -9.73047, 1.18.2022 19:19:16.578
147, 1.77249, 0.338656, 81.1232, -0.000976562, -0.000976562, 0, -0.0722656, 0.291992, -9.78809, 1.18.2022 19:19:16.586
148, 1.77249, 0.338656, 81.1232, -0.00195312, -0.000976562, -0.000976562, -0.0332031, 0.28418, -9.76074, 1.18.2022 19:19:16.594
149, 1.77249, 0.338656, 81.1232, -0.00195312, -0.000976562, 0.000976562, -0.0976562, 0.300781, -9.74219, 1.18.2022 19:19:16.602
150, 1.77803, 0.343108, 81.1222, -0.000976562, 0, 0, -0.0380859, 0.304688, -9.72949, 1.18.2022 19:19:16.610
151, 1.77803, 0.343108, 81.1222, -0.000976562, 0, 0, -0.015625, 0.313477, -9.70312, 1.18.2022 19:19:16.618
152, 1.77803, 0.343108, 81.1222, -0.000976562, -0.000976562, 0, -0.100586, 0.307617, -9.75879, 1.18.2022 19:19:16.626
153, 1.77803, 0.343108, 81.1222, -0.000976562, -0.000976562, 0, -0.0185547, 0.291016, -9.74609, 1.18.2022 19:19:16.634
154, 1.77803, 0.343108, 81.1222, -0.000976562, 0, 0, -0.0498047, 0.285156, -9.72754, 1.18.2022 19:19:16.642
155, 1.77803, 0.343108, 81.1222, -0.000976562, -0.000976562, 0, -0.0742188, 0.311523, -9.78516, 1.18.2022 19:19:16.650
156, 1.77803, 0.343108, 81.1222, -0.000976562, -0.000976562, -0.000976562, 0, 0.27832, -9.74023, 1.18.2022 19:19:16.658
157, 1.77803, 0.343108, 81.1222, -0.000976562, 0, 0, -0.0742188, 0.305664, -9.75488, 1.18.2022 19:19:16.666
158, 1.77803, 0.343108, 81.1222, -0.000976562, -0.000976562, 0, -0.0341797, 0.295898, -9.6875, 1.18.2022 19:19:16.674
159, 1.77803, 0.343108, 81.1222, 0, -0.000976562, 0, -0.0410156, 0.287109, -9.79785, 1.18.2022 19:19:16.682
160, 1.77803, 0.343108, 81.1222, -0.000976562, 0.000976562, 0, -0.125977, 0.294922, -9.71875, 1.18.2022 19:19:16.690
161, 1.77803, 0.343108, 81.1222, -0.000976562, 0.000976562, 0, -0.0361328, 0.28125, -9.75098, 1.18.2022 19:19:16.698
162, 1.77802, 0.342957, 81.1116, -0.00195312, 0, 0, -0.0732422, 0.314453, -9.74023, 1.18.2022 19:19:16.706
163, 1.77802, 0.342957, 81.1116, -0.00195312, 0, 0, -0.0996094, 0.319336, -9.73926, 1.18.2022 19:19:16.714
164, 1.77802, 0.342957, 81.1116, -0.000976562, 0, 0, -0.00878906, 0.27832, -9.72559, 1.18.2022 19:19:16.722
165, 1.77802, 0.342957, 81.1116, -0.000976562, -0.000976562, 0, -0.0644531, 0.297852, -9.73633, 1.18.2022 19:19:16.730
166, 1.77802, 0.342957, 81.1116, -0.000976562, -0.000976562, 0, -0.0546875, 0.302734, -9.75, 1.18.2022 19:19:16.738
167, 1.77825, 0.342861, 81.1107, -0.000976562, 0, -0.000976562, -0.0263672, 0.261719, -9.7334, 1.18.2022 19:19:16.746
168, 1.77802, 0.342807, 81.1009, -0.000976562, 0, -0.000976562, -0.0878906, 0.319336, -9.74219, 1.18.2022 19:19:16.754
169, 1.77802, 0.342807, 81.1009, -0.000976562, -0.000976562, 0, -0.0136719, 0.301758, -9.71582, 1.18.2022 19:19:16.762
170, 1.77802, 0.342807, 81.1009, -0.000976562, 0, 0, -0.0410156, 0.272461, -9.7627, 1.18.2022 19:19:16.770
171, 1.77802, 0.342807, 81.1009, 0, 0, 0, -0.0615234, 0.319336, -9.7334, 1.18.2022 19:19:16.778
172, 1.77802, 0.342807, 81.1009, 0, -0.000976562, 0, -0.00390625, 0.28418, -9.70215, 1.18.2022 19:19:16.786
173, 1.77802, 0.342807, 81.1009, 0, -0.00195312, 0, -0.120117, 0.322266, -9.68262, 1.18.2022 19:19:16.794
174, 1.77802, 0.342807, 81.1009, -0.000976562, -0.000976562, 0.000976562, -0.0732422, 0.321289, -9.72852, 1.18.2022 19:19:16.802
175, 1.77802, 0.342807, 81.1009, -0.000976562, -0.000976562, 0, -0.0351562, 0.268555, -9.7207, 1.18.2022 19:19:16.810
176, 1.77802, 0.342807, 81.1009, 0, 0, 0, -0.114258, 0.31543, -9.75879, 1.18.2022 19:19:16.818
177, 1.77802, 0.342807, 81.1009, 0, 0, 0.000976562, -0.0136719, 0.299805, -9.72461, 1.18.2022 19:19:16.826
178, 1.77271, 0.33826, 81.1011, 0.000976562, -0.000976562, -0.000976562, -0.0517578, 0.280273, -9.72949, 1.18.2022 19:19:16.834
179, 1.77271, 0.33826, 81.1011, -0.000976562, -0.00195312, -0.000976562, -0.0996094, 0.331055, -9.74121, 1.18.2022 19:19:16.842
180, 1.77802, 0.342807, 81.1009, 0, -0.000976562, 0, -0.0292969, 0.301758, -9.78613, 1.18.2022 19:19:16.850
181, 1.77802, 0.342807, 81.1009, 0, 0, 0, -0.0947266, 0.283203, -9.74121, 1.18.2022 19:19:16.858
182, 1.77271, 0.33826, 81.1011, 0, 0, 0, -0.0322266, 0.306641, -9.71289, 1.18.2022 19:19:16.866
183, 1.77271, 0.33826, 81.1011, -0.000976562, 0, -0.00195312, -0.0576172, 0.267578, -9.7627, 1.18.2022 19:19:16.874
184, 1.77271, 0.33826, 81.1011, 0, 0, 0, -0.124023, 0.295898, -9.75391, 1.18.2022 19:19:16.882
185, 1.77271, 0.33826, 81.1011, 0, 0, 0, -0.0498047, 0.290039, -9.73633, 1.18.2022 19:19:16.890
186, 1.77271, 0.33826, 81.1011, -0.000976562, 0, -0.00195312, -0.0585938, 0.280273, -9.71582, 1.18.2022 19:19:16.898
187, 1.77271, 0.33826, 81.1011, -0.00195312, 0, 0, -0.0869141, 0.333008, -9.70605, 1.18.2022 19:19:16.906
188, 1.77271, 0.33826, 81.1011, 0, 0, 0.000976562, -0.00195312, 0.285156, -9.71387, 1.18.2022 19:19:16.914
189, 1.77271, 0.33826, 81.1011, 0, -0.000976562, 0.000976562, -0.0595703, 0.292969, -9.74316, 1.18.2022 19:19:16.922
190, 1.77271, 0.33826, 81.1011, -0.000976562, -0.000976562, 0, -0.0908203, 0.283203, -9.74316, 1.18.2022 19:19:16.930
191, 1.77271, 0.33826, 81.1011, 0.000976562, -0.000976562, -0.000976562, -0.0263672, 0.283203, -9.74219, 1.18.2022 19:19:16.938
192, 1.77271, 0.33826, 81.1011, 0.000976562, -0.000976562, -0.00195312, -0.111328, 0.321289, -9.72949, 1.18.2022 19:19:16.946
193, 1.77271, 0.33826, 81.1011, -0.00195312, -0.000976562, -0.00195312, -0.0644531, 0.345703, -9.74707, 1.18.2022 19:19:16.954
194, 1.77271, 0.33826, 81.1011, -0.000976562, -0.000976562, 0, -0.0498047, 0.323242, -9.7168, 1.18.2022 19:19:16.962
195, 1.77271, 0.33826, 81.1011, 0.000976562, 0, 0.000976562, -0.100586, 0.307617, -9.75391, 1.18.2022 19:19:16.970
196, 1.77271, 0.33826, 81.1011, 0, 0, 0, -0.0117188, 0.283203, -9.73926, 1.18.2022 19:19:16.978
197, 1.77271, 0.33826, 81.1011, -0.000976562, -0.000976562, 0, -0.0595703, 0.286133, -9.74121, 1.18.2022 19:19:16.986
198, 1.77271, 0.33826, 81.1011, 0, -0.000976562, 0, -0.0625, 0.325195, -9.78027, 1.18.2022 19:19:16.994
199, 1.77271, 0.33826, 81.1011, 0.000976562, 0, 0, 0.0126953, 0.276367, -9.73535, 1.18.2022 19:19:17.002
200, 1.77271, 0.33826, 81.1011, -0.000976562, -0.000976562, -0.00195312, -0.0976562, 0.326172, -9.7373, 1.18.2022 19:19:17.010
201, 1.77271, 0.33826, 81.1011, 0, 0, 0, -0.0664062, 0.291016, -9.75488, 1.18.2022 19:19:17.018
202, 1.77271, 0.33826, 81.1011, 0, 0, 0.000976562, -0.0478516, 0.283203, -9.74121, 1.18.2022 19:19:17.026
203, 1.77271, 0.33826, 81.1011, 0, -0.000976562, 0, -0.12207, 0.310547, -9.75586, 1.18.2022 19:19:17.034
204, 1.77271, 0.33826, 81.1011, 0.000976562, 0, 0.000976562, -0.0117188, 0.290039, -9.7373, 1.18.2022 19:19:17.042
205, 1.77271, 0.33826, 81.1011, 0, 0, 0, -0.0439453, 0.282227, -9.69922, 1.18.2022 19:19:17.050
206, 1.77271, 0.33826, 81.1011, -0.000976562, -0.000976562, -0.00195312, -0.0800781, 0.333008, -9.71387, 1.18.2022 19:19:17.058
207, 1.77271, 0.33826, 81.1011, 0, 0, 0, -0.0332031, 0.297852, -9.74121, 1.18.2022 19:19:17.066
208, 1.77271, 0.33826, 81.1011, 0, 0, 0, -0.0947266, 0.28125, -9.73828, 1.18.2022 19:19:17.074
209, 1.77271, 0.33826, 81.1011, -0.000976562, -0.000976562, 0, -0.0478516, 0.300781, -9.75, 1.18.2022 19:19:17.082
210, 1.77271, 0.33826, 81.1011, -0.00195312, -0.00195312, -0.000976562, -0.0244141, 0.285156, -9.7959, 1.18.2022 19:19:17.090
211, 1.77271, 0.33826, 81.1011, -0.000976562, 0, 0.000976562, -0.104492, 0.316406, -9.72266, 1.18.2022 19:19:17.098
212, 1.77271, 0.33826, 81.1011, -0.000976562, 0, 0, -0.00390625, 0.311523, -9.72949, 1.18.2022 19:19:17.106
213, 1.77271, 0.33826, 81.1011, -0.000976562, -0.000976562, -0.00195312, -0.0527344, 0.291016, -9.75098, 1.18.2022 19:19:17.114
214, 1.77271, 0.33826, 81.1011, 0, 0, 0, -0.0849609, 0.335938, -9.72754, 1.18.2022 19:19:17.122
215, 1.77271, 0.33826, 81.1011, -0.000976562, 0, 0, -0.0185547, 0.298828, -9.71289, 1.18.2022 19:19:17.130
216, 1.77271, 0.33826, 81.1011, -0.000976562, 0, 0.000976562, -0.0849609, 0.292969, -9.72168, 1.18.2022 19:19:17.138
217, 1.77271, 0.33826, 81.1011, -0.000976562, -0.000976562, 0, -0.0615234, 0.291016, -9.75098, 1.18.2022 19:19:17.146
218, 1.77271, 0.33826, 81.1011, -0.00195312, -0.000976562, 0, -0.0166016, 0.295898, -9.74609, 1.18.2022 19:19:17.154
219, 1.77271, 0.33826, 81.1011, -0.000976562, -0.000976562, 0, -0.112305, 0.30957, -9.74219, 1.18.2022 19:19:17.162
220, 1.77271, 0.33826, 81.1011, -0.000976562, -0.000976562, 0, -0.0253906, 0.302734, -9.73145, 1.18.2022 19:19:17.170
221, 1.77271, 0.33826, 81.1011, -0.000976562, 0, 0, -0.0419922, 0.294922, -9.71777, 1.18.2022 19:19:17.178
222, 1.77271, 0.33826, 81.1011, -0.000976562, 0, 0, -0.0908203, 0.310547, -9.75391, 1.18.2022 19:19:17.186
223, 1.77271, 0.33826, 81.1011, -0.000976562, -0.000976562, 0, -0.0146484, 0.25293, -9.77148, 1.18.2022 19:19:17.194
224, 1.77294, 0.338315, 81.1109, -0.000976562, -0.000976562, 0, -0.0996094, 0.288086, -9.72363, 1.18.2022 19:19:17.202
225, 1.77294, 0.338315, 81.1109, -0.000976562, 0, 0, -0.0966797, 0.298828, -9.69531, 1.18.2022 19:19:17.210
226, 1.77271, 0.338411, 81.1117, -0.000976562, -0.000976562, -0.00195312, -0.00585938, 0.295898, -9.67285, 1.18.2022 19:19:17.218
227, 1.77271, 0.338411, 81.1117, -0.000976562, -0.000976562, 0, -0.125977, 0.30957, -9.73047, 1.18.2022 19:19:17.226
228, 1.77271, 0.338411, 81.1117, -0.000976562, 0, 0, -0.0253906, 0.306641, -9.71973, 1.18.2022 19:19:17.234
229, 1.77271, 0.338411, 81.1117, -0.000976562, -0.000976562, 0, -0.0449219, 0.302734, -9.75, 1.18.2022 19:19:17.240
230, 1.77271, 0.338411, 81.1117, -0.000976562, 0, 0, -0.107422, 0.307617, -9.7373, 1.18.2022 19:19:17.248
231, 1.77271, 0.338411, 81.1117, -0.000976562, -0.000976562, 0, -0.00976562, 0.289062, -9.76758, 1.18.2022 19:19:17.256
232, 1.77271, 0.338411, 81.1117, 0, -0.000976562, -0.000976562, -0.0478516, 0.295898, -9.74609, 1.18.2022 19:19:17.264
233, 1.77271, 0.338411, 81.1117, -0.000976562, -0.00195312, -0.000976562, -0.0927734, 0.321289, -9.73242, 1.18.2022 19:19:17.272
234, 1.77271, 0.338411, 81.1117, -0.000976562, -0.000976562, 0, -0.046875, 0.283203, -9.7207, 1.18.2022 19:19:17.280
235, 1.77271, 0.338411, 81.1117, -0.000976562, 0, -0.00195312, -0.0966797, 0.304688, -9.71387, 1.18.2022 19:19:17.288
236, 1.77271, 0.338411, 81.1117, -0.00195312, -0.000976562, 0, -0.0712891, 0.333984, -9.74902, 1.18.2022 19:19:17.296
237, 1.77802, 0.342957, 81.1116, -0.000976562, -0.000976562, 0, -0.0644531, 0.28418, -9.77637, 1.18.2022 19:19:17.304
238, 1.77802, 0.342957, 81.1116, -0.000976562, 0, 0, -0.124023, 0.324219, -9.75293, 1.18.2022 19:19:17.312
239, 1.77802, 0.342957, 81.1116, -0.000976562, 0, 0, -0.0214844, 0.292969, -9.75098, 1.18.2022 19:19:17.320
240, 1.77802, 0.342957, 81.1116, -0.000976562, 0, 0.000976562, -0.0712891, 0.277344, -9.7627, 1.18.2022 19:19:17.328
241, 1.77271, 0.338411, 81.1117, 0, 0, 0, -0.0810547, 0.286133, -9.73828, 1.18.2022 19:19:17.336
242, 1.77271, 0.338411, 81.1117, 0, 0, 0, 0.000976562, 0.239258, -9.70801, 1.18.2022 19:19:17.344
243, 1.77271, 0.338411, 81.1117, 0, -0.000976562, -0.000976562, -0.0957031, 0.310547, -9.74902, 1.18.2022 19:19:17.352
244, 1.77271, 0.338411, 81.1117, 0, 0, -0.00195312, -0.0546875, 0.355469, -9.75391, 1.18.2022 19:19:17.360
245, 1.77271, 0.338411, 81.1117, 0.000976562, 0, 0, -0.0214844, 0.311523, -9.73633, 1.18.2022 19:19:17.368
246, 1.77271, 0.338411, 81.1117, 0, 0, 0, -0.112305, 0.329102, -9.75781, 1.18.2022 19:19:17.376
247, 1.77271, 0.338411, 81.1117, 0, -0.00195312, 0.000976562, -0.0351562, 0.299805, -9.73145, 1.18.2022 19:19:17.384
248, 1.77271, 0.338411, 81.1117, 0.000976562, -0.000976562, 0.000976562, -0.0517578, 0.283203, -9.72266, 1.18.2022 19:19:17.392
249, 1.77271, 0.338411, 81.1117, 0.000976562, 0, 0, -0.0859375, 0.301758, -9.77539, 1.18.2022 19:19:17.400
250, 1.77271, 0.338411, 81.1117, 0.000976562, 0, -0.00195312, 0.00976562, 0.291016, -9.76562, 1.18.2022 19:19:17.408
251, 1.77271, 0.338411, 81.1117, 0.000976562, 0, 0, -0.0830078, 0.30957, -9.73828, 1.18.2022 19:19:17.416
252, 1.77271, 0.338411, 81.1117, 0.000976562, 0, 0, -0.0615234, 0.331055, -9.72363, 1.18.2022 19:19:17.424
253, 1.77271, 0.338411, 81.1117, 0, -0.000976562, -0.000976562, -0.0400391, 0.296875, -9.71484, 1.18.2022 19:19:17.432
254, 1.77271, 0.338411, 81.1117, 0, -0.000976562, 0.000976562, -0.0976562, 0.331055, -9.74219, 1.18.2022 19:19:17.440
255, 1.77294, 0.338315, 81.1109, 0, 0, 0, -0.0273438, 0.28418, -9.69922, 1.18.2022 19:19:17.448
256, 1.77294, 0.338315, 81.1109, 0, -0.000976562, -0.000976562, -0.0556641, 0.289062, -9.77441, 1.18.2022 19:19:17.456
257, 1.76839, 0.343628, 81.1109, 0.000976562, -0.000976562, -0.00195312, -0.0996094, 0.299805, -9.73828, 1.18.2022 19:19:17.464
258, 1.76839, 0.343628, 81.1109, 0, 0, -0.00195312, -0.00683594, 0.299805, -9.74609, 1.18.2022 19:19:17.472
259, 1.76839, 0.343628, 81.1109, 0, -0.000976562, -0.000976562, -0.0761719, 0.297852, -9.7334, 1.18.2022 19:19:17.480
260, 1.76816, 0.343574, 81.1011, 0, -0.00195312, -0.000976562, -0.046875, 0.320312, -9.70703, 1.18.2022 19:19:17.488
261, 1.76816, 0.343574, 81.1011, 0, 0, 0.000976562, -0.0263672, 0.283203, -9.73926, 1.18.2022 19:19:17.496
262, 1.76816, 0.343574, 81.1011, 0, -0.000976562, -0.000976562, -0.0947266, 0.297852, -9.72656, 1.18.2022 19:19:17.504
263, 1.76816, 0.343574, 81.1011, 0, -0.000976562, -0.000976562, -0.015625, 0.298828, -9.68262, 1.18.2022 19:19:17.512
264, 1.76816, 0.343574, 81.1011, 0, -0.000976562, -0.00195312, -0.0429688, 0.310547, -9.75488, 1.18.2022 19:19:17.520
265, 1.76816, 0.343574, 81.1011, 0, 0, 0, -0.114258, 0.317383, -9.7373, 1.18.2022 19:19:17.528
266, 1.76816, 0.343574, 81.1011, 0, 0, 0.000976562, 0.00390625, 0.295898, -9.6875, 1.18.2022 19:19:17.536
267, 1.76816, 0.343574, 81.1011, 0, -0.000976562, 0.000976562, -0.0791016, 0.310547, -9.75488, 1.18.2022 19:19:17.544
268, 1.76816, 0.343574, 81.1011, 0, -0.000976562, 0.000976562, -0.0576172, 0.31543, -9.75684, 1.18.2022 19:19:17.552
269, 1.76816, 0.343574, 81.1011, 0, 0, 0.000976562, 0.000976562, 0.280273, -9.7207, 1.18.2022 19:19:17.560
270, 1.76816, 0.343574, 81.1011, 0.000976562, 0, 0, -0.134766, 0.316406, -9.71582, 1.18.2022 19:19:17.568
271, 1.76816, 0.343574, 81.1011, 0.000976562, 0, 0, -0.0449219, 0.319336, -9.7334, 1.18.2022 19:19:17.576
272, 1.76839, 0.343478, 81.1003, 0.000976562, -0.000976562, -0.000976562, -0.0517578, 0.296875, -9.71484, 1.18.2022 19:19:17.584
273, 1.76839, 0.343478, 81.1003, -0.000976562, -0.000976562, -0.00195312, -0.112305, 0.330078, -9.76562, 1.18.2022 19:19:17.592
274, 1.76839, 0.343478, 81.1003, -0.000976562, -0.000976562, -0.000976562, -0.0117188, 0.283203, -9.7373, 1.18.2022 19:19:17.600
275, 1.76816, 0.343424, 81.0905, -0.00195312, -0.000976562, -0.000976562, -0.0566406, 0.307617, -9.75, 1.18.2022 19:19:17.608
276, 1.76816, 0.343424, 81.0905, -0.000976562, 0, -0.000976562, -0.0761719, 0.30957, -9.72656, 1.18.2022 19:19:17.616
277, 1.76816, 0.343424, 81.0905, -0.000976562, -0.000976562, -0.000976562, -0.00488281, 0.297852, -9.74609, 1.18.2022 19:19:17.624
278, 1.76816, 0.343424, 81.0905, -0.000976562, -0.000976562, -0.000976562, -0.109375, 0.319336, -9.74707, 1.18.2022 19:19:17.632
279, 1.76816, 0.343424, 81.0905, -0.000976562, 0, -0.000976562, -0.0185547, 0.326172, -9.7334, 1.18.2022 19:19:17.640
280, 1.76816, 0.343424, 81.0905, 0, -0.000976562, -0.00195312, -0.0195312, 0.276367, -9.75195, 1.18.2022 19:19:17.648
281, 1.76838, 0.343328, 81.0897, -0.000976562, -0.000976562, -0.000976562, -0.109375, 0.298828, -9.75879, 1.18.2022 19:19:17.656
282, 1.76838, 0.343328, 81.0897, -0.000976562, -0.000976562, -0.000976562, -0.0117188, 0.290039, -9.73926, 1.18.2022 19:19:17.664
283, 1.76838, 0.343328, 81.0897, -0.00195312, -0.000976562, -0.000976562, -0.0429688, 0.324219, -9.74512, 1.18.2022 19:19:17.672
284, 1.76838, 0.343328, 81.0897, -0.000976562, -0.000976562, -0.000976562, -0.0751953, 0.320312, -9.70508, 1.18.2022 19:19:17.680
285, 1.76838, 0.343328, 81.0897, -0.000976562, 0, -0.000976562, -0.0332031, 0.297852, -9.74805, 1.18.2022 19:19:17.688
286, 1.76815, 0.343274, 81.0799, -0.000976562, 0, -0.000976562, -0.0859375, 0.302734, -9.74316, 1.18.2022 19:19:17.696
287, 1.77269, 0.33796, 81.0799, -0.000976562, 0, -0.000976562, -0.0712891, 0.304688, -9.74512, 1.18.2022 19:19:17.704
288, 1.77269, 0.33796, 81.0799, -0.000976562, -0.000976562, -0.000976562, -0.0576172, 0.280273, -9.7959, 1.18.2022 19:19:17.712
289, 1.77269, 0.33796, 81.0799, -0.000976562, 0, -0.00195312, -0.121094, 0.295898, -9.75195, 1.18.2022 19:19:17.720
290, 1.77269, 0.33796, 81.0799, -0.00195312, 0, -0.000976562, -0.0371094, 0.296875, -9.71777, 1.18.2022 19:19:17.728
291, 1.77269, 0.33796, 81.0799, -0.00195312, -0.00195312, -0.000976562, -0.0380859, 0.299805, -9.73926, 1.18.2022 19:19:17.736
292, 1.77801, 0.342505, 81.0797, -0.000976562, -0.000976562, -0.000976562, -0.0996094, 0.314453, -9.74414, 1.18.2022 19:19:17.744
293, 1.77801, 0.342505, 81.0797, -0.000976562, -0.000976562, -0.000976562, -0.0361328, 0.291016, -9.75781, 1.18.2022 19:19:17.752
294, 1.77801, 0.342505, 81.0797, -0.000976562, -0.000976562, -0.000976562, -0.107422, 0.324219, -9.74902, 1.18.2022 19:19:17.760
295, 1.77801, 0.342505, 81.0797, -0.000976562, -0.000976562, -0.000976562, -0.0810547, 0.305664, -9.76855, 1.18.2022 19:19:17.768
296, 1.77801, 0.342505, 81.0797, 0, -0.000976562, -0.000976562, -0.000976562, 0.28418, -9.67383, 1.18.2022 19:19:17.776
297, 1.77801, 0.342505, 81.0797, 0, -0.000976562, -0.00195312, -0.111328, 0.317383, -9.7373, 1.18.2022 19:19:17.784
298, 1.77801, 0.342505, 81.0797, -0.000976562, -0.000976562, -0.00195312, -0.0380859, 0.331055, -9.74023, 1.18.2022 19:19:17.792
299, 1.77824, 0.34256, 81.0895, -0.000976562, -0.000976562, -0.00195312, -0.0400391, 0.292969, -9.73438, 1.18.2022 19:19:17.800
300, 1.77824, 0.34256, 81.0895, -0.000976562, -0.000976562, -0.000976562, -0.111328, 0.292969, -9.7334, 1.18.2022 19:19:17.808
301, 1.77824, 0.34256, 81.0895, -0.000976562, -0.000976562, -0.000976562, -0.0302734, 0.263672, -9.70898, 1.18.2022 19:19:17.816
302, 1.77824, 0.34256, 81.0895, -0.000976562, -0.000976562, 0.000976562, -0.0634766, 0.263672, -9.71094, 1.18.2022 19:19:17.824
303, 1.77824, 0.34256, 81.0895, -0.000976562, -0.000976562, -0.000976562, -0.0664062, 0.306641, -9.73145, 1.18.2022 19:19:17.832
304, 1.77824, 0.34256, 81.0895, -0.000976562, -0.000976562, -0.000976562, -0.0332031, 0.28125, -9.74414, 1.18.2022 19:19:17.840
305, 1.77824, 0.34256, 81.0895, 0, -0.000976562, 0, -0.108398, 0.325195, -9.69922, 1.18.2022 19:19:17.848
306, 1.77824, 0.34256, 81.0895, 0, -0.000976562, 0, -0.0234375, 0.301758, -9.72461, 1.18.2022 19:19:17.856
307, 1.77801, 0.342656, 81.0903, 0, -0.000976562, 0, -0.0263672, 0.288086, -9.74902, 1.18.2022 19:19:17.864
308, 1.77801, 0.342656, 81.0903, 0, 0, 0.000976562, -0.107422, 0.282227, -9.77148, 1.18.2022 19:19:17.872
309, 1.77801, 0.342656, 81.0903, 0, 0, 0, -0.0234375, 0.269531, -9.74707, 1.18.2022 19:19:17.880
310, 1.77801, 0.342656, 81.0903, 0, 0, -0.000976562, -0.0654297, 0.293945, -9.69824, 1.18.2022 19:19:17.888
311, 1.77801, 0.342656, 81.0903, 0, 0, 0, -0.0830078, 0.335938, -9.74219, 1.18.2022 19:19:17.896
312, 1.77801, 0.342656, 81.0903, 0, 0, 0, -0.0449219, 0.274414, -9.74414, 1.18.2022 19:19:17.904
313, 1.77801, 0.342656, 81.0903, 0, -0.000976562, 0, -0.0927734, 0.328125, -9.72754, 1.18.2022 19:19:17.912
314, 1.77801, 0.342656, 81.0903, 0.000976562, -0.000976562, 0, -0.0664062, 0.313477, -9.71484, 1.18.2022 19:19:17.920
315, 1.77801, 0.342656, 81.0903, 0.000976562, -0.000976562, 0.000976562, -0.0166016, 0.286133, -9.75879, 1.18.2022 19:19:17.928
316, 1.77801, 0.342656, 81.0903, 0, 0, 0, -0.0927734, 0.326172, -9.72559, 1.18.2022 19:19:17.936
317, 1.77801, 0.342656, 81.0903, 0, 0, -0.000976562, -0.0361328, 0.302734, -9.75293, 1.18.2022 19:19:17.944
318, 1.77801, 0.342656, 81.0903, 0.000976562, 0, 0, -0.0742188, 0.291016, -9.75488, 1.18.2022 19:19:17.952
319, 1.7727, 0.33811, 81.0905, 0, -0.000976562, 0, -0.0957031, 0.330078, -9.77246, 1.18.2022 19:19:17.960
320, 1.7727, 0.33811, 81.0905, 0, 0, 0, 0.00195312, 0.303711, -9.77051, 1.18.2022 19:19:17.968
321, 1.77293, 0.338165, 81.1003, 0, 0, 0, -0.0761719, 0.300781, -9.76465, 1.18.2022 19:19:17.976
322, 1.77293, 0.338165, 81.1003, 0, -0.000976562, 0, -0.0644531, 0.300781, -9.74805, 1.18.2022 19:19:17.984
323, 1.77293, 0.338165, 81.1003, 0, 0, 0, -0.0185547, 0.290039, -9.72949, 1.18.2022 19:19:17.992
324, 1.77293, 0.338165, 81.1003, 0, 0, 0, -0.125, 0.323242, -9.69629, 1.18.2022 19:19:18.000
325, 1.77293, 0.338165, 81.1003, -0.00195312, 0, 0, -0.0263672, 0.299805, -9.74121, 1.18.2022 19:19:18.008
326, 1.77293, 0.338165, 81.1003, 0, -0.000976562, 0, -0.0527344, 0.290039, -9.78613, 1.18.2022 19:19:18.016
327, 1.77293, 0.338165, 81.1003, 0, 0, -0.000976562, -0.107422, 0.317383, -9.73926, 1.18.2022 19:19:18.024
328, 1.77293, 0.338165, 81.1003, 0, -0.000976562, 0, -0.0185547, 0.288086, -9.75098, 1.18.2022 19:19:18.032
329, 1.77271, 0.33826, 81.1011, 0.000976562, -0.000976562, 0, -0.0712891, 0.291016, -9.74609, 1.18.2022 19:19:18.040
330, 1.77271, 0.33826, 81.1011, 0.000976562, -0.000976562, 0, -0.0644531, 0.319336, -9.73535, 1.18.2022 19:19:18.048
331, 1.77271, 0.33826, 81.1011, 0, -0.000976562, 0, -0.0351562, 0.324219, -9.75, 1.18.2022 19:19:18.056
332, 1.77293, 0.338165, 81.1003, 0, 0, 0, -0.110352, 0.310547, -9.77246, 1.18.2022 19:19:18.064
333, 1.77293, 0.338165, 81.1003, 0, 0, 0, -0.0566406, 0.297852, -9.74805, 1.18.2022 19:19:18.072
334, 1.77293, 0.338165, 81.1003, 0, -0.000976562, 0, -0.0761719, 0.283203, -9.73145, 1.18.2022 19:19:18.080
335, 1.77293, 0.338165, 81.1003, 0, 0, 0, -0.109375, 0.302734, -9.74219, 1.18.2022 19:19:18.088
336, 1.77293, 0.338165, 81.1003, 0, 0, -0.000976562, -0.00976562, 0.288086, -9.74414, 1.18.2022 19:19:18.096
337, 1.77293, 0.338165, 81.1003, -0.00195312, -0.000976562, 0, -0.0859375, 0.307617, -9.75684, 1.18.2022 19:19:18.104
338, 1.77293, 0.338165, 81.1003, -0.000976562, 0, 0, -0.0615234, 0.314453, -9.73828, 1.18.2022 19:19:18.112
339, 1.77293, 0.338165, 81.1003, -0.000976562, -0.000976562, 0.000976562, -0.0283203, 0.256836, -9.73047, 1.18.2022 19:19:18.120
340, 1.77293, 0.338165, 81.1003, -0.000976562, -0.000976562, 0, -0.0947266, 0.313477, -9.70215, 1.18.2022 19:19:18.128
341, 1.77293, 0.338165, 81.1003, -0.000976562, 0, 0, -0.0498047, 0.321289, -9.72656, 1.18.2022 19:19:18.136
342, 1.7727, 0.33811, 81.0905, 0, 0, 0, -0.0546875, 0.276367, -9.73438, 1.18.2022 19:19:18.144
343, 1.7727, 0.33811, 81.0905, -0.000976562, -0.000976562, 0.000976562, -0.111328, 0.331055, -9.74121, 1.18.2022 19:19:18.152
344, 1.7727, 0.33811, 81.0905, -0.00195312, -0.000976562, 0, -0.0195312, 0.291992, -9.77734, 1.18.2022 19:19:18.160
345, 1.7727, 0.33811, 81.0905, -0.000976562, 0, 0, -0.046875, 0.287109, -9.69629, 1.18.2022 19:19:18.168
346, 1.7727, 0.33811, 81.0905, -0.000976562, -0.000976562, 0, -0.0664062, 0.311523, -9.7334, 1.18.2022 19:19:18.176
347, 1.7727, 0.33811, 81.0905, -0.000976562, -0.000976562, 0, 0.00292969, 0.306641, -9.72754, 1.18.2022 19:19:18.184
348, 1.7727, 0.33811, 81.0905, -0.000976562, -0.000976562, 0, -0.112305, 0.307617, -9.75195, 1.18.2022 19:19:18.192
349, 1.7727, 0.33811, 81.0905, 0, -0.000976562, 0, -0.0664062, 0.290039, -9.71973, 1.18.2022 19:19:18.200
350, 1.77293, 0.338014, 81.0897, -0.000976562, -0.000976562, 0, -0.0478516, 0.271484, -9.74609, 1.18.2022 19:19:18.208
351, 1.77293, 0.338014, 81.0897, -0.000976562, -0.000976562, 0.000976562, -0.0908203, 0.307617, -9.75391, 1.18.2022 19:19:18.214
352, 1.77293, 0.338014, 81.0897, -0.000976562, 0, 0, -0.00390625, 0.319336, -9.72949, 1.18.2022 19:19:18.222
353, 1.77824, 0.34256, 81.0895, -0.00195312, -0.000976562, 0, -0.0722656, 0.301758, -9.78125, 1.18.2022 19:19:18.230
354, 1.77824, 0.34256, 81.0895, -0.00195312, -0.000976562, 0, -0.0742188, 0.335938, -9.75098, 1.18.2022 19:19:18.238
355, 1.77824, 0.34256, 81.0895, -0.000976562, -0.000976562, 0, -0.0136719, 0.288086, -9.73242, 1.18.2022 19:19:18.246
356, 1.77824, 0.34256, 81.0895, -0.000976562, -0.000976562, 0, -0.0996094, 0.317383, -9.75195, 1.18.2022 19:19:18.254
357, 1.77824, 0.34256, 81.0895, -0.00195312, -0.000976562, 0, -0.0478516, 0.297852, -9.73633, 1.18.2022 19:19:18.262
358, 1.77824, 0.34256, 81.0895, -0.000976562, -0.000976562, 0, -0.0117188, 0.276367, -9.73242, 1.18.2022 19:19:18.270
359, 1.77824, 0.34256, 81.0895, -0.000976562, -0.000976562, -0.00195312, -0.101562, 0.306641, -9.71387, 1.18.2022 19:19:18.278
360, 1.77824, 0.34256, 81.0895, -0.000976562, -0.00195312, -0.00195312, -0.0410156, 0.301758, -9.7793, 1.18.2022 19:19:18.286
361, 1.77824, 0.34256, 81.0895, -0.000976562, -0.000976562, 0, -0.0537109, 0.294922, -9.70801, 1.18.2022 19:19:18.294
362, 1.77824, 0.34256, 81.0895, 0, -0.000976562, 0, -0.0732422, 0.319336, -9.74023, 1.18.2022 19:19:18.302
363, 1.77824, 0.34256, 81.0895, 0.000976562, -0.000976562, 0.000976562, -0.0166016, 0.293945, -9.77441, 1.18.2022 19:19:18.310
364, 1.77369, 0.347874, 81.0895, -0.000976562, -0.000976562, 0, -0.0947266, 0.286133, -9.74316, 1.18.2022 19:19:18.318
365, 1.77369, 0.347874, 81.0895, 0, 0, 0, -0.0517578, 0.285156, -9.72949, 1.18.2022 19:19:18.326
366, 1.77369, 0.347874, 81.0895, -0.000976562, -0.000976562, 0, -0.0234375, 0.286133, -9.74414, 1.18.2022 19:19:18.334
367, 1.77369, 0.347874, 81.0895, -0.000976562, -0.00195312, -0.00195312, -0.121094, 0.314453, -9.73926, 1.18.2022 19:19:18.342
368, 1.77369, 0.347874, 81.0895, -0.000976562, 0, 0, -0.046875, 0.296875, -9.70801, 1.18.2022 19:19:18.350
369, 1.77369, 0.347874, 81.0895, 0.000976562, -0.000976562, -0.000976562, -0.0400391, 0.299805, -9.74316, 1.18.2022 19:19:18.358
370, 1.77369, 0.347874, 81.0895, 0.000976562, -0.000976562, -0.000976562, -0.104492, 0.34082, -9.73926, 1.18.2022 19:19:18.366
371, 1.77369, 0.347874, 81.0895, -0.000976562, -0.000976562, -0.000976562, 0.00585938, 0.273438, -9.80664, 1.18.2022 19:19:18.374
372, 1.77369, 0.347874, 81.0895, -0.000976562, 0, 0, -0.0546875, 0.269531, -9.75098, 1.18.2022 19:19:18.382
373, 1.77369, 0.347874, 81.0895, -0.000976562, 0, 0, -0.078125, 0.314453, -9.74707, 1.18.2022 19:19:18.390
374, 1.77369, 0.347874, 81.0895, -0.000976562, -0.000976562, -0.000976562, -0.0214844, 0.297852, -9.74902, 1.18.2022 19:19:18.398
375, 1.77369, 0.347874, 81.0895, 0.000976562, 0, -0.000976562, -0.0849609, 0.302734, -9.73047, 1.18.2022 19:19:18.406
376, 1.77369, 0.347874, 81.0895, -0.000976562, -0.000976562, -0.00195312, -0.0351562, 0.304688, -9.74121, 1.18.2022 19:19:18.414
377, 1.77347, 0.34797, 81.0903, -0.000976562, -0.000976562, -0.000976562, -0.0498047, 0.291016, -9.75781, 1.18.2022 19:19:18.422
378, 1.77347, 0.34797, 81.0903, -0.000976562, 0, 0, -0.0996094, 0.307617, -9.74023, 1.18.2022 19:19:18.430
379, 1.77347, 0.34797, 81.0903, -0.000976562, 0, 0, -0.0117188, 0.280273, -9.71875, 1.18.2022 19:19:18.438
380, 1.77347, 0.34797, 81.0903, -0.000976562, -0.000976562, 0.000976562, -0.0859375, 0.292969, -9.73828, 1.18.2022 19:19:18.446
381, 1.77347, 0.34797, 81.0903, -0.000976562, -0.000976562, -0.000976562, -0.101562, 0.320312, -9.69434, 1.18.2022 19:19:18.454
382, 1.77347, 0.34797, 81.0903, -0.000976562, 0, -0.00195312, 0.0078125, 0.279297, -9.69531, 1.18.2022 19:19:18.462
383, 1.77347, 0.34797, 81.0903, 0, 0, -0.00195312, -0.0732422, 0.319336, -9.74512, 1.18.2022 19:19:18.470
384, 1.7737, 0.348024, 81.1001, -0.00195312, -0.00195312, -0.00195312, -0.0576172, 0.34375, -9.75391, 1.18.2022 19:19:18.478
385, 1.7737, 0.348024, 81.1001, -0.000976562, 0, 0, -0.0283203, 0.285156, -9.72266, 1.18.2022 19:19:18.486
386, 1.77825, 0.342711, 81.1001, -0.000976562, -0.000976562, -0.000976562, -0.0859375, 0.327148, -9.74902, 1.18.2022 19:19:18.494
387, 1.77825, 0.342711, 81.1001, 0.000976562, 0, -0.000976562, -0.0400391, 0.319336, -9.73633, 1.18.2022 19:19:18.502
388, 1.77825, 0.342711, 81.1001, 0.000976562, -0.000976562, -0.000976562, -0.0566406, 0.285156, -9.71777, 1.18.2022 19:19:18.510
389, 1.76816, 0.343574, 81.1011, 0, -0.000976562, -0.00195312, -0.0878906, 0.295898, -9.76172, 1.18.2022 19:19:18.518
390, 1.76816, 0.343574, 81.1011, 0, -0.000976562, -0.00195312, -0.0146484, 0.301758, -9.78906, 1.18.2022 19:19:18.526
391, 1.76816, 0.343574, 81.1011, 0.000976562, -0.000976562, -0.000976562, -0.106445, 0.339844, -9.69434, 1.18.2022 19:19:18.534
392, 1.76816, 0.343574, 81.1011, 0.000976562, -0.000976562, 0.000976562, -0.078125, 0.294922, -9.72461, 1.18.2022 19:19:18.542
393, 1.76816, 0.343574, 81.1011, -0.000976562, -0.000976562, -0.000976562, -0.0332031, 0.28125, -9.75586, 1.18.2022 19:19:18.550
394, 1.76816, 0.343574, 81.1011, -0.000976562, -0.000976562, 0.000976562, -0.115234, 0.30957, -9.80371, 1.18.2022 19:19:18.558
395, 1.76816, 0.343574, 81.1011, -0.000976562, -0.000976562, -0.000976562, -0.0234375, 0.271484, -9.7373, 1.18.2022 19:19:18.566
396, 1.76816, 0.343574, 81.1011, -0.000976562, 0, 0, -0.0361328, 0.264648, -9.75684, 1.18.2022 19:19:18.574
397, 1.76816, 0.343574, 81.1011, -0.000976562, 0, 0, -0.0732422, 0.329102, -9.73242, 1.18.2022 19:19:18.582
398, 1.76816, 0.343574, 81.1011, -0.000976562, 0, 0, -0.0253906, 0.290039, -9.7207, 1.18.2022 19:19:18.590
399, 1.76816, 0.343574, 81.1011, -0.000976562, 0, 0, -0.0693359, 0.304688, -9.74512, 1.18.2022 19:19:18.598
400, 1.76816, 0.343574, 81.1011, -0.000976562, -0.000976562, -0.000976562, -0.0712891, 0.307617, -9.7334, 1.18.2022 19:19:18.606
401, 1.76816, 0.343574, 81.1011, -0.000976562, -0.000976562, 0, -0.0302734, 0.288086, -9.72949, 1.18.2022 19:19:18.614
402, 1.76839, 0.343478, 81.1003, -0.000976562, -0.000976562, 0, -0.101562, 0.328125, -9.72559, 1.18.2022 19:19:18.622
403, 1.76839, 0.343478, 81.1003, 0, -0.000976562, 0, -0.0380859, 0.297852, -9.74609, 1.18.2022 19:19:18.630
404, 1.76839, 0.343478, 81.1003, 0, 0, 0, -0.0810547, 0.290039, -9.73145, 1.18.2022 19:19:18.638
405, 1.76816, 0.343424, 81.0905, -0.000976562, 0, 0, -0.0908203, 0.319336, -9.74414, 1.18.2022 19:19:18.646
406, 1.76816, 0.343424, 81.0905, -0.000976562, -0.000976562, 0.000976562, 0.0224609, 0.291992, -9.70508, 1.18.2022 19:19:18.654
407, 1.76816, 0.343424, 81.0905, -0.000976562, -0.000976562, 0, -0.0498047, 0.285156, -9.72949, 1.18.2022 19:19:18.662
408, 1.76816, 0.343424, 81.0905, -0.000976562, -0.000976562, 0, -0.106445, 0.326172, -9.72754, 1.18.2022 19:19:18.670
409, 1.76816, 0.343424, 81.0905, -0.000976562, 0, 0, -0.0175781, 0.289062, -9.78418, 1.18.2022 19:19:18.678
410, 1.77293, 0.338014, 81.0897, -0.000976562, 0, 0, -0.109375, 0.313477, -9.71387, 1.18.2022 19:19:18.686
411, 1.77293, 0.338014, 81.0897, -0.000976562, -0.000976562, 0, -0.0546875, 0.295898, -9.74121, 1.18.2022 19:19:18.694
412, 1.77293, 0.338014, 81.0897, -0.000976562, -0.000976562, 0, -0.0400391, 0.292969, -9.74414, 1.18.2022 19:19:18.702
413, 1.77293, 0.338014, 81.0897, -0.000976562, 0, -0.000976562, -0.0849609, 0.310547, -9.7002, 1.18.2022 19:19:18.710
414, 1.77269, 0.33796, 81.0799, -0.000976562, 0, 0.000976562, 0.00585938, 0.31543, -9.70605, 1.18.2022 19:19:18.718
415, 1.77269, 0.33796, 81.0799, -0.000976562, -0.000976562, 0, -0.0732422, 0.335938, -9.72754, 1.18.2022 19:19:18.726
416, 1.77269, 0.33796, 81.0799, -0.000976562, -0.000976562, 0, -0.0615234, 0.347656, -9.72754, 1.18.2022 19:19:18.734
417, 1.77269, 0.33796, 81.0799, -0.000976562, -0.000976562, 0.000976562, -0.0292969, 0.289062, -9.76953, 1.18.2022 19:19:18.742
418, 1.77292, 0.337864, 81.0791, -0.000976562, -0.000976562, 0.000976562, -0.107422, 0.317383, -9.75586, 1.18.2022 19:19:18.750
419, 1.77292, 0.337864, 81.0791, -0.000976562, 0, 0, -0.0595703, 0.307617, -9.73633, 1.18.2022 19:19:18.758
420, 1.77292, 0.337864, 81.0791, -0.000976562, -0.000976562, 0, -0.00976562, 0.269531, -9.77051, 1.18.2022 19:19:18.766
421, 1.77292, 0.337864, 81.0791, -0.000976562, 0, 0, -0.0830078, 0.333984, -9.74414, 1.18.2022 19:19:18.774
422, 1.77292, 0.337864, 81.0791, -0.00195312, -0.000976562, 0, -0.0283203, 0.311523, -9.71777, 1.18.2022 19:19:18.782
423, 1.77292, 0.337864, 81.0791, -0.000976562, 0, 0, -0.0878906, 0.288086, -9.74512, 1.18.2022 19:19:18.790
424, 1.77292, 0.337864, 81.0791, -0.000976562, 0, 0, -0.078125, 0.31543, -9.70215, 1.18.2022 19:19:18.798
425, 1.77292, 0.337864, 81.0791, -0.000976562, -0.000976562, 0, -0.00195312, 0.283203, -9.73047, 1.18.2022 19:19:18.806
426, 1.77292, 0.337864, 81.0791, 0, -0.000976562, 0, -0.0996094, 0.299805, -9.72168, 1.18.2022 19:19:18.814
427, 1.77292, 0.337864, 81.0791, -0.000976562, 0, 0, -0.0400391, 0.316406, -9.7334, 1.18.2022 19:19:18.822
428, 1.77292, 0.337864, 81.0791, -0.000976562, 0, 0, -0.0263672, 0.305664, -9.75098, 1.18.2022 19:19:18.830
429, 1.77292, 0.337864, 81.0791, -0.000976562, 0, 0, -0.102539, 0.320312, -9.77051, 1.18.2022 19:19:18.838
430, 1.77292, 0.337864, 81.0791, -0.000976562, 0, 0, -0.0214844, 0.324219, -9.75977, 1.18.2022 19:19:18.846
431, 1.77292, 0.337864, 81.0791, -0.000976562, 0, 0, -0.0302734, 0.306641, -9.71484, 1.18.2022 19:19:18.854
432, 1.77292, 0.337864, 81.0791, -0.00195312, -0.000976562, 0.000976562, -0.0976562, 0.330078, -9.7627, 1.18.2022 19:19:18.862
433, 1.77292, 0.337864, 81.0791, -0.000976562, 0, -0.000976562, -0.0166016, 0.290039, -9.73438, 1.18.2022 19:19:18.870
434, 1.77292, 0.337864, 81.0791, -0.00195312, 0, 0, -0.0996094, 0.307617, -9.73047, 1.18.2022 19:19:18.878
435, 1.77292, 0.337864, 81.0791, -0.000976562, 0, -0.000976562, -0.0751953, 0.306641, -9.71875, 1.18.2022 19:19:18.886
436, 1.77292, 0.337864, 81.0791, 0.000976562, 0, -0.00195312, 0.0078125, 0.301758, -9.70605, 1.18.2022 19:19:18.894
437, 1.77292, 0.337864, 81.0791, -0.000976562, 0, -0.000976562, -0.0878906, 0.321289, -9.72363, 1.18.2022 19:19:18.902
438, 1.77292, 0.337864, 81.0791, -0.00195312, -0.000976562, 0, -0.0429688, 0.286133, -9.74414, 1.18.2022 19:19:18.910
439, 1.77292, 0.337864, 81.0791, -0.000976562, -0.000976562, -0.000976562, -0.0419922, 0.303711, -9.70605, 1.18.2022 19:19:18.918
440, 1.77292, 0.337864, 81.0791, -0.000976562, 0, -0.000976562, -0.116211, 0.319336, -9.74219, 1.18.2022 19:19:18.926
441, 1.77292, 0.337864, 81.0791, -0.000976562, 0, 0, -0.0234375, 0.304688, -9.71973, 1.18.2022 19:19:18.934
442, 1.77292, 0.337864, 81.0791, -0.000976562, 0, -0.000976562, -0.0712891, 0.307617, -9.75684, 1.18.2022 19:19:18.942
443, 1.77292, 0.337864, 81.0791, -0.000976562, -0.000976562, -0.000976562, -0.0517578, 0.307617, -9.7334, 1.18.2022 19:19:18.950
444, 1.77292, 0.337864, 81.0791, -0.000976562, 0, -0.00195312, -0.0214844, 0.289062, -9.76562, 1.18.2022 19:19:18.958
445, 1.77292, 0.337864, 81.0791, -0.000976562, -0.000976562, -0.00195312, -0.131836, 0.308594, -9.77051, 1.18.2022 19:19:18.966
446, 1.77823, 0.342409, 81.0789, -0.000976562, -0.000976562, -0.00195312, -0.0302734, 0.285156, -9.7207, 1.18.2022 19:19:18.974
447, 1.77823, 0.342409, 81.0789, 0.000976562, -0.000976562, -0.000976562, -0.0380859, 0.311523, -9.73633, 1.18.2022 19:19:18.982
448, 1.77823, 0.342409, 81.0789, -0.000976562, -0.000976562, -0.000976562, -0.116211, 0.318359, -9.70117, 1.18.2022 19:19:18.990
449, 1.77823, 0.342409, 81.0789, 0.000976562, -0.000976562, -0.000976562, -0.0146484, 0.250977, -9.7666, 1.18.2022 19:19:18.998
450, 1.77823, 0.342409, 81.0789, -0.000976562, 0, -0.000976562, -0.0810547, 0.286133, -9.74316, 1.18.2022 19:19:19.006
451, 1.77292, 0.337864, 81.0791, -0.000976562, 0, -0.000976562, -0.0976562, 0.292969, -9.73145, 1.18.2022 19:19:19.014
452, 1.77269, 0.33796, 81.0799, -0.00195312, 0, -0.000976562, -0.0273438, 0.277344, -9.70703, 1.18.2022 19:19:19.022
453, 1.77801, 0.342505, 81.0797, -0.000976562, 0, -0.00195312, -0.0927734, 0.289062, -9.75488, 1.18.2022 19:19:19.030
454, 1.77724, 0.332645, 81.0799, -0.000976562, 0, 0, -0.0810547, 0.310547, -9.75195, 1.18.2022 19:19:19.038
455, 1.77724, 0.332645, 81.0799, -0.000976562, 0, -0.000976562, -0.0361328, 0.307617, -9.76465, 1.18.2022 19:19:19.046
456, 1.77724, 0.332645, 81.0799, -0.000976562, 0, -0.000976562, -0.0996094, 0.311523, -9.72363, 1.18.2022 19:19:19.054
457, 1.77724, 0.332645, 81.0799, -0.00195312, -0.000976562, -0.000976562, -0.0332031, 0.293945, -9.77246, 1.18.2022 19:19:19.062
458, 1.78255, 0.337191, 81.0797, -0.000976562, 0, -0.000976562, -0.0527344, 0.260742, -9.78027, 1.18.2022 19:19:19.070
459, 1.77747, 0.3327, 81.0897, -0.000976562, 0, -0.000976562, -0.0859375, 0.286133, -9.74805, 1.18.2022 19:19:19.078
460, 1.77747, 0.3327, 81.0897, -0.00195312, 0, -0.000976562, 0.00292969, 0.263672, -9.73535, 1.18.2022 19:19:19.086
461, 1.78278, 0.337246, 81.0895, -0.000976562, -0.000976562, 0, -0.0947266, 0.294922, -9.7334, 1.18.2022 19:19:19.094
462, 1.78278, 0.337246, 81.0895, -0.000976562, 0, -0.000976562, -0.0859375, 0.34375, -9.73926, 1.18.2022 19:19:19.102
463, 1.78278, 0.337246, 81.0895, -0.000976562, -0.000976562, -0.000976562, -0.046875, 0.27832, -9.72266, 1.18.2022 19:19:19.110
464, 1.78278, 0.337246, 81.0895, 0.000976562, -0.000976562, -0.000976562, -0.0976562, 0.311523, -9.72852, 1.18.2022 19:19:19.118
465, 1.78278, 0.337246, 81.0895, 0, -0.00195312, -0.000976562, -0.0263672, 0.324219, -9.73828, 1.18.2022 19:19:19.126
466, 1.78278, 0.337246, 81.0895, 0.000976562, -0.000976562, -0.000976562, -0.0546875, 0.298828, -9.76465, 1.18.2022 19:19:19.134
467, 1.78278, 0.337246, 81.0895, 0, 0, -0.00195312, -0.0703125, 0.290039, -9.70801, 1.18.2022 19:19:19.142
468, 1.78278, 0.337246, 81.0895, 0, -0.000976562, -0.00195312, -0.00976562, 0.240234, -9.74805, 1.18.2022 19:19:19.150
469, 1.77824, 0.34256, 81.0895, 0, -0.000976562, -0.000976562, -0.114258, 0.288086, -9.7168, 1.18.2022 19:19:19.158
470, 1.77824, 0.34256, 81.0895, 0, -0.000976562, -0.000976562, -0.0566406, 0.303711, -9.71289, 1.18.2022 19:19:19.166
471, 1.77824, 0.34256, 81.0895, 0, -0.000976562, -0.000976562, -0.0410156, 0.307617, -9.76172, 1.18.2022 19:19:19.174
472, 1.77824, 0.34256, 81.0895, 0, -0.000976562, -0.000976562, -0.0966797, 0.308594, -9.71387, 1.18.2022 19:19:19.180
473, 1.77824, 0.34256, 81.0895, 0, -0.000976562, -0.000976562, -0.0498047, 0.268555, -9.72559, 1.18.2022 19:19:19.188
474, 1.77824, 0.34256, 81.0895, 0.000976562, 0, -0.000976562, -0.0683594, 0.275391, -9.69922, 1.18.2022 19:19:19.196
475, 1.77801, 0.342505, 81.0797, 0.000976562, -0.000976562, -0.000976562, -0.0966797, 0.313477, -9.71191, 1.18.2022 19:19:19.204
476, 1.77801, 0.342505, 81.0797, -0.00195312, -0.000976562, -0.00195312, -0.0253906, 0.301758, -9.71289, 1.18.2022 19:19:19.212
477, 1.77801, 0.342505, 81.0797, 0, -0.000976562, -0.000976562, -0.0966797, 0.299805, -9.71387, 1.18.2022 19:19:19.220
478, 1.77801, 0.342505, 81.0797, 0, -0.000976562, -0.000976562, -0.0634766, 0.327148, -9.68848, 1.18.2022 19:19:19.228
479, 1.77801, 0.342505, 81.0797, 0, 0, 0, -0.0117188, 0.297852, -9.7373, 1.18.2022 19:19:19.236
480, 1.77801, 0.342505, 81.0797, 0.000976562, 0, -0.000976562, -0.117188, 0.303711, -9.78516, 1.18.2022 19:19:19.244
481, 1.77801, 0.342505, 81.0797, 0, 0, 0, -0.046875, 0.308594, -9.71484, 1.18.2022 19:19:19.252
482, 1.77823, 0.342409, 81.0789, 0, 0, 0.000976562, -0.0361328, 0.295898, -9.74805, 1.18.2022 19:19:19.260
483, 1.77823, 0.342409, 81.0789, 0.000976562, 0, -0.000976562, -0.101562, 0.302734, -9.72559, 1.18.2022 19:19:19.268
484, 1.77292, 0.337864, 81.0791, 0, -0.000976562, -0.00195312, -0.00488281, 0.263672, -9.73828, 1.18.2022 19:19:19.276
485, 1.77292, 0.337864, 81.0791, 0, 0, -0.00195312, -0.0478516, 0.288086, -9.74609, 1.18.2022 19:19:19.284
486, 1.77292, 0.337864, 81.0791, 0, -0.000976562, -0.000976562, -0.104492, 0.328125, -9.70605, 1.18.2022 19:19:19.292
487, 1.77292, 0.337864, 81.0791, 0.000976562, 0, 0, -0.0117188, 0.288086, -9.73438, 1.18.2022 19:19:19.300
488, 1.77269, 0.337809, 81.0693, 0.000976562, 0, 0.000976562, -0.111328, 0.265625, -9.68457, 1.18.2022 19:19:19.308
489, 1.77269, 0.337809, 81.0693, 0, -0.000976562, -0.000976562, -0.0693359, 0.302734, -9.73828, 1.18.2022 19:19:19.316
490, 1.77269, 0.337809, 81.0693, 0, -0.000976562, -0.000976562, -0.0400391, 0.302734, -9.73145, 1.18.2022 19:19:19.324
491, 1.77269, 0.337809, 81.0693, 0, -0.000976562, -0.000976562, -0.107422, 0.333984, -9.74609, 1.18.2022 19:19:19.332
492, 1.77269, 0.337809, 81.0693, 0.000976562, 0, 0, -0.00878906, 0.261719, -9.72168, 1.18.2022 19:19:19.340
493, 1.77269, 0.337809, 81.0693, 0, -0.00195312, -0.000976562, -0.0517578, 0.292969, -9.72461, 1.18.2022 19:19:19.348
494, 1.77269, 0.337809, 81.0693, 0, -0.00195312, -0.000976562, -0.0839844, 0.300781, -9.76172, 1.18.2022 19:19:19.356
495, 1.77269, 0.337809, 81.0693, 0.000976562, 0, 0, -0.0117188, 0.275391, -9.71387, 1.18.2022 19:19:19.364
496, 1.77292, 0.337864, 81.0791, 0, -0.000976562, -0.000976562, -0.0927734, 0.316406, -9.71582, 1.18.2022 19:19:19.372
497, 1.76838, 0.343179, 81.079, -0.000976562, -0.000976562, 0.000976562, -0.0546875, 0.314453, -9.73145, 1.18.2022 19:19:19.380
498, 1.76838, 0.343179, 81.079, 0, 0, 0, -0.0566406, 0.286133, -9.73926, 1.18.2022 19:19:19.388
499, 1.76838, 0.343179, 81.079, 0, 0, 0, -0.0947266, 0.283203, -9.74121, 1.18.2022 19:19:19.396
500, 1.76838, 0.343179, 81.079, -0.00195312, -0.000976562, 0, -0.03125, 0.310547, -9.75781, 1.18.2022 19:19:19.404
501, 1.77292, 0.337864, 81.0791, -0.00195312, 0, 0, -0.0361328, 0.333984, -9.76172, 1.18.2022 19:19:19.412
502, 1.77269, 0.33796, 81.0799, -0.000976562, 0.000976562, 0, -0.0644531, 0.327148, -9.74707, 1.18.2022 19:19:19.420
503, 1.77269, 0.33796, 81.0799, -0.000976562, -0.000976562, 0.000976562, -0.0429688, 0.282227, -9.77441, 1.18.2022 19:19:19.428
504, 1.77269, 0.33796, 81.0799, 0, 0, 0, -0.0839844, 0.31543, -9.76367, 1.18.2022 19:19:19.436
505, 1.77269, 0.33796, 81.0799, 0, 0, 0.000976562, -0.0595703, 0.304688, -9.7334, 1.18.2022 19:19:19.444
506, 1.77269, 0.33796, 81.0799, -0.000976562, -0.000976562, 0.000976562, -0.0195312, 0.271484, -9.75391, 1.18.2022 19:19:19.452
507, 1.77269, 0.33796, 81.0799, -0.000976562, 0, 0, -0.133789, 0.333984, -9.75977, 1.18.2022 19:19:19.460
508, 1.77269, 0.33796, 81.0799, -0.000976562, 0, 0, -0.0351562, 0.294922, -9.73926, 1.18.2022 19:19:19.468
509, 1.77269, 0.33796, 81.0799, 0, 0, -0.00195312, -0.0166016, 0.290039, -9.73242, 1.18.2022 19:19:19.476
510, 1.77269, 0.33796, 81.0799, -0.000976562, -0.000976562, 0, -0.113281, 0.328125, -9.80273, 1.18.2022 19:19:19.484
511, 1.77269, 0.33796, 81.0799, -0.000976562, 0, 0, -0.0185547, 0.287109, -9.71777, 1.18.2022 19:19:19.492
512, 1.77269, 0.33796, 81.0799, -0.000976562, 0, 0, -0.0585938, 0.293945, -9.70605, 1.18.2022 19:19:19.500
513, 1.77269, 0.33796, 81.0799, -0.00195312, 0, -0.000976562, -0.0771484, 0.323242, -9.69531, 1.18.2022 19:19:19.508
514, 1.77269, 0.33796, 81.0799, -0.000976562, -0.000976562, 0, -0.0263672, 0.305664, -9.76953, 1.18.2022 19:19:19.516
515, 1.77269, 0.33796, 81.0799, -0.000976562, 0, 0, -0.118164, 0.306641, -9.70215, 1.18.2022 19:19:19.524
516, 1.77269, 0.33796, 81.0799, -0.000976562, -0.000976562, 0, -0.0537109, 0.305664, -9.69336, 1.18.2022 19:19:19.532
517, 1.77269, 0.33796, 81.0799, -0.000976562, -0.00195312, 0, -0.0527344, 0.28418, -9.75781, 1.18.2022 19:19:19.540
518, 1.77269, 0.33796, 81.0799, -0.000976562, -0.000976562, 0, -0.0957031, 0.307617, -9.75195, 1.18.2022 19:19:19.548
519, 1.77269, 0.33796, 81.0799, -0.000976562, -0.000976562, 0, 0.0146484, 0.288086, -9.7334, 1.18.2022 19:19:19.556
520, 1.77269, 0.33796, 81.0799, -0.000976562, -0.000976562, 0, -0.0791016, 0.28418, -9.7666, 1.18.2022 19:19:19.564
521, 1.77292, 0.337864, 81.0791, 0, -0.00195312, 0, -0.0761719, 0.313477, -9.77051, 1.18.2022 19:19:19.572
522, 1.77292, 0.337864, 81.0791, -0.000976562, 0, 0, -0.0283203, 0.287109, -9.7207, 1.18.2022 19:19:19.580
523, 1.77292, 0.337864, 81.0791, -0.000976562, 0, 0, -0.130859, 0.292969, -9.74023, 1.18.2022 19:19:19.588
524, 1.77292, 0.337864, 81.0791, -0.000976562, 0, -0.000976562, -0.0957031, 0.31543, -9.75879, 1.18.2022 19:19:19.596
525, 1.77292, 0.337864, 81.0791, -0.000976562, 0, -0.000976562, -0.0537109, 0.291992, -9.70312, 1.18.2022 19:19:19.604
526, 1.77292, 0.337864, 81.0791, -0.000976562, 0, 0, -0.0761719, 0.294922, -9.72656, 1.18.2022 19:19:19.612
527, 1.77269, 0.337809, 81.0693, -0.000976562, -0.00195312, 0, -0.0283203, 0.305664, -9.75488, 1.18.2022 19:19:19.620
528, 1.77269, 0.337809, 81.0693, -0.000976562, 0, 0, -0.0605469, 0.296875, -9.7998, 1.18.2022 19:19:19.628
529, 1.77269, 0.337809, 81.0693, -0.00195312, 0, 0, -0.0927734, 0.299805, -9.73047, 1.18.2022 19:19:19.636
530, 1.77269, 0.337809, 81.0693, 0.000976562, -0.000976562, -0.000976562, 0.000976562, 0.275391, -9.71387, 1.18.2022 19:19:19.644
531, 1.77269, 0.337809, 81.0693, -0.000976562, -0.000976562, 0, -0.0810547, 0.330078, -9.76562, 1.18.2022 19:19:19.652
532, 1.77269, 0.337809, 81.0693, -0.000976562, 0, 0.000976562, -0.0361328, 0.298828, -9.76465, 1.18.2022 19:19:19.660
533, 1.77269, 0.337809, 81.0693, -0.000976562, 0, 0.000976562, -0.00195312, 0.253906, -9.72168, 1.18.2022 19:19:19.668
534, 1.77269, 0.337809, 81.0693, -0.00195312, -0.000976562, 0, -0.109375, 0.338867, -9.73438, 1.18.2022 19:19:19.676
535, 1.77269, 0.337809, 81.0693, -0.00195312, 0, 0, -0.0283203, 0.304688, -9.73926, 1.18.2022 19:19:19.684
536, 1.77269, 0.337809, 81.0693, -0.000976562, 0, 0, -0.0634766, 0.294922, -9.71289, 1.18.2022 19:19:19.692
537, 1.77269, 0.337809, 81.0693, -0.000976562, -0.000976562, -0.00195312, -0.0830078, 0.34082, -9.72754, 1.18.2022 19:19:19.700
538, 1.77292, 0.337864, 81.0791, -0.000976562, 0, 0, -0.00585938, 0.299805, -9.79883, 1.18.2022 19:19:19.708
539, 1.77292, 0.337864, 81.0791, -0.000976562, 0, 0, -0.0898438, 0.306641, -9.70508, 1.18.2022 19:19:19.716
540, 1.77292, 0.337864, 81.0791, -0.000976562, 0, 0, -0.0566406, 0.314453, -9.73535, 1.18.2022 19:19:19.724
541, 1.77292, 0.337864, 81.0791, -0.000976562, -0.000976562, 0, -0.0263672, 0.292969, -9.74121, 1.18.2022 19:19:19.732
542, 1.77292, 0.337864, 81.0791, -0.000976562, -0.000976562, 0.000976562, -0.144531, 0.316406, -9.72461, 1.18.2022 19:19:19.740
543, 1.77292, 0.337864, 81.0791, -0.000976562, 0, 0, -0.0175781, 0.291016, -9.68555, 1.18.2022 19:19:19.748
544, 1.77292, 0.337864, 81.0791, -0.000976562, -0.000976562, 0.000976562, -0.0595703, 0.291992, -9.77148, 1.18.2022 19:19:19.756
545, 1.77292, 0.337864, 81.0791, -0.000976562, -0.000976562, 0, -0.0927734, 0.347656, -9.72461, 1.18.2022 19:19:19.764
546, 1.77292, 0.337864, 81.0791, -0.000976562, 0, 0, 0.00390625, 0.272461, -9.69043, 1.18.2022 19:19:19.772
547, 1.77292, 0.337864, 81.0791, -0.000976562, -0.000976562, -0.00195312, -0.0361328, 0.302734, -9.75781, 1.18.2022 19:19:19.780
548, 1.77823, 0.342409, 81.0789, -0.000976562, -0.000976562, 0, -0.0693359, 0.288086, -9.73828, 1.18.2022 19:19:19.788
549, 1.77823, 0.342409, 81.0789, -0.000976562, 0, 0, -0.0214844, 0.268555, -9.72852, 1.18.2022 19:19:19.796
550, 1.778, 0.342355, 81.0691, -0.000976562, 0, 0, -0.0732422, 0.302734, -9.74316, 1.18.2022 19:19:19.804
551, 1.778, 0.342355, 81.0691, -0.00195312, -0.000976562, 0, -0.0263672, 0.319336, -9.75, 1.18.2022 19:19:19.812
552, 1.778, 0.342355, 81.0691, 0.000976562, -0.000976562, -0.000976562, -0.0351562, 0.27832, -9.73438, 1.18.2022 19:19:19.820
553, 1.778, 0.342355, 81.0691, 0.000976562, -0.000976562, -0.000976562, -0.108398, 0.318359, -9.70215, 1.18.2022 19:19:19.828
554, 1.77823, 0.342259, 81.0683, -0.000976562, -0.000976562, 0.000976562, -0.0400391, 0.271484, -9.72754, 1.18.2022 19:19:19.836
555, 1.77823, 0.342259, 81.0683, -0.000976562, -0.00195312, 0.000976562, -0.0742188, 0.31543, -9.77051, 1.18.2022 19:19:19.844
556, 1.77823, 0.342259, 81.0683, -0.000976562, -0.000976562, 0, -0.0566406, 0.329102, -9.75, 1.18.2022 19:19:19.852
557, 1.77823, 0.342259, 81.0683, -0.000976562, -0.000976562, 0, -0.00878906, 0.261719, -9.72363, 1.18.2022 19:19:19.860
558, 1.77823, 0.342259, 81.0683, 0, -0.000976562, -0.00195312, -0.0957031, 0.264648, -9.75293, 1.18.2022 19:19:19.868
559, 1.77823, 0.342259, 81.0683, -0.000976562, -0.000976562, -0.00195312, -0.0419922, 0.303711, -9.71289, 1.18.2022 19:19:19.876
560, 1.77823, 0.342259, 81.0683, -0.000976562, -0.000976562, -0.00195312, -0.0263672, 0.298828, -9.77441, 1.18.2022 19:19:19.884
561, 1.77823, 0.342259, 81.0683, -0.000976562, -0.000976562, -0.000976562, -0.106445, 0.308594, -9.70215, 1.18.2022 19:19:19.892
562, 1.77823, 0.342259, 81.0683, 0.000976562, -0.000976562, -0.000976562, 0.00292969, 0.292969, -9.73242, 1.18.2022 19:19:19.900
563, 1.77823, 0.342259, 81.0683, 0.000976562, 0.000976562, 0, -0.0449219, 0.314453, -9.73828, 1.18.2022 19:19:19.908
564, 1.77823, 0.342259, 81.0683, -0.000976562, 0, -0.000976562, -0.0908203, 0.322266, -9.75879, 1.18.2022 19:19:19.916
565, 1.77268, 0.337659, 81.0586, 0.000976562, -0.000976562, -0.000976562, -0.0175781, 0.308594, -9.69141, 1.18.2022 19:19:19.924
566, 1.77268, 0.337659, 81.0586, 0.000976562, -0.000976562, -0.00195312, -0.0976562, 0.317383, -9.74023, 1.18.2022 19:19:19.932
567, 1.76814, 0.342974, 81.0586, -0.000976562, -0.000976562, -0.000976562, -0.046875, 0.326172, -9.73047, 1.18.2022 19:19:19.940
568, 1.76814, 0.342974, 81.0586, -0.000976562, -0.000976562, -0.000976562, -0.0449219, 0.285156, -9.72754, 1.18.2022 19:19:19.948
569, 1.76836, 0.342879, 81.0578, -0.000976562, 0, 0.000976562, -0.108398, 0.303711, -9.70898, 1.18.2022 19:19:19.956
570, 1.77291, 0.337564, 81.0578, -0.000976562, 0, 0.000976562, -0.03125, 0.288086, -9.74414, 1.18.2022 19:19:19.964
571, 1.77291, 0.337564, 81.0578, -0.00195312, -0.000976562, 0.000976562, -0.0585938, 0.301758, -9.71484, 1.18.2022 19:19:19.972
572, 1.77291, 0.337564, 81.0578, -0.000976562, -0.000976562, -0.00195312, -0.0546875, 0.332031, -9.75195, 1.18.2022 19:19:19.980
573, 1.77291, 0.337564, 81.0578, -0.000976562, -0.000976562, -0.000976562, 0.0292969, 0.282227, -9.7168, 1.18.2022 19:19:19.988
574, 1.77291, 0.337564, 81.0578, -0.00195312, -0.000976562, -0.000976562, -0.0996094, 0.335938, -9.7373, 1.18.2022 19:19:19.996
575, 1.77822, 0.342108, 81.0576, -0.000976562, -0.000976562, -0.000976562, -0.0908203, 0.302734, -9.75684, 1.18.2022 19:19:20.004
576, 1.77822, 0.342108, 81.0576, -0.000976562, 0, -0.000976562, -0.0214844, 0.273438, -9.74023, 1.18.2022 19:19:20.012
577, 1.77822, 0.342108, 81.0576, -0.000976562, -0.000976562, -0.000976562, -0.116211, 0.299805, -9.73535, 1.18.2022 19:19:20.020
578, 1.77822, 0.342108, 81.0576, -0.000976562, -0.000976562, -0.000976562, -0.0302734, 0.296875, -9.72461, 1.18.2022 19:19:20.028
579, 1.77291, 0.337564, 81.0578, -0.000976562, 0, -0.000976562, -0.0273438, 0.320312, -9.7002, 1.18.2022 19:19:20.036
580, 1.77268, 0.337659, 81.0586, -0.000976562, 0, -0.000976562, -0.0634766, 0.311523, -9.70312, 1.18.2022 19:19:20.044
581, 1.77268, 0.337659, 81.0586, -0.000976562, -0.000976562, -0.000976562, -0.00976562, 0.295898, -9.74902, 1.18.2022 19:19:20.052
582, 1.77268, 0.337659, 81.0586, -0.000976562, -0.00195312, -0.000976562, -0.0966797, 0.306641, -9.7002, 1.18.2022 19:19:20.060
583, 1.77799, 0.342204, 81.0585, -0.000976562, -0.000976562, -0.000976562, -0.0478516, 0.3125, -9.74316, 1.18.2022 19:19:20.068
584, 1.77799, 0.342204, 81.0585, -0.000976562, -0.000976562, -0.000976562, -0.0273438, 0.293945, -9.70117, 1.18.2022 19:19:20.076
585, 1.77799, 0.342204, 81.0585, -0.000976562, 0, -0.000976562, -0.107422, 0.304688, -9.74219, 1.18.2022 19:19:20.084
586, 1.77268, 0.337659, 81.0586, -0.000976562, 0, -0.000976562, -0.03125, 0.302734, -9.75098, 1.18.2022 19:19:20.092
587, 1.77268, 0.337659, 81.0586, -0.000976562, -0.000976562, -0.000976562, -0.0615234, 0.273438, -9.71582, 1.18.2022 19:19:20.100
588, 1.77268, 0.337659, 81.0586, -0.000976562, -0.000976562, 0.000976562, -0.119141, 0.319336, -9.73438, 1.18.2022 19:19:20.108
589, 1.77291, 0.337564, 81.0578, -0.000976562, 0, -0.000976562, -0.00976562, 0.273438, -9.74023, 1.18.2022 19:19:20.116
590, 1.77291, 0.337564, 81.0578, 0.000976562, 0, -0.000976562, -0.0527344, 0.279297, -9.7627, 1.18.2022 19:19:20.124
591, 1.77291, 0.337564, 81.0578, -0.000976562, 0, -0.000976562, -0.0878906, 0.314453, -9.7334, 1.18.2022 19:19:20.132
592, 1.77291, 0.337564, 81.0578, -0.00195312, 0, 0, 0.00195312, 0.259766, -9.76855, 1.18.2022 19:19:20.140
593, 1.77291, 0.337564, 81.0578, -0.00195312, 0, -0.000976562, -0.0947266, 0.304688, -9.73047, 1.18.2022 19:19:20.148
594, 1.77291, 0.337564, 81.0578, -0.000976562, 0, -0.000976562, -0.0537109, 0.313477, -9.7168, 1.18.2022 19:19:20.154
595, 1.77291, 0.337564, 81.0578, -0.00195312, -0.000976562, -0.000976562, -0.0253906, 0.288086, -9.72754, 1.18.2022 19:19:20.162
596, 1.77291, 0.337564, 81.0578, 0.000976562, -0.000976562, -0.000976562, -0.0820312, 0.300781, -9.66699, 1.18.2022 19:19:20.170
597, 1.77291, 0.337564, 81.0578, -0.000976562, -0.00195312, -0.000976562, -0.0332031, 0.290039, -9.73242, 1.18.2022 19:19:20.178
598, 1.77291, 0.337564, 81.0578, -0.00195312, -0.000976562, -0.000976562, -0.0664062, 0.288086, -9.74316, 1.18.2022 19:19:20.186
599, 1.77822, 0.342108, 81.0576, -0.000976562, 0, -0.000976562, -0.078125, 0.291992, -9.70312, 1.18.2022 19:19:20.194
600, 1.77291, 0.337564, 81.0578, -0.000976562, -0.000976562, 0.000976562, -0.00195312, 0.275391, -9.70215, 1.18.2022 19:19:20.202
601, 1.77822, 0.342108, 81.0576, -0.000976562, -0.000976562, 0.000976562, -0.116211, 0.337891, -9.71973, 1.18.2022 19:19:20.210
602, 1.77822, 0.342108, 81.0576, -0.000976562, 0, -0.000976562, -0.0859375, 0.302734, -9.75879, 1.18.2022 19:19:20.218
603, 1.77291, 0.337564, 81.0578, -0.000976562, 0, -0.000976562, -0.00878906, 0.275391, -9.7041, 1.18.2022 19:19:20.226
604, 1.77291, 0.337564, 81.0578, -0.000976562, -0.000976562, -0.000976562, -0.105469, 0.31543, -9.76562, 1.18.2022 19:19:20.234
605, 1.77291, 0.337564, 81.0578, -0.000976562, -0.000976562, -0.000976562, -0.0546875, 0.290039, -9.73633, 1.18.2022 19:19:20.242
606, 1.77291, 0.337564, 81.0578, -0.000976562, 0, -0.00195312, -0.0537109, 0.296875, -9.71777, 1.18.2022 19:19:20.250
607, 1.77291, 0.337564, 81.0578, -0.000976562, -0.000976562, -0.000976562, -0.0898438, 0.314453, -9.73047, 1.18.2022 19:19:20.258
608, 1.77822, 0.342108, 81.0576, -0.000976562, -0.00195312, -0.000976562, -0.0117188, 0.285156, -9.72559, 1.18.2022 19:19:20.266
609, 1.77822, 0.342108, 81.0576, -0.000976562, 0, 0.000976562, -0.0664062, 0.302734, -9.75, 1.18.2022 19:19:20.274
610, 1.77291, 0.337564, 81.0578, -0.000976562, 0, -0.00195312, -0.0351562, 0.320312, -9.70996, 1.18.2022 19:19:20.282
611, 1.77291, 0.337564, 81.0578, -0.000976562, -0.000976562, -0.000976562, -0.0117188, 0.269531, -9.76367, 1.18.2022 19:19:20.290
612, 1.77291, 0.337564, 81.0578, -0.000976562, -0.000976562, -0.000976562, -0.09375, 0.334961, -9.78223, 1.18.2022 19:19:20.298
613, 1.77291, 0.337564, 81.0578, 0.000976562, -0.000976562, -0.000976562, -0.0283203, 0.319336, -9.73633, 1.18.2022 19:19:20.306
614, 1.77291, 0.337564, 81.0578, -0.000976562, 0, -0.000976562, -0.0498047, 0.3125, -9.75, 1.18.2022 19:19:20.314
615, 1.77291, 0.337564, 81.0578, 0.000976562, -0.000976562, -0.000976562, -0.0839844, 0.310547, -9.76855, 1.18.2022 19:19:20.322
616, 1.77291, 0.337564, 81.0578, 0.000976562, 0, 0.000976562, -0.0117188, 0.266602, -9.73535, 1.18.2022 19:19:20.330
617, 1.77291, 0.337564, 81.0578, -0.000976562, -0.000976562, -0.000976562, -0.078125, 0.288086, -9.72168, 1.18.2022 19:19:20.338
618, 1.77291, 0.337564, 81.0578, -0.000976562, -0.000976562, -0.000976562, -0.0517578, 0.319336, -9.73535, 1.18.2022 19:19:20.346
619, 1.77291, 0.337564, 81.0578, -0.000976562, -0.000976562, -0.000976562, -0.0244141, 0.301758, -9.78906, 1.18.2022 19:19:20.354
620, 1.77268, 0.337659, 81.0586, 0.000976562, -0.000976562, -0.00195312, -0.114258, 0.34375, -9.75781, 1.18.2022 19:19:20.362
621, 1.77268, 0.337659, 81.0586, -0.000976562, -0.000976562, -0.000976562, -0.0439453, 0.308594, -9.70508, 1.18.2022 19:19:20.370
622, 1.77268, 0.337659, 81.0586, -0.000976562, -0.000976562, -0.000976562, -0.0605469, 0.282227, -9.78125, 1.18.2022 19:19:20.378
623, 1.77291, 0.337714, 81.0684, -0.000976562, -0.000976562, 0.000976562, -0.0830078, 0.306641, -9.72852, 1.18.2022 19:19:20.386
624, 1.77291, 0.337714, 81.0684, -0.000976562, 0, -0.000976562, 0.0078125, 0.290039, -9.72363, 1.18.2022 19:19:20.394
625, 1.77291, 0.337714, 81.0684, -0.000976562, -0.000976562, -0.000976562, -0.0439453, 0.275391, -9.78418, 1.18.2022 19:19:20.402
626, 1.77291, 0.337714, 81.0684, -0.000976562, 0, -0.00195312, -0.0419922, 0.30957, -9.72168, 1.18.2022 19:19:20.410
627, 1.77291, 0.337714, 81.0684, -0.000976562, -0.000976562, -0.00195312, -0.0302734, 0.277344, -9.71387, 1.18.2022 19:19:20.418
628, 1.77291, 0.337714, 81.0684, -0.000976562, -0.000976562, -0.000976562, -0.106445, 0.311523, -9.71191, 1.18.2022 19:19:20.426
629, 1.77291, 0.337714, 81.0684, -0.000976562, 0, -0.000976562, -0.0644531, 0.332031, -9.75684, 1.18.2022 19:19:20.434
630, 1.77291, 0.337714, 81.0684, -0.000976562, 0, 0.000976562, -0.0546875, 0.271484, -9.73926, 1.18.2022 19:19:20.442
631, 1.77291, 0.337714, 81.0684, -0.000976562, 0, 0.000976562, -0.0996094, 0.34082, -9.74609, 1.18.2022 19:19:20.450
632, 1.77291, 0.337714, 81.0684, -0.000976562, -0.000976562, -0.000976562, -0.00488281, 0.291992, -9.7793, 1.18.2022 19:19:20.458
633, 1.77291, 0.337714, 81.0684, -0.000976562, 0, 0.000976562, -0.0527344, 0.30957, -9.75, 1.18.2022 19:19:20.466
634, 1.77291, 0.337714, 81.0684, -0.000976562, 0.000976562, 0, -0.0791016, 0.334961, -9.77734, 1.18.2022 19:19:20.474
635, 1.77291, 0.337714, 81.0684, -0.000976562, -0.000976562, -0.00195312, -0.0078125, 0.298828, -9.78418, 1.18.2022 19:19:20.482
636, 1.77291, 0.337714, 81.0684, -0.00195312, 0, -0.000976562, -0.0810547, 0.317383, -9.76172, 1.18.2022 19:19:20.490
637, 1.77291, 0.337714, 81.0684, 0, -0.000976562, -0.000976562, -0.0634766, 0.311523, -9.72363, 1.18.2022 19:19:20.498
638, 1.77291, 0.337714, 81.0684, -0.000976562, -0.000976562, -0.000976562, -0.0439453, 0.287109, -9.70117, 1.18.2022 19:19:20.506
639, 1.77269, 0.337809, 81.0693, -0.000976562, -0.000976562, 0.000976562, -0.116211, 0.288086, -9.74512, 1.18.2022 19:19:20.514
640, 1.77269, 0.337809, 81.0693, -0.000976562, -0.00195312, -0.000976562, 0.00585938, 0.301758, -9.71387, 1.18.2022 19:19:20.522
641, 1.77269, 0.337809, 81.0693, -0.000976562, -0.000976562, -0.000976562, -0.0429688, 0.305664, -9.76465, 1.18.2022 19:19:20.530
642, 1.77269, 0.337809, 81.0693, -0.00195312, 0, -0.00195312, -0.0976562, 0.329102, -9.74609, 1.18.2022 19:19:20.538
643, 1.77292, 0.337864, 81.0791, -0.000976562, -0.000976562, -0.000976562, 0.000976562, 0.290039, -9.72363, 1.18.2022 19:19:20.546
644, 1.77292, 0.337864, 81.0791, 0.000976562, -0.00195312, 0, -0.0976562, 0.328125, -9.72559, 1.18.2022 19:19:20.554
645, 1.77292, 0.337864, 81.0791, -0.000976562, -0.000976562, 0.000976562, -0.0664062, 0.331055, -9.74219, 1.18.2022 19:19:20.562
646, 1.77269, 0.337809, 81.0693, -0.000976562, -0.000976562, -0.000976562, -0.00292969, 0.257812, -9.75488, 1.18.2022 19:19:20.570
647, 1.77269, 0.337809, 81.0693, -0.00195312, 0, -0.000976562, -0.111328, 0.306641, -9.70898, 1.18.2022 19:19:20.578
648, 1.77269, 0.337809, 81.0693, -0.000976562, 0, -0.00195312, -0.0263672, 0.317383, -9.76172, 1.18.2022 19:19:20.586
649, 1.77269, 0.337809, 81.0693, -0.000976562, -0.000976562, -0.00195312, -0.0478516, 0.321289, -9.74023, 1.18.2022 19:19:20.594
650, 1.77269, 0.337809, 81.0693, -0.000976562, -0.000976562, -0.000976562, -0.0947266, 0.314453, -9.7207, 1.18.2022 19:19:20.602
651, 1.77269, 0.337809, 81.0693, 0, -0.000976562, -0.000976562, 0.0166016, 0.28125, -9.74023, 1.18.2022 19:19:20.610
652, 1.77269, 0.337809, 81.0693, -0.000976562, -0.000976562, 0.000976562, -0.0927734, 0.276367, -9.73633, 1.18.2022 19:19:20.618
653, 1.77269, 0.337809, 81.0693, 0.000976562, -0.000976562, 0.000976562, -0.0859375, 0.3125, -9.74219, 1.18.2022 19:19:20.626
654, 1.77291, 0.337714, 81.0684, -0.00195312, -0.000976562, 0.000976562, -0.0410156, 0.28125, -9.7627, 1.18.2022 19:19:20.634
655, 1.77291, 0.337714, 81.0684, -0.000976562, -0.000976562, -0.000976562, -0.119141, 0.331055, -9.73633, 1.18.2022 19:19:20.642
656, 1.77291, 0.337714, 81.0684, -0.000976562, -0.000976562, -0.000976562, -0.0712891, 0.31543, -9.76172, 1.18.2022 19:19:20.650
657, 1.77291, 0.337714, 81.0684, 0, 0, -0.000976562, -0.0361328, 0.277344, -9.78906, 1.18.2022 19:19:20.658
658, 1.77291, 0.337714, 81.0684, -0.000976562, -0.000976562, -0.000976562, -0.0839844, 0.290039, -9.79492, 1.18.2022 19:19:20.666
659, 1.77291, 0.337714, 81.0684, -0.000976562, -0.000976562, -0.00195312, -0.0322266, 0.287109, -9.71289, 1.18.2022 19:19:20.674
660, 1.77268, 0.337659, 81.0586, -0.000976562, -0.000976562, -0.00195312, -0.0810547, 0.304688, -9.7334, 1.18.2022 19:19:20.682
661, 1.77268, 0.337659, 81.0586, 0.000976562, 0, -0.00195312, -0.0898438, 0.331055, -9.72266, 1.18.2022 19:19:20.690
662, 1.77268, 0.337659, 81.0586, 0.000976562, 0, -0.000976562, -0.0166016, 0.317383, -9.75977, 1.18.2022 19:19:20.698
663, 1.77291, 0.337564, 81.0578, -0.000976562, -0.000976562, -0.000976562, -0.0966797, 0.328125, -9.71387, 1.18.2022 19:19:20.706
664, 1.77291, 0.337564, 81.0578, 0, 0, 0.000976562, -0.0400391, 0.311523, -9.71973, 1.18.2022 19:19:20.714
665, 1.77291, 0.337564, 81.0578, 0.000976562, -0.000976562, -0.00195312, -0.0527344, 0.277344, -9.79395, 1.18.2022 19:19:20.722
666, 1.77291, 0.337564, 81.0578, 0.000976562, 0, -0.000976562, -0.0810547, 0.345703, -9.75293, 1.18.2022 19:19:20.730
667, 1.77291, 0.337564, 81.0578, -0.000976562, 0, -0.00195312, -0.0332031, 0.290039, -9.72754, 1.18.2022 19:19:20.738
668, 1.77291, 0.337564, 81.0578, 0.000976562, -0.000976562, -0.000976562, -0.0908203, 0.317383, -9.74219, 1.18.2022 19:19:20.746
669, 1.77291, 0.337564, 81.0578, 0.000976562, -0.000976562, -0.000976562, -0.0732422, 0.333008, -9.72754, 1.18.2022 19:19:20.754
670, 1.77291, 0.337564, 81.0578, -0.000976562, -0.000976562, -0.000976562, -0.0117188, 0.256836, -9.75, 1.18.2022 19:19:20.762
671, 1.77291, 0.337564, 81.0578, -0.000976562, 0, -0.000976562, -0.0908203, 0.295898, -9.74805, 1.18.2022 19:19:20.770
672, 1.77291, 0.337564, 81.0578, 0.000976562, -0.000976562, -0.00195312, -0.0527344, 0.3125, -9.76855, 1.18.2022 19:19:20.778
673, 1.77291, 0.337564, 81.0578, -0.000976562, -0.000976562, -0.00292969, -0.0498047, 0.302734, -9.73828, 1.18.2022 19:19:20.786
674, 1.77291, 0.337564, 81.0578, 0.000976562, 0, -0.00292969, -0.109375, 0.352539, -9.73828, 1.18.2022 19:19:20.794
675, 1.77291, 0.337564, 81.0578, -0.000976562, -0.000976562, -0.00195312, -0.0410156, 0.313477, -9.77344, 1.18.2022 19:19:20.802
676, 1.77291, 0.337564, 81.0578, 0, -0.000976562, 0, -0.0419922, 0.282227, -9.69922, 1.18.2022 19:19:20.810
677, 1.77291, 0.337564, 81.0578, -0.000976562, -0.000976562, -0.000976562, -0.0810547, 0.289062, -9.75293, 1.18.2022 19:19:20.818
678, 1.77291, 0.337564, 81.0578, -0.000976562, 0, -0.000976562, 0.00292969, 0.271484, -9.74219, 1.18.2022 19:19:20.826
679, 1.77291, 0.337564, 81.0578, -0.000976562, -0.000976562, -0.00195312, -0.0742188, 0.308594, -9.7832, 1.18.2022 19:19:20.834
680, 1.77268, 0.337659, 81.0586, -0.000976562, -0.000976562, -0.00195312, -0.0517578, 0.272461, -9.69922, 1.18.2022 19:19:20.842
681, 1.77268, 0.337659, 81.0586, -0.000976562, 0, -0.000976562, -0.0283203, 0.28418, -9.75879, 1.18.2022 19:19:20.850
682, 1.77268, 0.337659, 81.0586, 0.000976562, -0.000976562, -0.00195312, -0.0878906, 0.316406, -9.73242, 1.18.2022 19:19:20.858
683, 1.77291, 0.337714, 81.0684, 0, 0.000976562, -0.000976562, -0.0273438, 0.301758, -9.70605, 1.18.2022 19:19:20.866
684, 1.77291, 0.337714, 81.0684, -0.000976562, 0, -0.000976562, -0.0644531, 0.276367, -9.74609, 1.18.2022 19:19:20.874
685, 1.77291, 0.337714, 81.0684, 0, -0.000976562, 0, -0.0996094, 0.314453, -9.74414, 1.18.2022 19:19:20.882
686, 1.77291, 0.337714, 81.0684, -0.000976562, -0.000976562, -0.000976562, -0.0263672, 0.286133, -9.7373, 1.18.2022 19:19:20.890
687, 1.77291, 0.337714, 81.0684, -0.000976562, -0.000976562, -0.00195312, -0.0693359, 0.291992, -9.79297, 1.18.2022 19:19:20.898
688, 1.77291, 0.337714, 81.0684, -0.00195312, -0.000976562, -0.000976562, -0.0957031, 0.302734, -9.75391, 1.18.2022 19:19:20.906
689, 1.77291, 0.337714, 81.0684, -0.00195312, 0, 0, -0.0283203, 0.273438, -9.72559, 1.18.2022 19:19:20.914
690, 1.77291, 0.337714, 81.0684, -0.000976562, 0, 0.000976562, -0.102539, 0.297852, -9.73047, 1.18.2022 19:19:20.922
691, 1.77291, 0.337714, 81.0684, -0.00195312, -0.000976562, 0, -0.0546875, 0.294922, -9.73828, 1.18.2022 19:19:20.930
692, 1.77291, 0.337714, 81.0684, -0.000976562, 0, 0, -0.0478516, 0.293945, -9.76758, 1.18.2022 19:19:20.938
693, 1.77291, 0.337714, 81.0684, -0.000976562, 0, 0, -0.0859375, 0.292969, -9.74805, 1.18.2022 19:19:20.946
694, 1.77291, 0.337714, 81.0684, 0, 0, 0, -0.0263672, 0.290039, -9.73438, 1.18.2022 19:19:20.954
695, 1.77268, 0.337659, 81.0586, -0.000976562, -0.000976562, 0, -0.0595703, 0.27832, -9.72266, 1.18.2022 19:19:20.962
696, 1.77268, 0.337659, 81.0586, -0.000976562, -0.000976562, 0, -0.0712891, 0.317383, -9.76172, 1.18.2022 19:19:20.970
697, 1.77291, 0.337564, 81.0578, -0.000976562, -0.000976562, 0.000976562, 0, 0.302734, -9.75391, 1.18.2022 19:19:20.978
698, 1.77291, 0.337564, 81.0578, 0, 0, 0, -0.0947266, 0.307617, -9.7373, 1.18.2022 19:19:20.986
699, 1.77291, 0.337564, 81.0578, 0, 0.000976562, 0, -0.0566406, 0.294922, -9.72656, 1.18.2022 19:19:20.994
700, 1.77291, 0.337564, 81.0578, 0, 0, 0, -0.0146484, 0.286133, -9.76074, 1.18.2022 19:19:21.002
701, 1.77291, 0.337564, 81.0578, -0.000976562, 0, 0, -0.109375, 0.336914, -9.75098, 1.18.2022 19:19:21.010
702, 1.77291, 0.337564, 81.0578, -0.000976562, -0.000976562, 0, -0.0302734, 0.324219, -9.74023, 1.18.2022 19:19:21.018
703, 1.77291, 0.337564, 81.0578, 0, -0.000976562, 0, -0.0517578, 0.304688, -9.7168, 1.18.2022 19:19:21.026
704, 1.7729, 0.337413, 81.0472, 0, -0.000976562, 0, -0.0849609, 0.296875, -9.70312, 1.18.2022 19:19:21.034
705, 1.7729, 0.337413, 81.0472, -0.000976562, -0.000976562, -0.000976562, -0.0136719, 0.260742, -9.7168, 1.18.2022 19:19:21.042
706, 1.7729, 0.337413, 81.0472, 0, -0.000976562, -0.000976562, -0.110352, 0.325195, -9.77441, 1.18.2022 19:19:21.050
707, 1.7729, 0.337413, 81.0472, 0, -0.000976562, 0, -0.0517578, 0.335938, -9.7207, 1.18.2022 19:19:21.058
708, 1.7729, 0.337413, 81.0472, 0, -0.000976562, 0, -0.0214844, 0.30957, -9.73926, 1.18.2022 19:19:21.066
709, 1.77313, 0.337318, 81.0464, 0, 0, 0, -0.106445, 0.319336, -9.73047, 1.18.2022 19:19:21.074
710, 1.77289, 0.337263, 81.0366, -0.000976562, 0.000976562, 0, -0.015625, 0.303711, -9.69434, 1.18.2022 19:19:21.082
711, 1.77289, 0.337263, 81.0366, 0, -0.000976562, 0, -0.0712891, 0.285156, -9.73145, 1.18.2022 19:19:21.090
712, 1.77289, 0.337263, 81.0366, -0.000976562, 0, 0, -0.0878906, 0.319336, -9.74707, 1.18.2022 19:19:21.098
713, 1.77289, 0.337263, 81.0366, -0.000976562, 0, -0.000976562, -0.0175781, 0.291992, -9.69434, 1.18.2022 19:19:21.106
714, 1.77289, 0.337263, 81.0366, -0.00195312, 0, 0, -0.102539, 0.325195, -9.75879, 1.18.2022 19:19:21.112
715, 1.77289, 0.337263, 81.0366, -0.00195312, -0.000976562, 0, -0.0859375, 0.296875, -9.77832, 1.18.2022 19:19:21.120
716, 1.77289, 0.337263, 81.0366, 0, -0.000976562, 0, -0.0566406, 0.271484, -9.74414, 1.18.2022 19:19:21.128
717, 1.77289, 0.337263, 81.0366, 0, 0, -0.000976562, -0.106445, 0.282227, -9.69824, 1.18.2022 19:19:21.136
718, 1.77289, 0.337263, 81.0366, 0, -0.000976562, -0.000976562, -0.0498047, 0.305664, -9.75977, 1.18.2022 19:19:21.144
719, 1.77289, 0.337263, 81.0366, 0, 0, -0.000976562, -0.0595703, 0.324219, -9.74219, 1.18.2022 19:19:21.152
720, 1.7678, 0.332624, 81.0359, -0.000976562, -0.000976562, 0, -0.0957031, 0.350586, -9.75781, 1.18.2022 19:19:21.160
721, 1.77312, 0.337167, 81.0357, 0, -0.000976562, 0, 0.00585938, 0.323242, -9.71973, 1.18.2022 19:19:21.168
722, 1.77312, 0.337167, 81.0357, 0, -0.000976562, 0, -0.078125, 0.297852, -9.72656, 1.18.2022 19:19:21.176
723, 1.77312, 0.337167, 81.0357, -0.000976562, 0, 0, -0.0615234, 0.301758, -9.70996, 1.18.2022 19:19:21.184
724, 1.7678, 0.332624, 81.0359, 0, 0, 0, -0.00878906, 0.280273, -9.71191, 1.18.2022 19:19:21.192
725, 1.7678, 0.332624, 81.0359, -0.000976562, 0, -0.000976562, -0.120117, 0.318359, -9.78223, 1.18.2022 19:19:21.200
726, 1.77312, 0.337167, 81.0357, -0.00195312, -0.000976562, 0, -0.0302734, 0.299805, -9.71973, 1.18.2022 19:19:21.208
727, 1.77312, 0.337167, 81.0357, -0.000976562, -0.000976562, 0.000976562, -0.0380859, 0.264648, -9.74902, 1.18.2022 19:19:21.216
728, 1.77312, 0.337167, 81.0357, -0.000976562, -0.000976562, 0, -0.0878906, 0.326172, -9.72754, 1.18.2022 19:19:21.224
729, 1.77312, 0.337167, 81.0357, -0.00195312, -0.00195312, 0, -0.0117188, 0.282227, -9.76855, 1.18.2022 19:19:21.232
730, 1.77312, 0.337167, 81.0357, -0.000976562, -0.000976562, 0, -0.0595703, 0.305664, -9.74805, 1.18.2022 19:19:21.240
731, 1.77312, 0.337167, 81.0357, -0.000976562, 0, 0, -0.0664062, 0.326172, -9.72363, 1.18.2022 19:19:21.248
732, 1.77312, 0.337167, 81.0357, -0.00195312, -0.000976562, 0, -0.0117188, 0.292969, -9.73242, 1.18.2022 19:19:21.256
733, 1.77312, 0.337167, 81.0357, -0.000976562, -0.000976562, 0, -0.0927734, 0.305664, -9.74707, 1.18.2022 19:19:21.264
734, 1.77289, 0.337263, 81.0366, -0.000976562, 0, -0.000976562, -0.0380859, 0.302734, -9.75781, 1.18.2022 19:19:21.272
735, 1.77289, 0.337263, 81.0366, 0, 0, 0, -0.0283203, 0.276367, -9.73926, 1.18.2022 19:19:21.280
736, 1.77289, 0.337263, 81.0366, -0.000976562, -0.000976562, 0, -0.102539, 0.308594, -9.77344, 1.18.2022 19:19:21.288
737, 1.77289, 0.337263, 81.0366, 0, 0, 0, -0.00585938, 0.291992, -9.69727, 1.18.2022 19:19:21.296
738, 1.77289, 0.337263, 81.0366, 0, -0.000976562, 0, -0.0615234, 0.296875, -9.72461, 1.18.2022 19:19:21.304
739, 1.77289, 0.337263, 81.0366, -0.000976562, -0.000976562, 0, -0.0878906, 0.311523, -9.72363, 1.18.2022 19:19:21.312
740, 1.77289, 0.337263, 81.0366, -0.000976562, -0.000976562, 0.000976562, -0.0078125, 0.272461, -9.78027, 1.18.2022 19:19:21.320
741, 1.77289, 0.337263, 81.0366, 0, -0.000976562, -0.000976562, -0.0722656, 0.28418, -9.76953, 1.18.2022 19:19:21.328
742, 1.77289, 0.337263, 81.0366, -0.000976562, -0.000976562, 0, -0.0673828, 0.300781, -9.77148, 1.18.2022 19:19:21.336
743, 1.77289, 0.337263, 81.0366, 0, 0, 0, -0.0351562, 0.28125, -9.73242, 1.18.2022 19:19:21.344
744, 1.77289, 0.337263, 81.0366, -0.000976562, -0.000976562, -0.000976562, -0.101562, 0.3125, -9.68359, 1.18.2022 19:19:21.352
745, 1.77289, 0.337263, 81.0366, 0, -0.000976562, 0, -0.0400391, 0.294922, -9.71777, 1.18.2022 19:19:21.360
746, 1.77313, 0.337318, 81.0464, 0, -0.000976562, 0, -0.0693359, 0.298828, -9.77148, 1.18.2022 19:19:21.368
747, 1.77313, 0.337318, 81.0464, 0, -0.000976562, -0.000976562, -0.0771484, 0.322266, -9.69043, 1.18.2022 19:19:21.376
748, 1.7729, 0.337413, 81.0472, 0, -0.000976562, -0.000976562, 0, 0.258789, -9.72656, 1.18.2022 19:19:21.384
749, 1.7729, 0.337413, 81.0472, -0.000976562, -0.00195312, 0, -0.0742188, 0.302734, -9.75684, 1.18.2022 19:19:21.392
750, 1.7729, 0.337413, 81.0472, -0.000976562, 0, 0, -0.0693359, 0.3125, -9.74512, 1.18.2022 19:19:21.400
751, 1.7729, 0.337413, 81.0472, -0.000976562, 0, 0, -0.0234375, 0.268555, -9.7168, 1.18.2022 19:19:21.408
752, 1.7729, 0.337413, 81.0472, -0.000976562, -0.000976562, 0, -0.114258, 0.323242, -9.71777, 1.18.2022 19:19:21.416
753, 1.7729, 0.337413, 81.0472, -0.000976562, -0.000976562, 0, -0.0205078, 0.317383, -9.68457, 1.18.2022 19:19:21.424
754, 1.7729, 0.337413, 81.0472, -0.000976562, 0, 0, -0.0332031, 0.302734, -9.75977, 1.18.2022 19:19:21.432
755, 1.7729, 0.337413, 81.0472, -0.000976562, -0.000976562, 0, -0.0869141, 0.321289, -9.70898, 1.18.2022 19:19:21.440
756, 1.7729, 0.337413, 81.0472, 0, -0.000976562, 0, -0.00683594, 0.30957, -9.74414, 1.18.2022 19:19:21.448
757, 1.7729, 0.337413, 81.0472, -0.000976562, 0, 0, -0.0761719, 0.317383, -9.74512, 1.18.2022 19:19:21.456
758, 1.7729, 0.337413, 81.0472, -0.000976562, 0, 0, -0.0712891, 0.303711, -9.76172, 1.18.2022 19:19:21.464
759, 1.7729, 0.337413, 81.0472, -0.000976562, -0.000976562, 0, -0.0234375, 0.291016, -9.75098, 1.18.2022 19:19:21.472
760, 1.7729, 0.337413, 81.0472, 0, 0, 0, -0.112305, 0.305664, -9.74414, 1.18.2022 19:19:21.480
761, 1.7729, 0.337413, 81.0472, -0.000976562, 0, 0.000976562, -0.0322266, 0.280273, -9.71094, 1.18.2022 19:19:21.488
762, 1.7729, 0.337413, 81.0472, 0, -0.000976562, 0, -0.0136719, 0.27832, -9.71582, 1.18.2022 19:19:21.496
763, 1.7729, 0.337413, 81.0472, -0.000976562, 0, 0, -0.114258, 0.322266, -9.75098, 1.18.2022 19:19:21.504
764, 1.7729, 0.337413, 81.0472, -0.000976562, 0, 0, -0.046875, 0.289062, -9.70312, 1.18.2022 19:19:21.512
765, 1.7729, 0.337413, 81.0472, -0.00195312, -0.000976562, 0, -0.0732422, 0.321289, -9.72559, 1.18.2022 19:19:21.520
766, 1.7729, 0.337413, 81.0472, -0.00195312, -0.000976562, 0, -0.109375, 0.342773, -9.73145, 1.18.2022 19:19:21.528
767, 1.7729, 0.337413, 81.0472, -0.00195312, -0.000976562, 0, -0.00976562, 0.27832, -9.74414, 1.18.2022 19:19:21.536
768, 1.7729, 0.337413, 81.0472, -0.000976562, -0.000976562, 0, -0.0878906, 0.319336, -9.73535, 1.18.2022 19:19:21.544
769, 1.7729, 0.337413, 81.0472, 0, -0.000976562, 0, -0.0683594, 0.299805, -9.73633, 1.18.2022 19:19:21.552
770, 1.7729, 0.337413, 81.0472, 0, 0, 0, -0.0400391, 0.300781, -9.74805, 1.18.2022 19:19:21.560
771, 1.7729, 0.337413, 81.0472, -0.000976562, -0.000976562, 0, -0.0957031, 0.3125, -9.75195, 1.18.2022 19:19:21.568
772, 1.7729, 0.337413, 81.0472, -0.000976562, -0.000976562, 0, 0.0146484, 0.270508, -9.70996, 1.18.2022 19:19:21.576
773, 1.7729, 0.337413, 81.0472, -0.000976562, -0.000976562, 0, -0.0566406, 0.292969, -9.74316, 1.18.2022 19:19:21.584
774, 1.7729, 0.337413, 81.0472, -0.000976562, -0.00195312, 0, -0.0810547, 0.319336, -9.74902, 1.18.2022 19:19:21.592
775, 1.77313, 0.337318, 81.0464, -0.000976562, -0.000976562, 0, -0.0117188, 0.28125, -9.75195, 1.18.2022 19:19:21.600
776, 1.77313, 0.337318, 81.0464, -0.000976562, -0.000976562, 0, -0.0947266, 0.296875, -9.72168, 1.18.2022 19:19:21.608
777, 1.77289, 0.337263, 81.0366, -0.00195312, -0.000976562, 0, -0.0546875, 0.329102, -9.75684, 1.18.2022 19:19:21.616
778, 1.77289, 0.337263, 81.0366, -0.000976562, -0.000976562, 0, -0.0263672, 0.307617, -9.74121, 1.18.2022 19:19:21.624
779, 1.77289, 0.337263, 81.0366, -0.00195312, 0, 0, -0.114258, 0.317383, -9.75586, 1.18.2022 19:19:21.632
780, 1.77289, 0.337263, 81.0366, -0.000976562, 0, 0, -0.015625, 0.290039, -9.7207, 1.18.2022 19:19:21.640
781, 1.77289, 0.337263, 81.0366, -0.000976562, -0.000976562, 0, -0.03125, 0.292969, -9.74121, 1.18.2022 19:19:21.648
782, 1.77821, 0.341806, 81.0364, -0.000976562, -0.00195312, 0, -0.114258, 0.293945, -9.75684, 1.18.2022 19:19:21.656
783, 1.77821, 0.341806, 81.0364, -0.000976562, 0, 0.000976562, -0.0253906, 0.306641, -9.70312, 1.18.2022 19:19:21.664
784, 1.77821, 0.341806, 81.0364, -0.000976562, -0.000976562, 0, -0.0830078, 0.3125, -9.74219, 1.18.2022 19:19:21.672
785, 1.77821, 0.341806, 81.0364, -0.000976562, -0.000976562, -0.000976562, -0.0644531, 0.326172, -9.74512, 1.18.2022 19:19:21.680
786, 1.77821, 0.341806, 81.0364, 0, 0, -0.000976562, -0.0332031, 0.282227, -9.77051, 1.18.2022 19:19:21.688
787, 1.77821, 0.341806, 81.0364, -0.00195312, -0.000976562, -0.000976562, -0.0800781, 0.313477, -9.7168, 1.18.2022 19:19:21.696
788, 1.78275, 0.33649, 81.0364, -0.000976562, -0.000976562, -0.000976562, -0.0253906, 0.306641, -9.72461, 1.18.2022 19:19:21.704
789, 1.77821, 0.341806, 81.0364, -0.000976562, -0.000976562, -0.000976562, -0.0449219, 0.295898, -9.75293, 1.18.2022 19:19:21.712
790, 1.77821, 0.341806, 81.0364, -0.000976562, -0.000976562, -0.000976562, -0.0869141, 0.301758, -9.7002, 1.18.2022 19:19:21.720
791, 1.78275, 0.33649, 81.0364, -0.000976562, 0, -0.000976562, 0.00976562, 0.296875, -9.72559, 1.18.2022 19:19:21.728
792, 1.77843, 0.34171, 81.0356, 0.000976562, -0.000976562, -0.000976562, -0.0761719, 0.292969, -9.72656, 1.18.2022 19:19:21.736
793, 1.77843, 0.34171, 81.0356, -0.000976562, -0.000976562, -0.000976562, -0.0927734, 0.283203, -9.74512, 1.18.2022 19:19:21.744
794, 1.77843, 0.34171, 81.0356, 0.000976562, 0, -0.000976562, -0.0205078, 0.256836, -9.71875, 1.18.2022 19:19:21.752
795, 1.77312, 0.337167, 81.0357, -0.000976562, -0.000976562, -0.000976562, -0.0927734, 0.297852, -9.73535, 1.18.2022 19:19:21.760
796, 1.7782, 0.341656, 81.0258, -0.00195312, -0.000976562, -0.000976562, -0.0449219, 0.319336, -9.74512, 1.18.2022 19:19:21.768
797, 1.7782, 0.341656, 81.0258, -0.000976562, -0.000976562, -0.000976562, -0.0615234, 0.303711, -9.70312, 1.18.2022 19:19:21.776
798, 1.7782, 0.341656, 81.0258, 0.000976562, -0.000976562, -0.000976562, -0.0986328, 0.308594, -9.69238, 1.18.2022 19:19:21.784
799, 1.7782, 0.341656, 81.0258, -0.000976562, -0.000976562, -0.000976562, -0.0146484, 0.291016, -9.76562, 1.18.2022 19:19:21.792
800, 1.7782, 0.341656, 81.0258, -0.000976562, -0.000976562, -0.000976562, -0.0722656, 0.274414, -9.76953, 1.18.2022 19:19:21.800
801, 1.7782, 0.341656, 81.0258, 0, 0, -0.000976562, -0.0634766, 0.321289, -9.72852, 1.18.2022 19:19:21.808
802, 1.7782, 0.341656, 81.0258, -0.000976562, -0.000976562, -0.000976562, -0.0234375, 0.280273, -9.72754, 1.18.2022 19:19:21.816
803, 1.7782, 0.341656, 81.0258, -0.000976562, -0.000976562, -0.000976562, -0.125977, 0.327148, -9.7627, 1.18.2022 19:19:21.824
804, 1.7782, 0.341656, 81.0258, 0, 0, -0.000976562, -0.0517578, 0.347656, -9.74219, 1.18.2022 19:19:21.832
805, 1.7782, 0.341656, 81.0258, -0.000976562, -0.000976562, -0.000976562, -0.0332031, 0.280273, -9.73242, 1.18.2022 19:19:21.840
806, 1.77843, 0.34171, 81.0356, -0.000976562, -0.000976562, -0.000976562, -0.108398, 0.316406, -9.70898, 1.18.2022 19:19:21.848
807, 1.77843, 0.34171, 81.0356, -0.000976562, -0.000976562, -0.00195312, -0.0146484, 0.289062, -9.76074, 1.18.2022 19:19:21.856
808, 1.77843, 0.34171, 81.0356, -0.000976562, 0, -0.000976562, -0.0712891, 0.277344, -9.71094, 1.18.2022 19:19:21.864
809, 1.77312, 0.337167, 81.0357, -0.000976562, -0.000976562, -0.000976562, -0.0683594, 0.313477, -9.7002, 1.18.2022 19:19:21.872
810, 1.77821, 0.341806, 81.0364, -0.000976562, -0.000976562, -0.000976562, -0.0146484, 0.302734, -9.76465, 1.18.2022 19:19:21.880
811, 1.77289, 0.337263, 81.0366, -0.000976562, 0, -0.00195312, -0.0908203, 0.329102, -9.75098, 1.18.2022 19:19:21.888
812, 1.77289, 0.337263, 81.0366, 0, 0, -0.000976562, -0.0380859, 0.3125, -9.73828, 1.18.2022 19:19:21.896
813, 1.77289, 0.337263, 81.0366, 0, -0.000976562, 0.000976562, -0.0380859, 0.3125, -9.76465, 1.18.2022 19:19:21.904
814, 1.77289, 0.337263, 81.0366, -0.000976562, -0.000976562, -0.00195312, -0.130859, 0.316406, -9.73242, 1.18.2022 19:19:21.912
815, 1.77289, 0.337263, 81.0366, 0.000976562, 0, -0.000976562, -0.0175781, 0.313477, -9.69434, 1.18.2022 19:19:21.920
816, 1.77289, 0.337263, 81.0366, -0.00195312, -0.000976562, -0.000976562, -0.0302734, 0.296875, -9.71973, 1.18.2022 19:19:21.928
817, 1.77289, 0.337263, 81.0366, -0.000976562, -0.000976562, -0.00195312, -0.0830078, 0.324219, -9.74902, 1.18.2022 19:19:21.936
818, 1.77767, 0.332002, 81.0464, -0.000976562, 0, 0, 0, 0.292969, -9.75391, 1.18.2022 19:19:21.944
819, 1.77767, 0.332002, 81.0464, 0.000976562, -0.000976562, 0, -0.0644531, 0.305664, -9.77344, 1.18.2022 19:19:21.952
820, 1.7729, 0.337413, 81.0472, 0.000976562, -0.000976562, 0, -0.0498047, 0.319336, -9.73535, 1.18.2022 19:19:21.960
821, 1.7729, 0.337413, 81.0472, 0.000976562, 0, 0, -0.0693359, 0.276367, -9.75586, 1.18.2022 19:19:21.968
822, 1.7729, 0.337413, 81.0472, -0.000976562, 0, 0.000976562, -0.116211, 0.294922, -9.72559, 1.18.2022 19:19:21.976
823, 1.7729, 0.337413, 81.0472, -0.000976562, 0, 0, -0.0185547, 0.287109, -9.70898, 1.18.2022 19:19:21.984
824, 1.77744, 0.332098, 81.0472, -0.000976562, 0, -0.000976562, -0.0449219, 0.30957, -9.73828, 1.18.2022 19:19:21.992
825, 1.77744, 0.332098, 81.0472, 0.000976562, -0.000976562, -0.00195312, -0.0976562, 0.352539, -9.73145, 1.18.2022 19:19:22.000
826, 1.77744, 0.332098, 81.0472, -0.000976562, -0.000976562, 0, -0.0361328, 0.300781, -9.75781, 1.18.2022 19:19:22.008
827, 1.77744, 0.332098, 81.0472, -0.000976562, -0.000976562, 0, -0.0966797, 0.291992, -9.71191, 1.18.2022 19:19:22.016
828, 1.7729, 0.337413, 81.0472, 0.000976562, -0.000976562, 0.000976562, -0.0839844, 0.289062, -9.77637, 1.18.2022 19:19:22.024
829, 1.7729, 0.337413, 81.0472, -0.000976562, -0.000976562, 0.000976562, -0.0351562, 0.296875, -9.71777, 1.18.2022 19:19:22.032
830, 1.77313, 0.337318, 81.0464, -0.000976562, -0.000976562, 0, -0.126953, 0.318359, -9.77246, 1.18.2022 19:19:22.040
831, 1.77313, 0.337318, 81.0464, -0.00195312, -0.000976562, 0, -0.03125, 0.31543, -9.77637, 1.18.2022 19:19:22.048
832, 1.77313, 0.337318, 81.0464, -0.00195312, -0.000976562, -0.000976562, -0.0136719, 0.301758, -9.7207, 1.18.2022 19:19:22.056
833, 1.77744, 0.332098, 81.0472, -0.000976562, 0, 0, -0.0810547, 0.300781, -9.74805, 1.18.2022 19:19:22.064
834, 1.77744, 0.332098, 81.0472, -0.000976562, -0.000976562, -0.00195312, 0.0126953, 0.273438, -9.72852, 1.18.2022 19:19:22.072
835, 1.77744, 0.332098, 81.0472, -0.000976562, -0.000976562, 0, -0.0458984, 0.286133, -9.76465, 1.18.2022 19:19:22.080
836, 1.77744, 0.332098, 81.0472, -0.00195312, -0.000976562, 0, -0.0800781, 0.301758, -9.72363, 1.18.2022 19:19:22.086
837, 1.77744, 0.332098, 81.0472, -0.000976562, -0.000976562, 0.000976562, 0.00195312, 0.28125, -9.76562, 1.18.2022 19:19:22.094
838, 1.77744, 0.332098, 81.0472, -0.000976562, -0.000976562, 0, -0.0966797, 0.311523, -9.71875, 1.18.2022 19:19:22.102
839, 1.77744, 0.332098, 81.0472, 0.000976562, 0, -0.000976562, -0.0488281, 0.316406, -9.70703, 1.18.2022 19:19:22.110
840, 1.77744, 0.332098, 81.0472, 0.000976562, 0, -0.000976562, -0.0634766, 0.313477, -9.71875, 1.18.2022 19:19:22.118
841, 1.77744, 0.332098, 81.0472, 0.000976562, -0.000976562, -0.00195312, -0.112305, 0.331055, -9.74414, 1.18.2022 19:19:22.126
842, 1.7729, 0.337413, 81.0472, 0.000976562, -0.000976562, 0, -0.0234375, 0.307617, -9.74316, 1.18.2022 19:19:22.134
843, 1.7729, 0.337413, 81.0472, -0.000976562, -0.000976562, 0, -0.0488281, 0.296875, -9.70312, 1.18.2022 19:19:22.142
844, 1.7729, 0.337413, 81.0472, -0.000976562, -0.000976562, 0.000976562, -0.0966797, 0.323242, -9.69922, 1.18.2022 19:19:22.150
845, 1.7729, 0.337413, 81.0472, -0.000976562, -0.000976562, 0, -0.0292969, 0.277344, -9.77539, 1.18.2022 19:19:22.158
846, 1.7729, 0.337413, 81.0472, -0.000976562, 0.000976562, 0, -0.0947266, 0.292969, -9.73535, 1.18.2022 19:19:22.166
847, 1.7729, 0.337413, 81.0472, 0.000976562, -0.000976562, 0.000976562, -0.0556641, 0.294922, -9.79492, 1.18.2022 19:19:22.174
848, 1.7729, 0.337413, 81.0472, -0.000976562, -0.00195312, 0, -0.0332031, 0.307617, -9.75977, 1.18.2022 19:19:22.182
849, 1.7729, 0.337413, 81.0472, -0.000976562, -0.000976562, -0.00195312, -0.107422, 0.333984, -9.75293, 1.18.2022 19:19:22.190
850, 1.7729, 0.337413, 81.0472, -0.000976562, -0.000976562, -0.00195312, 0, 0.3125, -9.75781, 1.18.2022 19:19:22.198
851, 1.7729, 0.337413, 81.0472, -0.000976562, -0.000976562, -0.00195312, -0.0712891, 0.307617, -9.74512, 1.18.2022 19:19:22.206
852, 1.7729, 0.337413, 81.0472, -0.000976562, 0, 0, -0.102539, 0.28418, -9.77637, 1.18.2022 19:19:22.214
853, 1.7729, 0.337413, 81.0472, -0.000976562, 0, 0.000976562, 0.00292969, 0.27832, -9.74023, 1.18.2022 19:19:22.222
854, 1.7729, 0.337413, 81.0472, 0, -0.000976562, 0, -0.104492, 0.307617, -9.75879, 1.18.2022 19:19:22.230
855, 1.7729, 0.337413, 81.0472, -0.000976562, 0, -0.000976562, -0.0742188, 0.338867, -9.76074, 1.18.2022 19:19:22.238
856, 1.77744, 0.332098, 81.0472, -0.000976562, 0, 0, -0.0576172, 0.28418, -9.7627, 1.18.2022 19:19:22.246
857, 1.77744, 0.332098, 81.0472, 0, 0, 0, -0.135742, 0.299805, -9.73535, 1.18.2022 19:19:22.254
858, 1.77744, 0.332098, 81.0472, -0.000976562, -0.000976562, 0, -0.0595703, 0.307617, -9.74023, 1.18.2022 19:19:22.262
859, 1.77744, 0.332098, 81.0472, -0.000976562, -0.000976562, 0, -0.0761719, 0.305664, -9.77344, 1.18.2022 19:19:22.270
860, 1.77744, 0.332098, 81.0472, -0.000976562, 0, 0, -0.104492, 0.314453, -9.74707, 1.18.2022 19:19:22.278
861, 1.77744, 0.332098, 81.0472, -0.000976562, -0.000976562, 0, 0.0078125, 0.283203, -9.73535, 1.18.2022 19:19:22.286
862, 1.77744, 0.332098, 81.0472, -0.00195312, -0.000976562, 0, -0.0566406, 0.285156, -9.71777, 1.18.2022 19:19:22.294
863, 1.77744, 0.332098, 81.0472, -0.000976562, -0.000976562, 0, -0.078125, 0.318359, -9.70898, 1.18.2022 19:19:22.302
864, 1.77744, 0.332098, 81.0472, -0.000976562, -0.000976562, -0.00195312, -0.0136719, 0.290039, -9.71582, 1.18.2022 19:19:22.310
865, 1.77744, 0.332098, 81.0472, 0, 0, 0, -0.0908203, 0.298828, -9.76855, 1.18.2022 19:19:22.318
866, 1.77744, 0.332098, 81.0472, -0.000976562, 0, 0, -0.0449219, 0.300781, -9.75488, 1.18.2022 19:19:22.326
867, 1.77744, 0.332098, 81.0472, -0.000976562, -0.000976562, 0, -0.0234375, 0.311523, -9.72461, 1.18.2022 19:19:22.334
868, 1.77744, 0.332098, 81.0472, -0.000976562, -0.000976562, 0, -0.114258, 0.319336, -9.74414, 1.18.2022 19:19:22.342
869, 1.77744, 0.332098, 81.0472, -0.000976562, 0, 0, -0.0166016, 0.28125, -9.73926, 1.18.2022 19:19:22.350
870, 1.77744, 0.332098, 81.0472, -0.000976562, -0.000976562, 0, -0.0791016, 0.302734, -9.75977, 1.18.2022 19:19:22.358
871, 1.77744, 0.332098, 81.0472, 0, 0, 0, -0.0585938, 0.330078, -9.70703, 1.18.2022 19:19:22.366
872, 1.77744, 0.332098, 81.0472, 0, 0, -0.00195312, 0.00585938, 0.285156, -9.71875, 1.18.2022 19:19:22.374
873, 1.77744, 0.332098, 81.0472, -0.000976562, 0, 0, -0.124023, 0.320312, -9.76074, 1.18.2022 19:19:22.382
874, 1.77744, 0.332098, 81.0472, -0.000976562, 0, 0, -0.0429688, 0.324219, -9.75195, 1.18.2022 19:19:22.390
875, 1.77744, 0.332098, 81.0472, 0, -0.000976562, 0, -0.0410156, 0.285156, -9.7959, 1.18.2022 19:19:22.398
876, 1.77744, 0.332098, 81.0472, -0.000976562, 0, 0, -0.114258, 0.302734, -9.73242, 1.18.2022 19:19:22.406
877, 1.77744, 0.332098, 81.0472, -0.000976562, -0.000976562, -0.00195312, -0.0410156, 0.291992, -9.80273, 1.18.2022 19:19:22.414
878, 1.77744, 0.332098, 81.0472, -0.000976562, 0, -0.00292969, -0.100586, 0.274414, -9.75, 1.18.2022 19:19:22.422
879, 1.77744, 0.332098, 81.0472, -0.000976562, 0, -0.000976562, -0.0947266, 0.345703, -9.74121, 1.18.2022 19:19:22.430
880, 1.77744, 0.332098, 81.0472, -0.00195312, -0.00195312, -0.00195312, -0.0195312, 0.295898, -9.77246, 1.18.2022 19:19:22.438
881, 1.77744, 0.332098, 81.0472, -0.00195312, 0, 0, -0.0859375, 0.337891, -9.78711, 1.18.2022 19:19:22.446
882, 1.77744, 0.332098, 81.0472, -0.000976562, 0, 0, -0.0595703, 0.291016, -9.7666, 1.18.2022 19:19:22.454
883, 1.77767, 0.332002, 81.0464, 0, -0.000976562, 0, -0.0439453, 0.283203, -9.79785, 1.18.2022 19:19:22.462
884, 1.77767, 0.332002, 81.0464, 0, 0, 0, -0.119141, 0.3125, -9.73242, 1.18.2022 19:19:22.470
885, 1.77743, 0.331947, 81.0366, -0.000976562, 0, 0, -0.00195312, 0.267578, -9.70996, 1.18.2022 19:19:22.478
886, 1.77743, 0.331947, 81.0366, -0.000976562, -0.000976562, 0, -0.0839844, 0.300781, -9.76367, 1.18.2022 19:19:22.486
887, 1.77743, 0.331947, 81.0366, -0.000976562, 0, 0, -0.107422, 0.330078, -9.78223, 1.18.2022 19:19:22.494
888, 1.77743, 0.331947, 81.0366, -0.000976562, 0, 0, 0.000976562, 0.290039, -9.70898, 1.18.2022 19:19:22.502
889, 1.77743, 0.331947, 81.0366, -0.000976562, -0.000976562, 0, -0.0996094, 0.303711, -9.69727, 1.18.2022 19:19:22.510
890, 1.77743, 0.331947, 81.0366, -0.000976562, 0, 0, -0.0830078, 0.311523, -9.73047, 1.18.2022 19:19:22.518
891, 1.77743, 0.331947, 81.0366, -0.00195312, -0.000976562, 0.000976562, -0.0361328, 0.28418, -9.76562, 1.18.2022 19:19:22.526
892, 1.77743, 0.331947, 81.0366, -0.000976562, 0, 0, -0.137695, 0.326172, -9.73926, 1.18.2022 19:19:22.534
893, 1.77766, 0.331851, 81.0358, -0.00195312, -0.000976562, -0.000976562, -0.0263672, 0.295898, -9.77441, 1.18.2022 19:19:22.542
894, 1.77766, 0.331851, 81.0358, -0.000976562, -0.000976562, -0.000976562, -0.0576172, 0.306641, -9.79004, 1.18.2022 19:19:22.550
895, 1.77766, 0.331851, 81.0358, 0, -0.000976562, -0.000976562, -0.101562, 0.308594, -9.71191, 1.18.2022 19:19:22.558
896, 1.78298, 0.336394, 81.0356, -0.000976562, -0.00195312, 0, -0.0361328, 0.28125, -9.75391, 1.18.2022 19:19:22.566
897, 1.78298, 0.336394, 81.0356, -0.000976562, -0.000976562, 0, -0.0878906, 0.291016, -9.75684, 1.18.2022 19:19:22.574
898, 1.78298, 0.336394, 81.0356, 0, -0.00195312, 0, -0.0800781, 0.287109, -9.69336, 1.18.2022 19:19:22.582
899, 1.78298, 0.336394, 81.0356, -0.000976562, -0.00195312, 0, -0.015625, 0.279297, -9.69922, 1.18.2022 19:19:22.590
900, 1.7782, 0.341656, 81.0258, -0.000976562, -0.00195312, 0, -0.107422, 0.335938, -9.74414, 1.18.2022 19:19:22.598
901, 1.7782, 0.341656, 81.0258, 0, -0.000976562, 0, -0.0537109, 0.306641, -9.71484, 1.18.2022 19:19:22.606
902, 1.7782, 0.341656, 81.0258, 0, 0, 0, -0.0205078, 0.28418, -9.70215, 1.18.2022 19:19:22.614
903, 1.7782, 0.341656, 81.0258, -0.000976562, 0, 0, -0.0957031, 0.334961, -9.76562, 1.18.2022 19:19:22.622
904, 1.7782, 0.341656, 81.0258, 0, 0, 0, -0.0214844, 0.271484, -9.72852, 1.18.2022 19:19:22.630
905, 1.7782, 0.341656, 81.0258, -0.000976562, 0, 0, -0.0361328, 0.295898, -9.76953, 1.18.2022 19:19:22.638
906, 1.7782, 0.341656, 81.0258, -0.000976562, -0.000976562, 0, -0.0791016, 0.291016, -9.75977, 1.18.2022 19:19:22.646
907, 1.7782, 0.341656, 81.0258, -0.000976562, -0.000976562, 0, -0.0351562, 0.275391, -9.72754, 1.18.2022 19:19:22.654
908, 1.7782, 0.341656, 81.0258, 0, 0, 0, -0.0761719, 0.308594, -9.76855, 1.18.2022 19:19:22.662
909, 1.7782, 0.341656, 81.0258, -0.000976562, -0.000976562, 0, -0.0302734, 0.306641, -9.71484, 1.18.2022 19:19:22.670
910, 1.7782, 0.341656, 81.0258, -0.000976562, -0.00195312, 0, -0.0429688, 0.289062, -9.7627, 1.18.2022 19:19:22.678
911, 1.7782, 0.341656, 81.0258, -0.000976562, -0.000976562, 0, -0.123047, 0.330078, -9.71094, 1.18.2022 19:19:22.686
912, 1.7782, 0.341656, 81.0258, 0, 0, 0, -0.00683594, 0.308594, -9.71094, 1.18.2022 19:19:22.694
913, 1.77843, 0.34156, 81.0249, -0.000976562, -0.000976562, 0.000976562, -0.0449219, 0.316406, -9.7168, 1.18.2022 19:19:22.702
914, 1.77843, 0.34156, 81.0249, -0.000976562, 0, 0.000976562, -0.0996094, 0.288086, -9.74023, 1.18.2022 19:19:22.710
915, 1.77843, 0.34156, 81.0249, -0.000976562, 0, 0, 0.0146484, 0.244141, -9.71289, 1.18.2022 19:19:22.718
916, 1.77843, 0.34156, 81.0249, -0.000976562, -0.00195312, -0.000976562, -0.0898438, 0.313477, -9.70215, 1.18.2022 19:19:22.726
917, 1.77843, 0.34156, 81.0249, -0.000976562, -0.000976562, -0.00195312, -0.0566406, 0.322266, -9.74707, 1.18.2022 19:19:22.734
918, 1.77843, 0.34156, 81.0249, 0, -0.000976562, 0, -0.0136719, 0.294922, -9.71387, 1.18.2022 19:19:22.742
919, 1.77843, 0.34156, 81.0249, -0.000976562, 0, -0.00195312, -0.0996094, 0.316406, -9.71582, 1.18.2022 19:19:22.750
920, 1.77843, 0.34156, 81.0249, -0.00195312, 0, 0, -0.0478516, 0.289062, -9.76953, 1.18.2022 19:19:22.758
921, 1.77819, 0.341505, 81.0151, 0, 0, 0, -0.0566406, 0.317383, -9.75, 1.18.2022 19:19:22.766
922, 1.77819, 0.341505, 81.0151, 0, 0, 0, -0.0810547, 0.304688, -9.73828, 1.18.2022 19:19:22.774
923, 1.77819, 0.341505, 81.0151, 0, -0.000976562, 0, -0.00488281, 0.289062, -9.76562, 1.18.2022 19:19:22.782
924, 1.77819, 0.341505, 81.0151, 0, 0, -0.00195312, -0.0927734, 0.317383, -9.76367, 1.18.2022 19:19:22.790
925, 1.77819, 0.341505, 81.0151, 0, 0, 0, -0.0488281, 0.320312, -9.70996, 1.18.2022 19:19:22.798
926, 1.77819, 0.341505, 81.0151, -0.000976562, -0.000976562, 0, -0.0234375, 0.279297, -9.75391, 1.18.2022 19:19:22.806
927, 1.77819, 0.341505, 81.0151, -0.000976562, -0.000976562, 0, -0.107422, 0.302734, -9.73535, 1.18.2022 19:19:22.814
928, 1.77819, 0.341505, 81.0151, -0.000976562, -0.000976562, 0, -0.0351562, 0.293945, -9.70801, 1.18.2022 19:19:22.822
929, 1.77819, 0.341505, 81.0151, -0.000976562, -0.000976562, 0, -0.0517578, 0.275391, -9.72266, 1.18.2022 19:19:22.830
930, 1.77819, 0.341505, 81.0151, -0.00195312, -0.000976562, 0, -0.104492, 0.322266, -9.75879, 1.18.2022 19:19:22.838
931, 1.77819, 0.341505, 81.0151, -0.000976562, 0, 0, -0.00390625, 0.282227, -9.71875, 1.18.2022 19:19:22.846
932, 1.77819, 0.341505, 81.0151, 0, 0, -0.00292969, -0.0585938, 0.306641, -9.72461, 1.18.2022 19:19:22.854
933, 1.77819, 0.341505, 81.0151, -0.000976562, -0.000976562, 0, -0.101562, 0.328125, -9.69922, 1.18.2022 19:19:22.862
934, 1.77842, 0.341409, 81.0143, 0, -0.000976562, 0, -0.0166016, 0.269531, -9.74902, 1.18.2022 19:19:22.870
935, 1.77842, 0.341409, 81.0143, 0, 0, 0.000976562, -0.0751953, 0.277344, -9.69434, 1.18.2022 19:19:22.878
936, 1.77311, 0.336867, 81.0145, -0.000976562, -0.000976562, 0, -0.0546875, 0.300781, -9.76953, 1.18.2022 19:19:22.886
937, 1.77842, 0.341409, 81.0143, -0.000976562, -0.00195312, -0.000976562, -0.0712891, 0.283203, -9.73633, 1.18.2022 19:19:22.894
938, 1.77842, 0.341409, 81.0143, 0, 0, 0, -0.108398, 0.316406, -9.7041, 1.18.2022 19:19:22.902
939, 1.77311, 0.336867, 81.0145, 0, -0.000976562, 0, -0.0351562, 0.302734, -9.73145, 1.18.2022 19:19:22.910
940, 1.77311, 0.336867, 81.0145, -0.000976562, -0.000976562, 0, -0.0908203, 0.28125, -9.74316, 1.18.2022 19:19:22.918
941, 1.77311, 0.336867, 81.0145, -0.000976562, 0, 0.000976562, -0.0830078, 0.28418, -9.75488, 1.18.2022 19:19:22.926
942, 1.77311, 0.336867, 81.0145, -0.000976562, 0, 0, 0.0117188, 0.24707, -9.74316, 1.18.2022 19:19:22.934
943, 1.77311, 0.336867, 81.0145, -0.000976562, -0.000976562, 0, -0.12207, 0.301758, -9.77734, 1.18.2022 19:19:22.942
944, 1.77311, 0.336867, 81.0145, 0, 0, 0, -0.0664062, 0.342773, -9.73438, 1.18.2022 19:19:22.950
945, 1.77311, 0.336867, 81.0145, -0.000976562, 0, 0, 0.00292969, 0.290039, -9.73535, 1.18.2022 19:19:22.958
946, 1.77311, 0.336867, 81.0145, -0.000976562, 0, 0, -0.0986328, 0.327148, -9.6709, 1.18.2022 19:19:22.966
947, 1.77311, 0.336867, 81.0145, -0.000976562, -0.000976562, 0.000976562, -0.0380859, 0.294922, -9.73633, 1.18.2022 19:19:22.974
948, 1.77311, 0.336867, 81.0145, -0.000976562, 0, 0.000976562, -0.046875, 0.283203, -9.7207, 1.18.2022 19:19:22.982
949, 1.77311, 0.336867, 81.0145, -0.000976562, 0, 0, -0.0761719, 0.297852, -9.72656, 1.18.2022 19:19:22.990
950, 1.77311, 0.336867, 81.0145, -0.000976562, -0.000976562, 0, -0.0224609, 0.27832, -9.7959, 1.18.2022 19:19:22.998
951, 1.77311, 0.336867, 81.0145, -0.000976562, 0.000976562, 0, -0.0908203, 0.350586, -9.75098, 1.18.2022 19:19:23.006
952, 1.77311, 0.336867, 81.0145, 0, 0, 0, -0.0253906, 0.311523, -9.72949, 1.18.2022 19:19:23.014
953, 1.77311, 0.336867, 81.0145, 0, 0, 0, -0.0527344, 0.28125, -9.74902, 1.18.2022 19:19:23.022
954, 1.77311, 0.336867, 81.0145, -0.000976562, -0.000976562, 0, -0.125977, 0.302734, -9.73926, 1.18.2022 19:19:23.030
955, 1.77311, 0.336867, 81.0145, -0.000976562, 0, 0, -0.00683594, 0.291992, -9.71387, 1.18.2022 19:19:23.038
956, 1.77311, 0.336867, 81.0145, 0, 0, 0, -0.0517578, 0.28125, -9.73926, 1.18.2022 19:19:23.046
957, 1.77311, 0.336867, 81.0145, -0.000976562, -0.000976562, 0, -0.0742188, 0.330078, -9.77539, 1.18.2022 19:19:23.052
958, 1.77288, 0.336962, 81.0153, -0.000976562, -0.000976562, 0, -0.0136719, 0.283203, -9.74219, 1.18.2022 19:19:23.060
959, 1.77288, 0.336962, 81.0153, -0.000976562, 0, 0, -0.114258, 0.286133, -9.75488, 1.18.2022 19:19:23.068
960, 1.77288, 0.336962, 81.0153, -0.000976562, -0.000976562, 0, -0.0800781, 0.299805, -9.7168, 1.18.2022 19:19:23.076
961, 1.77288, 0.336962, 81.0153, -0.000976562, 0, 0.000976562, -0.00683594, 0.279297, -9.75195, 1.18.2022 19:19:23.084
962, 1.77288, 0.336962, 81.0153, -0.000976562, 0.000976562, 0, -0.104492, 0.306641, -9.71191, 1.18.2022 19:19:23.092
963, 1.77288, 0.336962, 81.0153, 0, 0, 0, -0.0214844, 0.292969, -9.73438, 1.18.2022 19:19:23.100
964, 1.77288, 0.336962, 81.0153, 0, 0, 0, -0.0546875, 0.304688, -9.7334, 1.18.2022 19:19:23.108
965, 1.77288, 0.336962, 81.0153, 0, 0, -0.00195312, -0.0761719, 0.326172, -9.74219, 1.18.2022 19:19:23.116
966, 1.77288, 0.336962, 81.0153, 0, 0, 0, 0.0175781, 0.28125, -9.68359, 1.18.2022 19:19:23.124
967, 1.77288, 0.336962, 81.0153, -0.000976562, -0.000976562, -0.00195312, -0.0791016, 0.303711, -9.7666, 1.18.2022 19:19:23.132
968, 1.77288, 0.336962, 81.0153, -0.00195312, -0.000976562, 0, -0.0761719, 0.305664, -9.74707, 1.18.2022 19:19:23.140
969, 1.77288, 0.336962, 81.0153, -0.000976562, 0.000976562, 0, -0.0185547, 0.311523, -9.71289, 1.18.2022 19:19:23.148
970, 1.77765, 0.331701, 81.0251, -0.000976562, 0, 0, -0.142578, 0.321289, -9.71484, 1.18.2022 19:19:23.156
971, 1.77765, 0.331701, 81.0251, -0.000976562, -0.000976562, 0, -0.0791016, 0.334961, -9.77051, 1.18.2022 19:19:23.164
972, 1.77765, 0.331701, 81.0251, -0.000976562, 0, 0, -0.0498047, 0.285156, -9.71973, 1.18.2022 19:19:23.172
973, 1.77765, 0.331701, 81.0251, -0.00195312, -0.000976562, 0.000976562, -0.100586, 0.282227, -9.7832, 1.18.2022 19:19:23.180
974, 1.77765, 0.331701, 81.0251, -0.000976562, -0.000976562, 0, -0.0410156, 0.293945, -9.75781, 1.18.2022 19:19:23.188
975, 1.77765, 0.331701, 81.0251, -0.000976562, 0, 0, -0.0849609, 0.307617, -9.73047, 1.18.2022 19:19:23.196
976, 1.77765, 0.331701, 81.0251, -0.000976562, -0.000976562, -0.00195312, -0.0615234, 0.316406, -9.73828, 1.18.2022 19:19:23.204
977, 1.77743, 0.331796, 81.026, -0.000976562, -0.000976562, -0.00195312, -0.0166016, 0.283203, -9.73047, 1.18.2022 19:19:23.212
978, 1.77743, 0.331796, 81.026, -0.000976562, -0.000976562, -0.00195312, -0.140625, 0.332031, -9.77441, 1.18.2022 19:19:23.220
979, 1.77743, 0.331796, 81.026, -0.000976562, 0, 0, -0.0546875, 0.331055, -9.73047, 1.18.2022 19:19:23.228
980, 1.77743, 0.331796, 81.026, -0.00195312, -0.000976562, 0.000976562, -0.0527344, 0.289062, -9.76953, 1.18.2022 19:19:23.236
981, 1.77743, 0.331796, 81.026, -0.000976562, -0.000976562, -0.000976562, -0.0810547, 0.31543, -9.75391, 1.18.2022 19:19:23.244
982, 1.77743, 0.331796, 81.026, -0.000976562, -0.00195312, -0.00195312, -0.015625, 0.291992, -9.71094, 1.18.2022 19:19:23.252
983, 1.77312, 0.337167, 81.0357, 0, -0.000976562, -0.00195312, -0.0478516, 0.288086, -9.75098, 1.18.2022 19:19:23.260
984, 1.77312, 0.337167, 81.0357, -0.000976562, -0.000976562, -0.00195312, -0.0869141, 0.330078, -9.6875, 1.18.2022 19:19:23.268
985, 1.77312, 0.337167, 81.0357, -0.000976562, -0.000976562, -0.00195312, -0.0283203, 0.295898, -9.74902, 1.18.2022 19:19:23.276
986, 1.77289, 0.337263, 81.0366, -0.000976562, -0.000976562, -0.000976562, -0.101562, 0.291992, -9.7002, 1.18.2022 19:19:23.284
987, 1.77821, 0.341806, 81.0364, -0.000976562, -0.000976562, -0.000976562, -0.0449219, 0.265625, -9.71582, 1.18.2022 19:19:23.292
988, 1.77821, 0.341806, 81.0364, -0.000976562, 0, 0, 0.00976562, 0.268555, -9.72168, 1.18.2022 19:19:23.300
989, 1.77821, 0.341806, 81.0364, -0.000976562, -0.000976562, -0.000976562, -0.0986328, 0.330078, -9.69727, 1.18.2022 19:19:23.308
990, 1.77821, 0.341806, 81.0364, -0.000976562, 0, -0.00195312, -0.0195312, 0.336914, -9.77637, 1.18.2022 19:19:23.316
991, 1.77821, 0.341806, 81.0364, -0.000976562, 0, 0, -0.0380859, 0.318359, -9.77637, 1.18.2022 19:19:23.324
992, 1.77821, 0.341806, 81.0364, 0, 0, -0.000976562, -0.0859375, 0.283203, -9.74121, 1.18.2022 19:19:23.332
993, 1.77821, 0.341806, 81.0364, 0, -0.000976562, 0.000976562, 0, 0.261719, -9.75, 1.18.2022 19:19:23.340
994, 1.77821, 0.341806, 81.0364, -0.000976562, -0.000976562, -0.000976562, -0.078125, 0.28125, -9.74805, 1.18.2022 19:19:23.348
995, 1.77821, 0.341806, 81.0364, -0.000976562, -0.000976562, -0.000976562, -0.0664062, 0.314453, -9.73047, 1.18.2022 19:19:23.356
996, 1.77821, 0.341806, 81.0364, -0.000976562, 0, -0.00195312, 0.00292969, 0.294922, -9.72266, 1.18.2022 19:19:23.364
997, 1.77821, 0.341806, 81.0364, -0.000976562, -0.000976562, -0.00195312, -0.0810547, 0.319336, -9.75391, 1.18.2022 19:19:23.372
998, 1.77821, 0.341806, 81.0364, -0.000976562, -0.000976562, -0.000976562, -0.0566406, 0.321289, -9.71875, 1.18.2022 19:19:23.380
999, 1.77821, 0.341806, 81.0364, 0, -0.000976562, 0.000976562, -0.0751953, 0.305664, -9.69824, 1.18.2022 19:19:23.388
1000, 1.77821, 0.341806, 81.0364, -0.000976562, -0.000976562, 0.000976562, -0.0859375, 0.279297, -9.75293, 1.18.2022 19:19:23.396
1001, 1.77821, 0.341806, 81.0364, 0, -0.000976562, 0.000976562, 0.00292969, 0.296875, -9.7207, 1.18.2022 19:19:23.404
1002, 1.77821, 0.341806, 81.0364, -0.000976562, -0.000976562, -0.000976562, -0.0908203, 0.300781, -9.74707, 1.18.2022 19:19:23.412
1003, 1.77821, 0.341806, 81.0364, 0, 0, -0.000976562, -0.0742188, 0.336914, -9.75586, 1.18.2022 19:19:23.420
1004, 1.77821, 0.341806, 81.0364, 0, -0.000976562, -0.000976562, -0.00292969, 0.322266, -9.76465, 1.18.2022 19:19:23.428
1005, 1.77821, 0.341806, 81.0364, -0.000976562, -0.000976562, -0.000976562, -0.0996094, 0.337891, -9.73242, 1.18.2022 19:19:23.436
1006, 1.77821, 0.341806, 81.0364, -0.00195312, 0, 0, -0.0527344, 0.276367, -9.74414, 1.18.2022 19:19:23.444
1007, 1.77821, 0.341806, 81.0364, 0, -0.000976562, -0.000976562, -0.0263672, 0.271484, -9.74023, 1.18.2022 19:19:23.452
1008, 1.77821, 0.341806, 81.0364, -0.000976562, 0, 0, -0.0917969, 0.342773, -9.70605, 1.18.2022 19:19:23.460
1009, 1.77821, 0.341806, 81.0364, -0.000976562, -0.000976562, 0, -0.00488281, 0.322266, -9.74805, 1.18.2022 19:19:23.468
1010, 1.77821, 0.341806, 81.0364, -0.000976562, 0, 0, -0.0615234, 0.324219, -9.7334, 1.18.2022 19:19:23.476
1011, 1.77821, 0.341806, 81.0364, -0.000976562, -0.000976562, -0.000976562, -0.0615234, 0.307617, -9.74805, 1.18.2022 19:19:23.484
1012, 1.77821, 0.341806, 81.0364, -0.000976562, 0, 0, -0.0185547, 0.287109, -9.71777, 1.18.2022 19:19:23.492
1013, 1.77821, 0.341806, 81.0364, -0.00195312, 0, 0, -0.0927734, 0.300781, -9.75195, 1.18.2022 19:19:23.500
1014, 1.77821, 0.341806, 81.0364, -0.000976562, 0, 0, -0.0302734, 0.301758, -9.71094, 1.18.2022 19:19:23.508
1015, 1.77821, 0.341806, 81.0364, -0.000976562, -0.000976562, 0, -0.0332031, 0.327148, -9.7666, 1.18.2022 19:19:23.516
1016, 1.77821, 0.341806, 81.0364, 0, 0, 0.000976562, -0.114258, 0.334961, -9.76953, 1.18.2022 19:19:23.524
1017, 1.77821, 0.341806, 81.0364, -0.000976562, 0, 0, 0.0146484, 0.283203, -9.7334, 1.18.2022 19:19:23.532
1018, 1.77821, 0.341806, 81.0364, -0.000976562, -0.000976562, 0, -0.0507812, 0.291992, -9.78809, 1.18.2022 19:19:23.540
1019, 1.77821, 0.341806, 81.0364, 0, -0.000976562, 0, -0.0585938, 0.311523, -9.71484, 1.18.2022 19:19:23.548
1020, 1.77821, 0.341806, 81.0364, 0, -0.000976562, 0, -0.0166016, 0.273438, -9.72363, 1.18.2022 19:19:23.556
1021, 1.77821, 0.341806, 81.0364, -0.000976562, 0, 0, -0.106445, 0.306641, -9.70703, 1.18.2022 19:19:23.564
1022, 1.77821, 0.341806, 81.0364, -0.000976562, 0, 0.000976562, -0.0605469, 0.3125, -9.67676, 1.18.2022 19:19:23.572
1023, 1.77821, 0.341806, 81.0364, -0.000976562, -0.000976562, 0.000976562, -0.0214844, 0.28418, -9.76758, 1.18.2022 19:19:23.580
1024, 1.77821, 0.341806, 81.0364, 0, -0.000976562, 0.000976562, -0.117188, 0.308594, -9.77539, 1.18.2022 19:19:23.588
1025, 1.77821, 0.341806, 81.0364, -0.000976562, -0.000976562, 0, -0.0527344, 0.27832, -9.74121, 1.18.2022 19:19:23.596
1026, 1.77821, 0.341806, 81.0364, -0.000976562, -0.000976562, 0, -0.0449219, 0.298828, -9.70801, 1.18.2022 19:19:23.604
1027, 1.77821, 0.341806, 81.0364, -0.00195312, -0.000976562, -0.000976562, -0.0878906, 0.322266, -9.74902, 1.18.2022 19:19:23.612
1028, 1.77821, 0.341806, 81.0364, -0.000976562, -0.00195312, -0.00195312, -0.0117188, 0.291016, -9.75586, 1.18.2022 19:19:23.620
1029, 1.77821, 0.341806, 81.0364, -0.000976562, 0.000976562, 0, -0.0732422, 0.311523, -9.70703, 1.18.2022 19:19:23.628
1030, 1.77821, 0.341806, 81.0364, -0.000976562, -0.000976562, -0.000976562, -0.046875, 0.297852, -9.72656, 1.18.2022 19:19:23.636
1031, 1.77821, 0.341806, 81.0364, -0.000976562, -0.000976562, 0.000976562, -0.0380859, 0.279297, -9.75391, 1.18.2022 19:19:23.644
1032, 1.77821, 0.341806, 81.0364, 0, -0.000976562, 0, -0.109375, 0.326172, -9.7207, 1.18.2022 19:19:23.652
1033, 1.77821, 0.341806, 81.0364, -0.000976562, 0, 0, -0.0419922, 0.250977, -9.70703, 1.18.2022 19:19:23.660
1034, 1.77821, 0.341806, 81.0364, -0.000976562, -0.000976562, 0, -0.0625, 0.293945, -9.7627, 1.18.2022 19:19:23.668
