Seq, Rot x, Rot y, Rot z, Vel x, Vel y, Vel z, Acc x, Acc y, Acc z, Time(m.d.y h:m:s.ms)
0, 1.83132, 0.0867434, 88.6226, 0, -0.000976562, -0.00195312, -0.0576172, 0.329102, -9.75684, 1.18.2022 21:4:59.953
1, 1.83132, 0.0867434, 88.6226, -0.000976562, -0.00195312, 0, 0.03125, 0.306641, -9.72754, 1.18.2022 21:4:59.959
2, 1.82644, 0.0917474, 88.6226, -0.000976562, -0.00195312, 0, -0.0205078, 0.303711, -9.70117, 1.18.2022 21:4:59.967
3, 1.82644, 0.0917474, 88.6226, 0, -0.000976562, 0, -0.0664062, 0.30957, -9.74707, 1.18.2022 21:4:59.975
4, 1.82644, 0.0917474, 88.6226, 0, 0, 0, 0.0361328, 0.290039, -9.72363, 1.18.2022 21:4:59.983
5, 1.82644, 0.0917474, 88.6226, 0, 0, 0, -0.0566406, 0.308594, -9.7168, 1.18.2022 21:4:59.991
6, 1.82644, 0.0917474, 88.6226, -0.000976562, 0, 0, -0.0449219, 0.328125, -9.70996, 1.18.2022 21:4:59.999
7, 1.82644, 0.0917474, 88.6226, 0, 0, 0.000976562, 0.00390625, 0.302734, -9.66602, 1.18.2022 21:5:0.007
8, 1.82644, 0.0917474, 88.6226, -0.000976562, -0.000976562, 0, -0.0761719, 0.328125, -9.72363, 1.18.2022 21:5:0.015
9, 1.82644, 0.0917474, 88.6226, -0.000976562, -0.000976562, -0.00195312, 0.0078125, 0.319336, -9.74414, 1.18.2022 21:5:0.023
10, 1.82644, 0.0917474, 88.6226, -0.000976562, -0.000976562, 0, -0.00878906, 0.306641, -9.73438, 1.18.2022 21:5:0.031
11, 1.82667, 0.0916637, 88.6225, -0.000976562, 0, 0, -0.0634766, 0.326172, -9.72363, 1.18.2022 21:5:0.039
12, 1.82667, 0.0916637, 88.6225, -0.000976562, -0.000976562, 0, 0.0341797, 0.301758, -9.72559, 1.18.2022 21:5:0.047
13, 1.82644, 0.0915899, 88.6126, -0.000976562, -0.000976562, 0, -0.0322266, 0.298828, -9.70801, 1.18.2022 21:5:0.055
14, 1.82644, 0.0915899, 88.6126, -0.000976562, 0, 0, -0.0419922, 0.318359, -9.71973, 1.18.2022 21:5:0.063
15, 1.83132, 0.0865855, 88.6126, -0.000976562, 0, 0.000976562, 0.00976562, 0.293945, -9.76367, 1.18.2022 21:5:0.071
16, 1.83132, 0.0865855, 88.6126, -0.000976562, -0.000976562, 0.000976562, -0.0566406, 0.304688, -9.7168, 1.18.2022 21:5:0.079
17, 1.83156, 0.0865018, 88.6125, -0.000976562, -0.000976562, 0, 0.00292969, 0.337891, -9.72852, 1.18.2022 21:5:0.087
18, 1.82644, 0.0914324, 88.6026, 0, -0.000976562, 0, 0.00488281, 0.292969, -9.75879, 1.18.2022 21:5:0.095
19, 1.82644, 0.0914324, 88.6026, -0.000976562, 0, 0, -0.0429688, 0.328125, -9.7832, 1.18.2022 21:5:0.103
20, 1.83132, 0.0864275, 88.6026, -0.000976562, 0, 0, 0.0439453, 0.308594, -9.71582, 1.18.2022 21:5:0.111
21, 1.83132, 0.0864275, 88.6026, 0, -0.000976562, 0, -0.0185547, 0.304688, -9.74805, 1.18.2022 21:5:0.119
22, 1.83132, 0.0864275, 88.6026, 0, 0, 0, -0.0283203, 0.303711, -9.71289, 1.18.2022 21:5:0.127
23, 1.82644, 0.0914324, 88.6026, -0.000976562, -0.000976562, 0, 0.0078125, 0.299805, -9.7207, 1.18.2022 21:5:0.135
24, 1.82668, 0.0913487, 88.6025, -0.000976562, -0.000976562, 0, -0.0761719, 0.30957, -9.73828, 1.18.2022 21:5:0.143
25, 1.82668, 0.0913487, 88.6025, 0, -0.000976562, 0, -0.00683594, 0.317383, -9.75586, 1.18.2022 21:5:0.151
26, 1.82644, 0.0912749, 88.5926, 0, 0, 0, 0.00292969, 0.299805, -9.72559, 1.18.2022 21:5:0.159
27, 1.82644, 0.0912749, 88.5926, -0.000976562, 0, 0, -0.0712891, 0.300781, -9.75, 1.18.2022 21:5:0.167
28, 1.82644, 0.0912749, 88.5926, -0.000976562, 0, 0, 0.0175781, 0.30957, -9.73047, 1.18.2022 21:5:0.175
29, 1.83133, 0.0862696, 88.5926, -0.000976562, -0.000976562, -0.00195312, -0.0283203, 0.328125, -9.71973, 1.18.2022 21:5:0.183
30, 1.83133, 0.0862696, 88.5926, -0.00195312, -0.000976562, 0, -0.0371094, 0.313477, -9.69141, 1.18.2022 21:5:0.191
31, 1.83133, 0.0862696, 88.5926, -0.000976562, -0.000976562, 0, 0.0400391, 0.297852, -9.75684, 1.18.2022 21:5:0.199
32, 1.83133, 0.0862696, 88.5926, 0, 0, 0.000976562, -0.0595703, 0.319336, -9.74023, 1.18.2022 21:5:0.207
33, 1.83156, 0.0861859, 88.5925, 0, 0, 0.000976562, -0.0214844, 0.317383, -9.74316, 1.18.2022 21:5:0.215
34, 1.83133, 0.0861116, 88.5826, -0.000976562, -0.000976562, -0.000976562, 0.0380859, 0.289062, -9.77344, 1.18.2022 21:5:0.223
35, 1.82645, 0.0911173, 88.5826, 0, -0.000976562, -0.000976562, -0.0683594, 0.318359, -9.7168, 1.18.2022 21:5:0.231
36, 1.82645, 0.0911173, 88.5826, -0.000976562, 0, -0.00195312, 0.0341797, 0.328125, -9.72949, 1.18.2022 21:5:0.239
37, 1.83133, 0.0861116, 88.5826, 0, 0, -0.000976562, -0.00488281, 0.328125, -9.7832, 1.18.2022 21:5:0.247
38, 1.82645, 0.0911173, 88.5826, -0.000976562, -0.000976562, -0.000976562, -0.0234375, 0.295898, -9.74414, 1.18.2022 21:5:0.255
39, 1.83133, 0.0861116, 88.5826, -0.000976562, 0, -0.000976562, 0.0263672, 0.288086, -9.75684, 1.18.2022 21:5:0.263
40, 1.83133, 0.0861116, 88.5826, 0, 0, -0.000976562, -0.0517578, 0.296875, -9.71973, 1.18.2022 21:5:0.271
41, 1.83133, 0.0861116, 88.5826, -0.000976562, -0.000976562, -0.000976562, -0.0117188, 0.306641, -9.72266, 1.18.2022 21:5:0.279
42, 1.83133, 0.0861116, 88.5826, -0.000976562, -0.000976562, -0.000976562, 0.0332031, 0.27832, -9.74316, 1.18.2022 21:5:0.287
43, 1.83157, 0.086028, 88.5825, -0.000976562, -0.000976562, -0.000976562, -0.0546875, 0.326172, -9.7334, 1.18.2022 21:5:0.295
44, 1.83157, 0.086028, 88.5825, 0, 0, -0.000976562, 0.0078125, 0.318359, -9.72754, 1.18.2022 21:5:0.303
45, 1.83157, 0.086028, 88.5825, 0, 0, -0.000976562, -0.00195312, 0.307617, -9.75586, 1.18.2022 21:5:0.311
46, 1.82668, 0.0910337, 88.5825, 0.000976562, -0.000976562, -0.00195312, -0.0761719, 0.317383, -9.74512, 1.18.2022 21:5:0.319
47, 1.82668, 0.0910337, 88.5825, -0.000976562, -0.000976562, -0.00195312, 0.0380859, 0.280273, -9.73633, 1.18.2022 21:5:0.327
48, 1.82668, 0.0910337, 88.5825, 0, 0, -0.000976562, -0.0361328, 0.300781, -9.76758, 1.18.2022 21:5:0.335
49, 1.82645, 0.0909598, 88.5726, 0, -0.000976562, -0.000976562, -0.0722656, 0.351562, -9.77734, 1.18.2022 21:5:0.343
50, 1.82645, 0.0909598, 88.5726, -0.000976562, -0.00195312, -0.000976562, 0.00976562, 0.303711, -9.77051, 1.18.2022 21:5:0.351
51, 1.82645, 0.0909598, 88.5726, 0, -0.00195312, -0.000976562, -0.0595703, 0.297852, -9.74805, 1.18.2022 21:5:0.359
52, 1.82645, 0.0909598, 88.5726, -0.000976562, -0.00195312, -0.00195312, 0.0146484, 0.328125, -9.73145, 1.18.2022 21:5:0.367
53, 1.82645, 0.0909598, 88.5726, -0.000976562, -0.000976562, -0.000976562, 0.0175781, 0.306641, -9.72754, 1.18.2022 21:5:0.375
54, 1.82645, 0.0909598, 88.5726, -0.000976562, -0.000976562, -0.000976562, -0.0732422, 0.313477, -9.7168, 1.18.2022 21:5:0.383
55, 1.82645, 0.0909598, 88.5726, 0, -0.000976562, -0.000976562, 0.0410156, 0.295898, -9.75391, 1.18.2022 21:5:0.391
56, 1.82645, 0.0909598, 88.5726, -0.000976562, -0.000976562, 0.000976562, -0.015625, 0.296875, -9.70605, 1.18.2022 21:5:0.399
57, 1.82645, 0.0909598, 88.5726, -0.000976562, 0, -0.000976562, -0.0322266, 0.323242, -9.71191, 1.18.2022 21:5:0.407
58, 1.82668, 0.0910337, 88.5825, -0.000976562, -0.000976562, -0.000976562, 0.0478516, 0.321289, -9.74707, 1.18.2022 21:5:0.415
59, 1.82668, 0.0910337, 88.5825, -0.000976562, 0, -0.000976562, -0.0761719, 0.3125, -9.74707, 1.18.2022 21:5:0.423
60, 1.82668, 0.0910337, 88.5825, 0, 0.000976562, -0.000976562, -0.00976562, 0.330078, -9.76953, 1.18.2022 21:5:0.431
61, 1.82668, 0.0910337, 88.5825, -0.000976562, 0, -0.000976562, 0, 0.317383, -9.75293, 1.18.2022 21:5:0.439
62, 1.82645, 0.0911173, 88.5826, -0.000976562, -0.000976562, -0.000976562, -0.0585938, 0.30957, -9.71973, 1.18.2022 21:5:0.447
63, 1.82645, 0.0911173, 88.5826, 0, -0.000976562, 0.000976562, 0.00976562, 0.3125, -9.74902, 1.18.2022 21:5:0.455
64, 1.82645, 0.0911173, 88.5826, 0, -0.000976562, 0, -0.00195312, 0.318359, -9.71484, 1.18.2022 21:5:0.463
65, 1.82645, 0.0911173, 88.5826, 0, -0.000976562, 0, -0.0693359, 0.325195, -9.76367, 1.18.2022 21:5:0.471
66, 1.82645, 0.0911173, 88.5826, 0, -0.000976562, 0, 0.0478516, 0.292969, -9.73145, 1.18.2022 21:5:0.479
67, 1.82645, 0.0911173, 88.5826, -0.000976562, -0.000976562, 0, -0.0166016, 0.3125, -9.75977, 1.18.2022 21:5:0.487
68, 1.82645, 0.0911173, 88.5826, 0, -0.000976562, 0, -0.0498047, 0.329102, -9.73535, 1.18.2022 21:5:0.495
69, 1.82668, 0.0911912, 88.5925, 0, -0.000976562, -0.00195312, 0.0361328, 0.293945, -9.70703, 1.18.2022 21:5:0.503
70, 1.82668, 0.0911912, 88.5925, 0, 0, -0.00195312, -0.0644531, 0.30957, -9.74316, 1.18.2022 21:5:0.511
71, 1.82644, 0.0912749, 88.5926, 0, -0.000976562, 0, 0.0253906, 0.303711, -9.78223, 1.18.2022 21:5:0.519
72, 1.82644, 0.0912749, 88.5926, 0, -0.000976562, 0, 0, 0.298828, -9.77441, 1.18.2022 21:5:0.527
73, 1.82144, 0.0863913, 88.5928, 0, 0, 0, -0.0419922, 0.335938, -9.72852, 1.18.2022 21:5:0.535
74, 1.82144, 0.0863913, 88.5928, -0.000976562, 0, 0, 0.0410156, 0.283203, -9.75, 1.18.2022 21:5:0.543
75, 1.82144, 0.0863913, 88.5928, 0, 0, 0, -0.0244141, 0.3125, -9.76465, 1.18.2022 21:5:0.551
76, 1.82144, 0.0863913, 88.5928, -0.000976562, -0.000976562, 0, -0.0166016, 0.316406, -9.73438, 1.18.2022 21:5:0.559
77, 1.82144, 0.0863913, 88.5928, -0.000976562, 0, 0, 0.0263672, 0.302734, -9.76562, 1.18.2022 21:5:0.567
78, 1.82144, 0.0863913, 88.5928, -0.000976562, -0.000976562, -0.00195312, -0.0683594, 0.308594, -9.69824, 1.18.2022 21:5:0.575
79, 1.82144, 0.0863913, 88.5928, -0.000976562, -0.000976562, 0, 0.00585938, 0.330078, -9.69141, 1.18.2022 21:5:0.583
80, 1.82644, 0.0912749, 88.5926, -0.000976562, -0.000976562, -0.00195312, 0.00683594, 0.295898, -9.76562, 1.18.2022 21:5:0.591
81, 1.82644, 0.0912749, 88.5926, -0.000976562, -0.00195312, -0.000976562, -0.0566406, 0.337891, -9.71582, 1.18.2022 21:5:0.599
82, 1.82644, 0.0912749, 88.5926, -0.000976562, -0.000976562, 0, 0.00292969, 0.331055, -9.74805, 1.18.2022 21:5:0.607
83, 1.82644, 0.0912749, 88.5926, -0.000976562, 0, -0.00195312, -0.0302734, 0.319336, -9.73633, 1.18.2022 21:5:0.613
84, 1.82644, 0.0912749, 88.5926, -0.000976562, -0.000976562, 0, -0.0634766, 0.330078, -9.71191, 1.18.2022 21:5:0.621
85, 1.82644, 0.0912749, 88.5926, 0, -0.000976562, 0, 0.0498047, 0.299805, -9.74707, 1.18.2022 21:5:0.629
86, 1.82644, 0.0912749, 88.5926, 0, -0.000976562, -0.00195312, -0.0410156, 0.329102, -9.76172, 1.18.2022 21:5:0.637
87, 1.82644, 0.0912749, 88.5926, 0, -0.000976562, -0.00195312, -0.0166016, 0.324219, -9.74512, 1.18.2022 21:5:0.645
88, 1.82668, 0.0913487, 88.6025, -0.000976562, -0.000976562, 0, 0.0292969, 0.290039, -9.72363, 1.18.2022 21:5:0.653
89, 1.82668, 0.0913487, 88.6025, 0, 0, 0, -0.0615234, 0.316406, -9.73047, 1.18.2022 21:5:0.661
90, 1.82668, 0.0913487, 88.6025, -0.000976562, 0, 0.000976562, 0.0283203, 0.305664, -9.76367, 1.18.2022 21:5:0.669
91, 1.82668, 0.0913487, 88.6025, -0.000976562, -0.000976562, 0, -0.0214844, 0.291016, -9.74414, 1.18.2022 21:5:0.677
92, 1.82644, 0.0914324, 88.6026, 0, -0.000976562, -0.00195312, -0.0449219, 0.331055, -9.73535, 1.18.2022 21:5:0.685
93, 1.82644, 0.0914324, 88.6026, -0.000976562, 0, 0, 0.0527344, 0.299805, -9.74707, 1.18.2022 21:5:0.693
94, 1.82644, 0.0914324, 88.6026, -0.000976562, -0.000976562, -0.00195312, -0.0546875, 0.319336, -9.7334, 1.18.2022 21:5:0.701
95, 1.82644, 0.0914324, 88.6026, 0, 0, -0.00195312, -0.0449219, 0.345703, -9.74707, 1.18.2022 21:5:0.709
96, 1.82644, 0.0914324, 88.6026, 0, -0.000976562, 0, -0.0117188, 0.30957, -9.73633, 1.18.2022 21:5:0.717
97, 1.82644, 0.0914324, 88.6026, 0, -0.000976562, -0.000976562, -0.0605469, 0.361328, -9.68945, 1.18.2022 21:5:0.725
98, 1.82644, 0.0914324, 88.6026, 0, -0.000976562, 0, 0.0214844, 0.300781, -9.75195, 1.18.2022 21:5:0.733
99, 1.82644, 0.0914324, 88.6026, -0.000976562, -0.000976562, 0, 0.0283203, 0.292969, -9.75391, 1.18.2022 21:5:0.741
100, 1.82644, 0.0914324, 88.6026, -0.000976562, -0.000976562, 0.000976562, -0.046875, 0.326172, -9.7334, 1.18.2022 21:5:0.749
101, 1.82644, 0.0914324, 88.6026, -0.000976562, -0.000976562, 0.000976562, 0.0263672, 0.318359, -9.72754, 1.18.2022 21:5:0.757
102, 1.82644, 0.0914324, 88.6026, -0.000976562, 0, 0, -0.0625, 0.317383, -9.75879, 1.18.2022 21:5:0.765
103, 1.82644, 0.0914324, 88.6026, -0.000976562, -0.000976562, 0, -0.0283203, 0.308594, -9.71777, 1.18.2022 21:5:0.773
104, 1.82644, 0.0914324, 88.6026, -0.000976562, 0, 0, 0.0429688, 0.304688, -9.74023, 1.18.2022 21:5:0.781
105, 1.82644, 0.0914324, 88.6026, -0.000976562, 0, 0, -0.0644531, 0.302734, -9.7334, 1.18.2022 21:5:0.789
106, 1.83132, 0.0864275, 88.6026, -0.000976562, 0, 0, -0.0419922, 0.326172, -9.72852, 1.18.2022 21:5:0.797
107, 1.83132, 0.0864275, 88.6026, -0.000976562, 0, 0, -0.0136719, 0.291992, -9.72266, 1.18.2022 21:5:0.805
108, 1.83132, 0.0864275, 88.6026, -0.000976562, 0, 0, -0.0732422, 0.294922, -9.71484, 1.18.2022 21:5:0.813
109, 1.83132, 0.0864275, 88.6026, 0.000976562, 0, 0, 0.0146484, 0.306641, -9.72559, 1.18.2022 21:5:0.821
110, 1.83132, 0.0864275, 88.6026, 0, 0, 0, -0.00683594, 0.3125, -9.75781, 1.18.2022 21:5:0.829
111, 1.83132, 0.0864275, 88.6026, -0.000976562, 0, 0, -0.0146484, 0.322266, -9.75293, 1.18.2022 21:5:0.837
112, 1.83132, 0.0864275, 88.6026, -0.000976562, -0.000976562, 0, 0.0351562, 0.291016, -9.76367, 1.18.2022 21:5:0.845
113, 1.83132, 0.0864275, 88.6026, -0.000976562, -0.000976562, 0, -0.0595703, 0.325195, -9.78223, 1.18.2022 21:5:0.853
114, 1.83132, 0.0864275, 88.6026, 0, -0.000976562, 0, -0.0234375, 0.319336, -9.72949, 1.18.2022 21:5:0.861
115, 1.83132, 0.0864275, 88.6026, 0, 0, 0, 0.0117188, 0.322266, -9.75293, 1.18.2022 21:5:0.869
116, 1.83132, 0.0864275, 88.6026, -0.000976562, -0.000976562, 0, -0.0712891, 0.326172, -9.74023, 1.18.2022 21:5:0.877
117, 1.83132, 0.0864275, 88.6026, 0, 0, 0, -0.00683594, 0.308594, -9.71094, 1.18.2022 21:5:0.885
118, 1.83156, 0.0863439, 88.6025, 0, -0.000976562, 0, -0.0244141, 0.291992, -9.77441, 1.18.2022 21:5:0.893
119, 1.83133, 0.0862696, 88.5926, 0, -0.000976562, 0.000976562, -0.0712891, 0.311523, -9.7334, 1.18.2022 21:5:0.901
120, 1.83133, 0.0862696, 88.5926, -0.000976562, -0.000976562, 0, 0.0244141, 0.271484, -9.74512, 1.18.2022 21:5:0.909
121, 1.83133, 0.0862696, 88.5926, 0, 0, 0, -0.0527344, 0.30957, -9.74512, 1.18.2022 21:5:0.917
122, 1.83133, 0.0862696, 88.5926, 0, 0, 0, -0.0263672, 0.304688, -9.73633, 1.18.2022 21:5:0.925
123, 1.82632, 0.081386, 88.5928, -0.000976562, 0, 0, 0.0136719, 0.303711, -9.77051, 1.18.2022 21:5:0.933
124, 1.82632, 0.081386, 88.5928, -0.000976562, 0, -0.000976562, -0.0810547, 0.326172, -9.7373, 1.18.2022 21:5:0.941
125, 1.82632, 0.081386, 88.5928, -0.000976562, -0.000976562, 0, 0.0175781, 0.313477, -9.71289, 1.18.2022 21:5:0.949
126, 1.83133, 0.0862696, 88.5926, -0.000976562, 0, 0, 0.0166016, 0.31543, -9.76562, 1.18.2022 21:5:0.957
127, 1.83156, 0.0861859, 88.5925, 0, -0.000976562, -0.000976562, -0.0400391, 0.311523, -9.72656, 1.18.2022 21:5:0.965
128, 1.82656, 0.0813028, 88.5927, 0, 0, 0, 0.0400391, 0.300781, -9.76172, 1.18.2022 21:5:0.973
129, 1.82656, 0.0813028, 88.5927, 0, -0.000976562, -0.000976562, -0.0332031, 0.304688, -9.73633, 1.18.2022 21:5:0.981
130, 1.82656, 0.0813028, 88.5927, 0, -0.000976562, -0.000976562, -0.0400391, 0.314453, -9.72461, 1.18.2022 21:5:0.989
131, 1.82656, 0.0813028, 88.5927, -0.000976562, 0, 0, 0.0195312, 0.290039, -9.71387, 1.18.2022 21:5:0.997
132, 1.82632, 0.0812285, 88.5828, -0.000976562, 0, 0, -0.0849609, 0.31543, -9.70215, 1.18.2022 21:5:1.010
133, 1.83133, 0.0861116, 88.5826, -0.000976562, -0.000976562, -0.000976562, -0.0117188, 0.331055, -9.74121, 1.18.2022 21:5:1.013
134, 1.83133, 0.0861116, 88.5826, -0.000976562, 0, 0, -0.0166016, 0.28125, -9.76367, 1.18.2022 21:5:1.021
135, 1.83133, 0.0861116, 88.5826, -0.00195312, 0.000976562, 0, -0.0732422, 0.304688, -9.7334, 1.18.2022 21:5:1.029
136, 1.83133, 0.0861116, 88.5826, 0, 0, 0, 0.0332031, 0.314453, -9.73926, 1.18.2022 21:5:1.037
137, 1.83133, 0.0861116, 88.5826, 0, -0.000976562, -0.000976562, -0.0185547, 0.323242, -9.7168, 1.18.2022 21:5:1.045
138, 1.83133, 0.0861116, 88.5826, 0, -0.000976562, 0.000976562, 0.000976562, 0.318359, -9.71094, 1.18.2022 21:5:1.053
139, 1.83133, 0.0861116, 88.5826, -0.000976562, 0, 0, 0.0458984, 0.299805, -9.72559, 1.18.2022 21:5:1.061
140, 1.83133, 0.0861116, 88.5826, -0.000976562, -0.000976562, -0.00195312, -0.0644531, 0.329102, -9.74023, 1.18.2022 21:5:1.069
141, 1.83133, 0.0861116, 88.5826, -0.000976562, -0.000976562, -0.00195312, -0.0263672, 0.326172, -9.74023, 1.18.2022 21:5:1.077
142, 1.83133, 0.0861116, 88.5826, 0, 0, -0.00195312, -0.0185547, 0.297852, -9.74414, 1.18.2022 21:5:1.085
143, 1.83133, 0.0861116, 88.5826, -0.000976562, -0.000976562, -0.000976562, -0.0566406, 0.319336, -9.74707, 1.18.2022 21:5:1.093
144, 1.83156, 0.0861859, 88.5925, -0.000976562, -0.000976562, -0.00195312, 0.0244141, 0.313477, -9.72559, 1.18.2022 21:5:1.101
145, 1.83156, 0.0861859, 88.5925, 0, -0.000976562, -0.000976562, -0.0166016, 0.322266, -9.75293, 1.18.2022 21:5:1.109
146, 1.83133, 0.0862696, 88.5926, 0, -0.000976562, -0.000976562, -0.0566406, 0.304688, -9.74121, 1.18.2022 21:5:1.117
147, 1.83133, 0.0862696, 88.5926, 0, -0.000976562, -0.000976562, 0.0390625, 0.280273, -9.72168, 1.18.2022 21:5:1.125
148, 1.83133, 0.0862696, 88.5926, 0, -0.000976562, 0.000976562, -0.0214844, 0.31543, -9.75781, 1.18.2022 21:5:1.133
149, 1.83133, 0.0862696, 88.5926, 0, -0.000976562, -0.000976562, -0.00390625, 0.330078, -9.70996, 1.18.2022 21:5:1.141
150, 1.83133, 0.0862696, 88.5926, 0, 0, 0, 0.0292969, 0.291992, -9.72168, 1.18.2022 21:5:1.149
151, 1.83133, 0.0862696, 88.5926, -0.000976562, 0, 0, -0.0595703, 0.333984, -9.73535, 1.18.2022 21:5:1.157
152, 1.83133, 0.0862696, 88.5926, -0.000976562, -0.000976562, -0.000976562, 0.0146484, 0.297852, -9.7373, 1.18.2022 21:5:1.165
153, 1.83156, 0.0863439, 88.6025, -0.000976562, 0, 0, 0.00976562, 0.276367, -9.75684, 1.18.2022 21:5:1.173
154, 1.83156, 0.0863439, 88.6025, 0, -0.000976562, -0.000976562, -0.0400391, 0.328125, -9.71484, 1.18.2022 21:5:1.181
155, 1.83132, 0.0864275, 88.6026, 0, -0.000976562, -0.00195312, 0.0292969, 0.313477, -9.71875, 1.18.2022 21:5:1.189
156, 1.83132, 0.0864275, 88.6026, 0, -0.000976562, -0.000976562, -0.0166016, 0.304688, -9.72266, 1.18.2022 21:5:1.197
157, 1.83132, 0.0864275, 88.6026, -0.000976562, -0.000976562, -0.000976562, -0.0351562, 0.326172, -9.7334, 1.18.2022 21:5:1.205
158, 1.83132, 0.0864275, 88.6026, -0.000976562, 0, 0, 0.00195312, 0.310547, -9.7627, 1.18.2022 21:5:1.213
159, 1.83132, 0.0864275, 88.6026, 0, -0.000976562, -0.000976562, -0.0761719, 0.319336, -9.74023, 1.18.2022 21:5:1.221
160, 1.83132, 0.0864275, 88.6026, 0, 0, 0.000976562, 0.000976562, 0.313477, -9.71777, 1.18.2022 21:5:1.229
161, 1.83132, 0.0864275, 88.6026, -0.000976562, 0, 0, 0, 0.307617, -9.74609, 1.18.2022 21:5:1.237
162, 1.83132, 0.0864275, 88.6026, -0.000976562, -0.000976562, 0, -0.0712891, 0.317383, -9.7666, 1.18.2022 21:5:1.245
163, 1.83132, 0.0864275, 88.6026, 0, -0.000976562, 0, 0.0390625, 0.306641, -9.71582, 1.18.2022 21:5:1.253
164, 1.83132, 0.0864275, 88.6026, 0, -0.000976562, 0, -0.0283203, 0.297852, -9.74121, 1.18.2022 21:5:1.261
165, 1.83132, 0.0864275, 88.6026, 0, 0, 0, -0.0322266, 0.341797, -9.70703, 1.18.2022 21:5:1.269
166, 1.83132, 0.0864275, 88.6026, 0, 0, 0, 0.0166016, 0.305664, -9.76562, 1.18.2022 21:5:1.277
167, 1.83132, 0.0864275, 88.6026, 0, -0.000976562, 0.000976562, -0.0458984, 0.328125, -9.79492, 1.18.2022 21:5:1.285
168, 1.83132, 0.0864275, 88.6026, -0.000976562, 0, 0, 0.0078125, 0.318359, -9.69629, 1.18.2022 21:5:1.293
169, 1.83132, 0.0864275, 88.6026, -0.000976562, 0, 0, 0.0292969, 0.296875, -9.72852, 1.18.2022 21:5:1.301
170, 1.83132, 0.0864275, 88.6026, 0, 0, -0.00195312, -0.0644531, 0.329102, -9.75391, 1.18.2022 21:5:1.309
171, 1.83132, 0.0864275, 88.6026, 0, 0, 0, 0.0146484, 0.300781, -9.75879, 1.18.2022 21:5:1.317
172, 1.82632, 0.0815435, 88.6028, 0, 0, 0, -0.00683594, 0.301758, -9.71582, 1.18.2022 21:5:1.325
173, 1.82632, 0.0815435, 88.6028, -0.000976562, -0.000976562, -0.00195312, -0.0400391, 0.310547, -9.75488, 1.18.2022 21:5:1.333
174, 1.83132, 0.0864275, 88.6026, -0.000976562, -0.000976562, 0, 0.0390625, 0.291992, -9.72852, 1.18.2022 21:5:1.341
175, 1.83132, 0.0864275, 88.6026, -0.00195312, 0, 0, -0.0351562, 0.301758, -9.70312, 1.18.2022 21:5:1.349
176, 1.83132, 0.0864275, 88.6026, -0.000976562, 0, 0, -0.0166016, 0.306641, -9.72949, 1.18.2022 21:5:1.357
177, 1.83132, 0.0864275, 88.6026, 0, 0, 0, 0.0351562, 0.293945, -9.79492, 1.18.2022 21:5:1.365
178, 1.83132, 0.0864275, 88.6026, 0, -0.000976562, 0, -0.0566406, 0.30957, -9.72656, 1.18.2022 21:5:1.373
179, 1.82632, 0.0815435, 88.6028, 0, 0, 0, -0.00195312, 0.311523, -9.73926, 1.18.2022 21:5:1.381
180, 1.82632, 0.0815435, 88.6028, 0, -0.000976562, 0, -0.0302734, 0.294922, -9.72949, 1.18.2022 21:5:1.389
181, 1.82632, 0.0815435, 88.6028, 0, -0.00195312, 0, -0.0185547, 0.304688, -9.73926, 1.18.2022 21:5:1.397
182, 1.83132, 0.0864275, 88.6026, -0.000976562, -0.000976562, 0, 0.0458984, 0.292969, -9.7334, 1.18.2022 21:5:1.405
183, 1.83132, 0.0864275, 88.6026, -0.000976562, -0.000976562, 0, -0.0332031, 0.316406, -9.72461, 1.18.2022 21:5:1.413
184, 1.83132, 0.0864275, 88.6026, -0.000976562, -0.000976562, 0, -0.0332031, 0.3125, -9.74316, 1.18.2022 21:5:1.421
185, 1.83132, 0.0864275, 88.6026, 0, -0.000976562, 0.000976562, 0.0390625, 0.298828, -9.71191, 1.18.2022 21:5:1.429
186, 1.83132, 0.0864275, 88.6026, 0, -0.000976562, 0.000976562, -0.0517578, 0.330078, -9.71191, 1.18.2022 21:5:1.437
187, 1.83132, 0.0864275, 88.6026, 0, -0.000976562, 0, -0.0273438, 0.325195, -9.71191, 1.18.2022 21:5:1.445
188, 1.83132, 0.0864275, 88.6026, 0, -0.000976562, 0, 0.0078125, 0.294922, -9.73535, 1.18.2022 21:5:1.453
189, 1.83132, 0.0864275, 88.6026, -0.000976562, -0.000976562, 0, -0.0830078, 0.328125, -9.71582, 1.18.2022 21:5:1.461
190, 1.83132, 0.0864275, 88.6026, 0, 0, 0, 0.0234375, 0.308594, -9.77246, 1.18.2022 21:5:1.469
191, 1.83132, 0.0864275, 88.6026, -0.000976562, -0.000976562, 0, -0.0117188, 0.322266, -9.75293, 1.18.2022 21:5:1.477
192, 1.83132, 0.0864275, 88.6026, -0.000976562, 0, -0.000976562, -0.0253906, 0.326172, -9.73145, 1.18.2022 21:5:1.485
193, 1.83132, 0.0864275, 88.6026, 0, 0, -0.000976562, 0.0380859, 0.297852, -9.74512, 1.18.2022 21:5:1.493
194, 1.82632, 0.0815435, 88.6028, 0, 0, -0.000976562, -0.0498047, 0.299805, -9.72461, 1.18.2022 21:5:1.501
195, 1.82632, 0.0815435, 88.6028, -0.000976562, 0, 0.000976562, -0.00878906, 0.317383, -9.68945, 1.18.2022 21:5:1.509
196, 1.82632, 0.0815435, 88.6028, 0, 0, 0.000976562, 0.0078125, 0.304688, -9.74414, 1.18.2022 21:5:1.517
197, 1.82632, 0.0815435, 88.6028, 0, -0.000976562, 0.000976562, -0.0361328, 0.327148, -9.76172, 1.18.2022 21:5:1.525
198, 1.82656, 0.0814603, 88.6027, -0.000976562, 0, -0.000976562, 0.0244141, 0.313477, -9.70898, 1.18.2022 21:5:1.533
199, 1.82656, 0.0814603, 88.6027, -0.000976562, 0, -0.000976562, -0.00488281, 0.304688, -9.74121, 1.18.2022 21:5:1.541
200, 1.82656, 0.0814603, 88.6027, 0, -0.000976562, -0.00195312, -0.0566406, 0.333984, -9.74512, 1.18.2022 21:5:1.549
201, 1.82656, 0.0814603, 88.6027, 0, -0.000976562, -0.000976562, 0.0253906, 0.291992, -9.78711, 1.18.2022 21:5:1.557
202, 1.82632, 0.081386, 88.5928, 0, -0.00195312, -0.000976562, -0.0742188, 0.3125, -9.7666, 1.18.2022 21:5:1.565
203, 1.82632, 0.081386, 88.5928, 0, -0.000976562, 0.000976562, -0.0449219, 0.332031, -9.75391, 1.18.2022 21:5:1.573
204, 1.82632, 0.081386, 88.5928, 0, 0, -0.000976562, 0.00878906, 0.300781, -9.7793, 1.18.2022 21:5:1.579
205, 1.82632, 0.081386, 88.5928, 0, -0.000976562, -0.000976562, -0.0810547, 0.337891, -9.73242, 1.18.2022 21:5:1.587
206, 1.82632, 0.081386, 88.5928, -0.000976562, -0.000976562, -0.000976562, 0.00976562, 0.300781, -9.76562, 1.18.2022 21:5:1.595
207, 1.82632, 0.081386, 88.5928, 0, 0, -0.000976562, -0.00878906, 0.318359, -9.72266, 1.18.2022 21:5:1.603
208, 1.82632, 0.081386, 88.5928, 0, 0, -0.000976562, -0.0449219, 0.347656, -9.72363, 1.18.2022 21:5:1.611
209, 1.82632, 0.081386, 88.5928, -0.000976562, -0.000976562, -0.000976562, 0.0390625, 0.336914, -9.70117, 1.18.2022 21:5:1.619
210, 1.82632, 0.081386, 88.5928, -0.000976562, 0, -0.000976562, -0.0585938, 0.30957, -9.72363, 1.18.2022 21:5:1.627
211, 1.82632, 0.081386, 88.5928, -0.000976562, -0.000976562, -0.000976562, -0.0537109, 0.333008, -9.7168, 1.18.2022 21:5:1.635
212, 1.82632, 0.081386, 88.5928, -0.000976562, -0.000976562, -0.000976562, 0.0175781, 0.275391, -9.72363, 1.18.2022 21:5:1.643
213, 1.82632, 0.081386, 88.5928, 0, -0.000976562, -0.000976562, -0.102539, 0.298828, -9.77051, 1.18.2022 21:5:1.651
214, 1.82632, 0.081386, 88.5928, -0.000976562, -0.000976562, -0.000976562, -0.0126953, 0.323242, -9.7832, 1.18.2022 21:5:1.659
215, 1.82632, 0.081386, 88.5928, 0, 0, -0.000976562, 0.0146484, 0.283203, -9.72168, 1.18.2022 21:5:1.667
216, 1.82632, 0.081386, 88.5928, 0, 0, -0.000976562, -0.0654297, 0.328125, -9.69727, 1.18.2022 21:5:1.675
217, 1.82632, 0.081386, 88.5928, 0, 0, -0.000976562, 0.0439453, 0.318359, -9.72266, 1.18.2022 21:5:1.683
218, 1.82632, 0.081386, 88.5928, -0.000976562, 0, -0.000976562, -0.015625, 0.318359, -9.71973, 1.18.2022 21:5:1.691
219, 1.82632, 0.081386, 88.5928, -0.000976562, 0, -0.000976562, -0.0400391, 0.345703, -9.73242, 1.18.2022 21:5:1.699
220, 1.82632, 0.081386, 88.5928, 0, -0.000976562, -0.000976562, 0.0429688, 0.293945, -9.77539, 1.18.2022 21:5:1.707
221, 1.82632, 0.081386, 88.5928, -0.000976562, -0.000976562, -0.000976562, -0.0449219, 0.321289, -9.74316, 1.18.2022 21:5:1.715
222, 1.82632, 0.081386, 88.5928, 0, -0.000976562, -0.000976562, -0.00195312, 0.316406, -9.73926, 1.18.2022 21:5:1.723
223, 1.82632, 0.081386, 88.5928, -0.000976562, 0, -0.000976562, 0.0244141, 0.290039, -9.72559, 1.18.2022 21:5:1.731
224, 1.82632, 0.081386, 88.5928, 0, -0.000976562, 0, -0.0683594, 0.334961, -9.69922, 1.18.2022 21:5:1.739
225, 1.82632, 0.081386, 88.5928, 0, 0, -0.000976562, 0.0195312, 0.328125, -9.72266, 1.18.2022 21:5:1.747
226, 1.82632, 0.081386, 88.5928, -0.000976562, 0, -0.00195312, -0.0234375, 0.307617, -9.75098, 1.18.2022 21:5:1.755
227, 1.82632, 0.081386, 88.5928, -0.000976562, -0.000976562, -0.000976562, -0.0351562, 0.337891, -9.7168, 1.18.2022 21:5:1.763
228, 1.83156, 0.0861859, 88.5925, -0.000976562, -0.000976562, -0.000976562, 0.0449219, 0.286133, -9.75684, 1.18.2022 21:5:1.771
229, 1.83156, 0.0861859, 88.5925, -0.000976562, 0, 0, -0.0664062, 0.291016, -9.75293, 1.18.2022 21:5:1.779
230, 1.83156, 0.0861859, 88.5925, -0.000976562, -0.000976562, -0.000976562, -0.0546875, 0.333008, -9.72559, 1.18.2022 21:5:1.787
231, 1.83156, 0.0861859, 88.5925, -0.000976562, -0.000976562, -0.000976562, 0.0302734, 0.295898, -9.68555, 1.18.2022 21:5:1.795
232, 1.83133, 0.0861116, 88.5826, -0.000976562, -0.000976562, -0.000976562, -0.0380859, 0.314453, -9.74805, 1.18.2022 21:5:1.803
233, 1.83133, 0.0861116, 88.5826, 0, -0.000976562, -0.000976562, 0.03125, 0.304688, -9.74219, 1.18.2022 21:5:1.811
234, 1.83133, 0.0861116, 88.5826, -0.000976562, -0.000976562, 0, -0.0136719, 0.295898, -9.74414, 1.18.2022 21:5:1.819
235, 1.83133, 0.0861116, 88.5826, -0.000976562, -0.000976562, -0.000976562, -0.0664062, 0.326172, -9.7207, 1.18.2022 21:5:1.827
236, 1.83133, 0.0861116, 88.5826, -0.000976562, -0.000976562, -0.00195312, 0.0361328, 0.314453, -9.7373, 1.18.2022 21:5:1.835
237, 1.83133, 0.0861116, 88.5826, -0.000976562, -0.000976562, -0.000976562, -0.0195312, 0.317383, -9.75488, 1.18.2022 21:5:1.843
238, 1.83133, 0.0861116, 88.5826, -0.000976562, -0.000976562, -0.000976562, -0.0185547, 0.323242, -9.71973, 1.18.2022 21:5:1.851
239, 1.83133, 0.0861116, 88.5826, -0.000976562, 0, -0.000976562, 0.00683594, 0.283203, -9.74707, 1.18.2022 21:5:1.859
240, 1.83133, 0.0861116, 88.5826, -0.000976562, -0.000976562, -0.000976562, -0.0595703, 0.324219, -9.72852, 1.18.2022 21:5:1.867
241, 1.83157, 0.086028, 88.5825, -0.000976562, -0.000976562, -0.000976562, 0, 0.296875, -9.72754, 1.18.2022 21:5:1.875
242, 1.83157, 0.086028, 88.5825, -0.000976562, -0.000976562, 0, 0.000976562, 0.316406, -9.71973, 1.18.2022 21:5:1.883
243, 1.83133, 0.0859537, 88.5726, 0, -0.000976562, -0.000976562, -0.0634766, 0.311523, -9.70996, 1.18.2022 21:5:1.891
244, 1.83133, 0.0859537, 88.5726, 0, -0.000976562, -0.000976562, 0.0527344, 0.282227, -9.71973, 1.18.2022 21:5:1.899
245, 1.83133, 0.0859537, 88.5726, -0.000976562, -0.000976562, -0.000976562, -0.0107422, 0.308594, -9.69922, 1.18.2022 21:5:1.907
246, 1.83133, 0.0859537, 88.5726, -0.000976562, -0.000976562, -0.000976562, -0.0253906, 0.334961, -9.71484, 1.18.2022 21:5:1.915
247, 1.83157, 0.08587, 88.5725, -0.00195312, -0.000976562, -0.000976562, 0.0195312, 0.313477, -9.71777, 1.18.2022 21:5:1.923
248, 1.83657, 0.0907523, 88.5723, -0.00195312, -0.000976562, -0.000976562, -0.0263672, 0.314453, -9.74316, 1.18.2022 21:5:1.931
249, 1.83633, 0.0906781, 88.5624, -0.000976562, 0, -0.000976562, -0.00195312, 0.304688, -9.7373, 1.18.2022 21:5:1.939
250, 1.83633, 0.0906781, 88.5624, -0.000976562, 0, -0.000976562, -0.00195312, 0.299805, -9.72949, 1.18.2022 21:5:1.947
251, 1.83633, 0.0906781, 88.5624, -0.000976562, 0, -0.000976562, -0.0576172, 0.317383, -9.75977, 1.18.2022 21:5:1.955
252, 1.83633, 0.0906781, 88.5624, 0, -0.000976562, -0.000976562, 0.0263672, 0.307617, -9.74902, 1.18.2022 21:5:1.963
253, 1.83633, 0.0906781, 88.5624, 0, 0, -0.000976562, -0.0234375, 0.30957, -9.72656, 1.18.2022 21:5:1.971
254, 1.83657, 0.090594, 88.5623, -0.000976562, 0, -0.000976562, -0.0439453, 0.300781, -9.66797, 1.18.2022 21:5:1.979
255, 1.83657, 0.090594, 88.5623, 0, -0.000976562, -0.000976562, 0.0390625, 0.298828, -9.7002, 1.18.2022 21:5:1.987
256, 1.83657, 0.090594, 88.5623, -0.000976562, -0.000976562, -0.000976562, -0.0449219, 0.30957, -9.73828, 1.18.2022 21:5:1.995
257, 1.83634, 0.0905197, 88.5524, -0.000976562, 0, -0.000976562, -0.0283203, 0.314453, -9.74805, 1.18.2022 21:5:2.003
258, 1.83634, 0.0905197, 88.5524, -0.000976562, -0.000976562, -0.000976562, 0.0341797, 0.27832, -9.7334, 1.18.2022 21:5:2.011
259, 1.83634, 0.0905197, 88.5524, -0.00195312, 0, 0, -0.046875, 0.332031, -9.69336, 1.18.2022 21:5:2.019
260, 1.83634, 0.0905197, 88.5524, -0.000976562, -0.000976562, -0.000976562, 0.0283203, 0.307617, -9.74902, 1.18.2022 21:5:2.027
261, 1.83634, 0.0905197, 88.5524, 0, -0.000976562, -0.000976562, 0.0400391, 0.327148, -9.76758, 1.18.2022 21:5:2.035
262, 1.83634, 0.0905197, 88.5524, -0.000976562, -0.000976562, -0.000976562, -0.0410156, 0.332031, -9.7666, 1.18.2022 21:5:2.043
263, 1.83658, 0.0904356, 88.5523, -0.000976562, 0, -0.00195312, 0.0429688, 0.302734, -9.76562, 1.18.2022 21:5:2.051
264, 1.83658, 0.0904356, 88.5523, 0, 0, -0.00195312, -0.0683594, 0.292969, -9.7334, 1.18.2022 21:5:2.059
265, 1.83658, 0.0904356, 88.5523, -0.000976562, 0, -0.00195312, -0.0253906, 0.337891, -9.72656, 1.18.2022 21:5:2.067
266, 1.83157, 0.0855541, 88.5524, 0, -0.000976562, 0.000976562, 0.0429688, 0.301758, -9.72852, 1.18.2022 21:5:2.075
267, 1.83133, 0.0854798, 88.5425, -0.000976562, -0.000976562, -0.000976562, -0.0664062, 0.333984, -9.74414, 1.18.2022 21:5:2.083
268, 1.83133, 0.0854798, 88.5425, 0, -0.000976562, -0.000976562, -0.0185547, 0.30957, -9.73926, 1.18.2022 21:5:2.091
269, 1.83133, 0.0854798, 88.5425, 0, -0.000976562, -0.000976562, 0.0117188, 0.293945, -9.77734, 1.18.2022 21:5:2.099
270, 1.83133, 0.0854798, 88.5425, -0.000976562, 0, -0.000976562, -0.0625, 0.34375, -9.76074, 1.18.2022 21:5:2.107
271, 1.83133, 0.0854798, 88.5425, -0.000976562, 0, -0.00195312, 0.0263672, 0.279297, -9.75195, 1.18.2022 21:5:2.115
272, 1.83133, 0.0854798, 88.5425, -0.00195312, -0.000976562, -0.000976562, -0.0117188, 0.307617, -9.74609, 1.18.2022 21:5:2.123
273, 1.83133, 0.0854798, 88.5425, -0.000976562, 0, -0.000976562, -0.0166016, 0.304688, -9.74414, 1.18.2022 21:5:2.131
274, 1.83133, 0.0854798, 88.5425, -0.000976562, 0, -0.000976562, 0.0341797, 0.285156, -9.73047, 1.18.2022 21:5:2.139
275, 1.83133, 0.0854798, 88.5425, 0, 0, 0.000976562, -0.0810547, 0.321289, -9.73535, 1.18.2022 21:5:2.147
276, 1.83621, 0.0804725, 88.5425, -0.000976562, 0, -0.000976562, -0.0117188, 0.311523, -9.71777, 1.18.2022 21:5:2.155
277, 1.83621, 0.0804725, 88.5425, -0.000976562, -0.000976562, -0.000976562, 0.0185547, 0.295898, -9.76074, 1.18.2022 21:5:2.163
278, 1.83621, 0.0804725, 88.5425, 0, -0.000976562, -0.000976562, -0.0595703, 0.324219, -9.75879, 1.18.2022 21:5:2.171
279, 1.83133, 0.0854798, 88.5425, -0.000976562, -0.000976562, -0.000976562, 0.00683594, 0.302734, -9.74902, 1.18.2022 21:5:2.179
280, 1.83133, 0.0854798, 88.5425, 0, 0, -0.000976562, -0.0185547, 0.304688, -9.72266, 1.18.2022 21:5:2.187
281, 1.83621, 0.0804725, 88.5425, -0.000976562, 0, -0.000976562, -0.0664062, 0.307617, -9.76172, 1.18.2022 21:5:2.195
282, 1.83621, 0.0804725, 88.5425, 0, -0.000976562, -0.00195312, 0.0283203, 0.27832, -9.74512, 1.18.2022 21:5:2.203
283, 1.83621, 0.0804725, 88.5425, -0.000976562, 0, -0.00195312, -0.0625, 0.325195, -9.76367, 1.18.2022 21:5:2.211
284, 1.83621, 0.0804725, 88.5425, -0.000976562, 0, -0.00195312, -0.03125, 0.3125, -9.76953, 1.18.2022 21:5:2.219
285, 1.83621, 0.0804725, 88.5425, -0.000976562, -0.000976562, -0.000976562, 0.0380859, 0.307617, -9.74707, 1.18.2022 21:5:2.227
286, 1.83621, 0.0804725, 88.5425, -0.000976562, -0.00195312, -0.000976562, -0.0644531, 0.34375, -9.75391, 1.18.2022 21:5:2.235
287, 1.83621, 0.0804725, 88.5425, 0, 0, -0.000976562, -0.00878906, 0.330078, -9.7002, 1.18.2022 21:5:2.243
288, 1.83621, 0.0804725, 88.5425, 0, 0, 0.000976562, -0.0351562, 0.302734, -9.74121, 1.18.2022 21:5:2.251
289, 1.83133, 0.0854798, 88.5425, 0, -0.000976562, 0.000976562, -0.0595703, 0.339844, -9.77246, 1.18.2022 21:5:2.259
290, 1.83133, 0.0854798, 88.5425, -0.000976562, -0.00195312, 0, 0.0576172, 0.297852, -9.73535, 1.18.2022 21:5:2.267
291, 1.83133, 0.0854798, 88.5425, -0.000976562, -0.000976562, 0.000976562, -0.0263672, 0.319336, -9.74121, 1.18.2022 21:5:2.275
292, 1.83133, 0.0854798, 88.5425, -0.000976562, -0.000976562, 0.000976562, 0, 0.3125, -9.74609, 1.18.2022 21:5:2.283
293, 1.83133, 0.0854798, 88.5425, -0.000976562, 0, 0, 0.0146484, 0.283203, -9.73535, 1.18.2022 21:5:2.291
294, 1.83133, 0.0854798, 88.5425, 0, 0, 0, -0.0585938, 0.318359, -9.69531, 1.18.2022 21:5:2.299
295, 1.83133, 0.0854798, 88.5425, -0.000976562, -0.000976562, 0, -0.0136719, 0.341797, -9.69531, 1.18.2022 21:5:2.307
296, 1.83133, 0.0854798, 88.5425, 0, -0.000976562, 0, 0.0136719, 0.313477, -9.77441, 1.18.2022 21:5:2.315
297, 1.83133, 0.0854798, 88.5425, -0.000976562, -0.000976562, 0, -0.0634766, 0.318359, -9.7002, 1.18.2022 21:5:2.323
298, 1.83133, 0.0854798, 88.5425, 0, 0, 0, 0.0166016, 0.305664, -9.75879, 1.18.2022 21:5:2.331
299, 1.83133, 0.0854798, 88.5425, -0.000976562, 0, 0, -0.0332031, 0.292969, -9.74414, 1.18.2022 21:5:2.339
300, 1.83133, 0.0854798, 88.5425, -0.000976562, -0.000976562, 0, -0.0400391, 0.299805, -9.72266, 1.18.2022 21:5:2.347
301, 1.83133, 0.0854798, 88.5425, 0, -0.000976562, 0, 0.0400391, 0.271484, -9.76172, 1.18.2022 21:5:2.355
302, 1.83133, 0.0854798, 88.5425, 0, 0, -0.000976562, -0.0615234, 0.331055, -9.74219, 1.18.2022 21:5:2.363
303, 1.83133, 0.0854798, 88.5425, 0, 0, 0, -0.0146484, 0.300781, -9.76953, 1.18.2022 21:5:2.371
304, 1.83133, 0.0854798, 88.5425, -0.000976562, 0.000976562, 0, 0.00195312, 0.300781, -9.76074, 1.18.2022 21:5:2.379
305, 1.83133, 0.0854798, 88.5425, -0.000976562, 0, 0, -0.0546875, 0.337891, -9.72363, 1.18.2022 21:5:2.387
306, 1.83133, 0.0854798, 88.5425, 0, 0, 0, 0.0263672, 0.294922, -9.73047, 1.18.2022 21:5:2.395
307, 1.83133, 0.0854798, 88.5425, -0.000976562, -0.000976562, 0, 0.00195312, 0.28418, -9.75879, 1.18.2022 21:5:2.403
308, 1.83133, 0.0854798, 88.5425, 0, -0.000976562, 0, -0.0585938, 0.311523, -9.71484, 1.18.2022 21:5:2.411
309, 1.83133, 0.0854798, 88.5425, 0, -0.000976562, 0, 0.0195312, 0.27832, -9.74023, 1.18.2022 21:5:2.419
310, 1.83133, 0.0854798, 88.5425, -0.000976562, 0, 0, -0.0458984, 0.327148, -9.76367, 1.18.2022 21:5:2.427
311, 1.83133, 0.0854798, 88.5425, -0.000976562, -0.000976562, 0, -0.0185547, 0.335938, -9.74316, 1.18.2022 21:5:2.435
312, 1.83133, 0.0854798, 88.5425, -0.000976562, -0.000976562, 0, 0.0146484, 0.314453, -9.73438, 1.18.2022 21:5:2.443
313, 1.83133, 0.0854798, 88.5425, 0, -0.000976562, 0, -0.0683594, 0.334961, -9.71094, 1.18.2022 21:5:2.451
314, 1.83133, 0.0854798, 88.5425, -0.000976562, 0, 0, 0.0263672, 0.316406, -9.7373, 1.18.2022 21:5:2.459
315, 1.83133, 0.0854798, 88.5425, -0.000976562, -0.000976562, 0, -0.0185547, 0.27832, -9.72754, 1.18.2022 21:5:2.467
316, 1.83133, 0.0854798, 88.5425, 0, -0.000976562, 0, -0.0664062, 0.306641, -9.73145, 1.18.2022 21:5:2.475
317, 1.83133, 0.0854798, 88.5425, 0, -0.000976562, 0.000976562, 0.0410156, 0.289062, -9.7002, 1.18.2022 21:5:2.483
318, 1.83133, 0.0854798, 88.5425, -0.00195312, 0, 0, -0.0498047, 0.30957, -9.74512, 1.18.2022 21:5:2.491
319, 1.83133, 0.0854798, 88.5425, -0.000976562, 0, -0.000976562, -0.0498047, 0.332031, -9.76562, 1.18.2022 21:5:2.499
320, 1.83133, 0.0854798, 88.5425, -0.00195312, -0.000976562, -0.000976562, 0.0244141, 0.282227, -9.71191, 1.18.2022 21:5:2.507
321, 1.83133, 0.0854798, 88.5425, -0.000976562, 0, -0.000976562, -0.0664062, 0.306641, -9.71973, 1.18.2022 21:5:2.515
322, 1.83133, 0.0854798, 88.5425, -0.000976562, -0.000976562, 0.000976562, -0.0117188, 0.322266, -9.75781, 1.18.2022 21:5:2.523
323, 1.83133, 0.0854798, 88.5425, -0.000976562, -0.000976562, -0.000976562, 0.0214844, 0.311523, -9.72754, 1.18.2022 21:5:2.531
324, 1.83133, 0.0854798, 88.5425, -0.000976562, 0, -0.000976562, -0.0566406, 0.317383, -9.74512, 1.18.2022 21:5:2.539
325, 1.83157, 0.0855541, 88.5524, 0, 0, -0.000976562, 0.0400391, 0.291016, -9.75879, 1.18.2022 21:5:2.547
326, 1.83157, 0.0855541, 88.5524, 0, -0.000976562, -0.000976562, -0.0332031, 0.311523, -9.72168, 1.18.2022 21:5:2.555
327, 1.83157, 0.0855541, 88.5524, -0.000976562, -0.000976562, -0.000976562, -0.03125, 0.329102, -9.75195, 1.18.2022 21:5:2.561
328, 1.83157, 0.0855541, 88.5524, -0.000976562, -0.000976562, -0.00195312, 0.0244141, 0.321289, -9.7207, 1.18.2022 21:5:2.569
329, 1.83133, 0.0856378, 88.5526, -0.000976562, -0.000976562, -0.000976562, -0.0703125, 0.344727, -9.71582, 1.18.2022 21:5:2.577
330, 1.83133, 0.0856378, 88.5526, 0, 0, 0.000976562, -0.0166016, 0.342773, -9.74316, 1.18.2022 21:5:2.585
331, 1.83133, 0.0856378, 88.5526, 0, 0, -0.000976562, 0.00292969, 0.301758, -9.71777, 1.18.2022 21:5:2.593
332, 1.83133, 0.0856378, 88.5526, -0.000976562, -0.000976562, -0.000976562, -0.0664062, 0.324219, -9.74023, 1.18.2022 21:5:2.601
333, 1.83133, 0.0856378, 88.5526, -0.000976562, -0.000976562, -0.000976562, 0.0107422, 0.290039, -9.79688, 1.18.2022 21:5:2.609
334, 1.83133, 0.0856378, 88.5526, 0, -0.000976562, 0, -0.03125, 0.3125, -9.75488, 1.18.2022 21:5:2.617
335, 1.83133, 0.0856378, 88.5526, 0, 0, -0.000976562, -0.0478516, 0.329102, -9.76172, 1.18.2022 21:5:2.625
336, 1.83133, 0.0856378, 88.5526, 0, 0, -0.000976562, 0.00488281, 0.285156, -9.7373, 1.18.2022 21:5:2.633
337, 1.83133, 0.0856378, 88.5526, 0, 0, -0.000976562, -0.0527344, 0.322266, -9.75195, 1.18.2022 21:5:2.641
338, 1.83157, 0.0857121, 88.5624, -0.000976562, -0.000976562, -0.000976562, -0.0263672, 0.306641, -9.78418, 1.18.2022 21:5:2.649
339, 1.83157, 0.0857121, 88.5624, 0, -0.000976562, -0.000976562, -0.0478516, 0.295898, -9.75488, 1.18.2022 21:5:2.657
340, 1.83157, 0.0857121, 88.5624, -0.000976562, 0, -0.000976562, -0.0664062, 0.34082, -9.74902, 1.18.2022 21:5:2.665
341, 1.83157, 0.0857121, 88.5624, -0.000976562, -0.000976562, -0.000976562, 0.0351562, 0.297852, -9.76367, 1.18.2022 21:5:2.673
342, 1.83157, 0.0857121, 88.5624, -0.000976562, -0.000976562, -0.000976562, 0.0117188, 0.305664, -9.75879, 1.18.2022 21:5:2.681
343, 1.83157, 0.0857121, 88.5624, -0.000976562, 0, 0.000976562, -0.0332031, 0.34082, -9.75, 1.18.2022 21:5:2.689
344, 1.83157, 0.0857121, 88.5624, -0.000976562, 0, 0.000976562, 0.0214844, 0.304688, -9.73242, 1.18.2022 21:5:2.697
345, 1.83157, 0.0857121, 88.5624, 0, -0.000976562, -0.000976562, -0.0117188, 0.304688, -9.73438, 1.18.2022 21:5:2.705
346, 1.83157, 0.0857121, 88.5624, -0.000976562, -0.000976562, -0.000976562, -0.0195312, 0.322266, -9.77637, 1.18.2022 21:5:2.713
347, 1.83157, 0.0857121, 88.5624, -0.000976562, -0.000976562, -0.000976562, 0.0117188, 0.322266, -9.75781, 1.18.2022 21:5:2.721
348, 1.83133, 0.0857957, 88.5626, -0.000976562, -0.000976562, -0.000976562, -0.0615234, 0.321289, -9.73828, 1.18.2022 21:5:2.729
349, 1.83133, 0.0857957, 88.5626, 0, 0, -0.000976562, -0.00195312, 0.3125, -9.75781, 1.18.2022 21:5:2.737
350, 1.83133, 0.0857957, 88.5626, 0, -0.000976562, -0.000976562, -0.0224609, 0.301758, -9.70117, 1.18.2022 21:5:2.745
351, 1.83133, 0.0857957, 88.5626, -0.000976562, 0, 0.000976562, -0.0517578, 0.316406, -9.73535, 1.18.2022 21:5:2.753
352, 1.83133, 0.0857957, 88.5626, -0.000976562, -0.000976562, 0, 0.0283203, 0.286133, -9.75, 1.18.2022 21:5:2.761
353, 1.83133, 0.0857957, 88.5626, -0.000976562, -0.000976562, -0.000976562, -0.0195312, 0.290039, -9.79102, 1.18.2022 21:5:2.769
354, 1.83133, 0.0857957, 88.5626, -0.000976562, -0.000976562, -0.000976562, -0.0253906, 0.289062, -9.69238, 1.18.2022 21:5:2.777
355, 1.83133, 0.0857957, 88.5626, -0.000976562, 0, -0.000976562, 0.0263672, 0.299805, -9.74219, 1.18.2022 21:5:2.785
356, 1.83133, 0.0857957, 88.5626, -0.000976562, 0, -0.000976562, -0.0615234, 0.303711, -9.71191, 1.18.2022 21:5:2.793
357, 1.83157, 0.08587, 88.5725, -0.000976562, -0.000976562, -0.00195312, -0.0107422, 0.338867, -9.68359, 1.18.2022 21:5:2.801
358, 1.83157, 0.08587, 88.5725, -0.000976562, 0, -0.000976562, 0.00976562, 0.261719, -9.74805, 1.18.2022 21:5:2.809
359, 1.83157, 0.08587, 88.5725, 0, -0.000976562, -0.000976562, -0.0683594, 0.302734, -9.73145, 1.18.2022 21:5:2.817
360, 1.83157, 0.08587, 88.5725, 0, 0, 0, 0.0332031, 0.305664, -9.77734, 1.18.2022 21:5:2.825
361, 1.83133, 0.0857957, 88.5626, 0, -0.000976562, -0.000976562, -0.00195312, 0.304688, -9.73438, 1.18.2022 21:5:2.833
362, 1.83133, 0.0857957, 88.5626, 0, -0.000976562, -0.000976562, -0.0566406, 0.328125, -9.71191, 1.18.2022 21:5:2.841
363, 1.83133, 0.0857957, 88.5626, -0.000976562, -0.000976562, -0.000976562, 0.0185547, 0.308594, -9.7793, 1.18.2022 21:5:2.849
364, 1.83133, 0.0857957, 88.5626, 0, 0, -0.000976562, -0.0517578, 0.30957, -9.72461, 1.18.2022 21:5:2.857
365, 1.83133, 0.0857957, 88.5626, 0, 0, -0.000976562, -0.0449219, 0.333008, -9.71875, 1.18.2022 21:5:2.865
366, 1.83133, 0.0857957, 88.5626, -0.000976562, -0.000976562, -0.000976562, 0.0126953, 0.277344, -9.69824, 1.18.2022 21:5:2.873
367, 1.83133, 0.0857957, 88.5626, -0.000976562, -0.000976562, 0, -0.0849609, 0.324219, -9.73047, 1.18.2022 21:5:2.881
368, 1.83133, 0.0857957, 88.5626, -0.000976562, -0.000976562, -0.000976562, 0.0126953, 0.311523, -9.72559, 1.18.2022 21:5:2.889
369, 1.83133, 0.0857957, 88.5626, 0, -0.000976562, -0.000976562, 0.0146484, 0.321289, -9.72754, 1.18.2022 21:5:2.897
370, 1.83133, 0.0857957, 88.5626, 0, -0.000976562, -0.000976562, -0.046875, 0.316406, -9.73633, 1.18.2022 21:5:2.905
371, 1.83133, 0.0857957, 88.5626, -0.00195312, 0, -0.000976562, 0.03125, 0.306641, -9.71387, 1.18.2022 21:5:2.913
372, 1.83133, 0.0857957, 88.5626, 0, 0, -0.000976562, -0.0283203, 0.319336, -9.73828, 1.18.2022 21:5:2.921
373, 1.83133, 0.0857957, 88.5626, -0.000976562, -0.000976562, -0.000976562, -0.0283203, 0.326172, -9.72656, 1.18.2022 21:5:2.929
374, 1.83133, 0.0857957, 88.5626, -0.00195312, 0.000976562, -0.000976562, 0.00683594, 0.286133, -9.75684, 1.18.2022 21:5:2.937
375, 1.83133, 0.0857957, 88.5626, -0.000976562, -0.000976562, -0.000976562, -0.0664062, 0.319336, -9.72559, 1.18.2022 21:5:2.945
376, 1.83133, 0.0857957, 88.5626, -0.000976562, 0, -0.000976562, 0, 0.304688, -9.73242, 1.18.2022 21:5:2.953
377, 1.83133, 0.0857957, 88.5626, -0.000976562, 0, -0.000976562, -0.00390625, 0.294922, -9.71387, 1.18.2022 21:5:2.961
378, 1.83133, 0.0857957, 88.5626, -0.000976562, 0, -0.00195312, -0.0712891, 0.363281, -9.75781, 1.18.2022 21:5:2.969
379, 1.83133, 0.0857957, 88.5626, -0.000976562, -0.000976562, -0.000976562, 0.0117188, 0.302734, -9.73926, 1.18.2022 21:5:2.977
380, 1.83133, 0.0857957, 88.5626, 0, 0, -0.000976562, -0.0283203, 0.298828, -9.71094, 1.18.2022 21:5:2.985
381, 1.83133, 0.0857957, 88.5626, 0, 0, -0.00195312, -0.0419922, 0.301758, -9.72949, 1.18.2022 21:5:2.993
382, 1.83133, 0.0857957, 88.5626, -0.000976562, 0, -0.000976562, 0.0341797, 0.275391, -9.72168, 1.18.2022 21:5:3.001
383, 1.83133, 0.0857957, 88.5626, -0.000976562, -0.000976562, -0.000976562, -0.0400391, 0.313477, -9.71484, 1.18.2022 21:5:3.009
384, 1.83133, 0.0857957, 88.5626, 0, -0.000976562, 0, 0.00292969, 0.308594, -9.71289, 1.18.2022 21:5:3.017
385, 1.83157, 0.0857121, 88.5624, -0.000976562, -0.000976562, 0, 0.0410156, 0.302734, -9.74023, 1.18.2022 21:5:3.025
386, 1.83157, 0.0857121, 88.5624, -0.000976562, -0.000976562, 0, -0.0527344, 0.314453, -9.75195, 1.18.2022 21:5:3.033
387, 1.83157, 0.0857121, 88.5624, 0, 0, 0, 0.0351562, 0.307617, -9.77051, 1.18.2022 21:5:3.041
388, 1.83133, 0.0856378, 88.5526, 0, -0.000976562, 0, -0.0166016, 0.286133, -9.75586, 1.18.2022 21:5:3.049
389, 1.83133, 0.0856378, 88.5526, -0.000976562, 0, 0, -0.0283203, 0.304688, -9.73438, 1.18.2022 21:5:3.057
390, 1.83133, 0.0856378, 88.5526, -0.000976562, 0, 0, 0.0224609, 0.275391, -9.71191, 1.18.2022 21:5:3.065
391, 1.83133, 0.0856378, 88.5526, -0.000976562, 0, 0, -0.0410156, 0.305664, -9.7627, 1.18.2022 21:5:3.073
392, 1.83133, 0.0856378, 88.5526, 0, -0.000976562, 0, -0.0117188, 0.328125, -9.72949, 1.18.2022 21:5:3.081
393, 1.83133, 0.0856378, 88.5526, -0.000976562, -0.000976562, 0, 0.0146484, 0.302734, -9.74414, 1.18.2022 21:5:3.089
394, 1.83133, 0.0856378, 88.5526, -0.000976562, 0, 0, -0.0732422, 0.321289, -9.70898, 1.18.2022 21:5:3.097
395, 1.83133, 0.0856378, 88.5526, 0, 0, 0, -0.0146484, 0.310547, -9.75586, 1.18.2022 21:5:3.105
396, 1.83157, 0.0855541, 88.5524, 0, -0.000976562, 0, -0.0175781, 0.293945, -9.7793, 1.18.2022 21:5:3.113
397, 1.83157, 0.0855541, 88.5524, 0, 0, 0, -0.0576172, 0.293945, -9.7793, 1.18.2022 21:5:3.121
398, 1.83157, 0.0855541, 88.5524, 0, -0.000976562, -0.00195312, 0.0449219, 0.300781, -9.75684, 1.18.2022 21:5:3.129
399, 1.83157, 0.0855541, 88.5524, 0, 0, 0, -0.0205078, 0.320312, -9.69141, 1.18.2022 21:5:3.137
400, 1.83157, 0.0855541, 88.5524, 0, -0.000976562, 0.000976562, -0.03125, 0.335938, -9.74707, 1.18.2022 21:5:3.145
401, 1.83157, 0.0855541, 88.5524, -0.000976562, 0, 0.000976562, 0.0214844, 0.3125, -9.74219, 1.18.2022 21:5:3.153
402, 1.83157, 0.0855541, 88.5524, -0.000976562, 0, 0, -0.0683594, 0.314453, -9.73828, 1.18.2022 21:5:3.161
403, 1.83157, 0.0855541, 88.5524, -0.000976562, 0, -0.00195312, -0.0253906, 0.280273, -9.70898, 1.18.2022 21:5:3.169
404, 1.83157, 0.0855541, 88.5524, -0.000976562, -0.000976562, 0, -0.0136719, 0.290039, -9.71387, 1.18.2022 21:5:3.177
405, 1.83157, 0.0855541, 88.5524, 0, 0, 0, -0.0615234, 0.333008, -9.72559, 1.18.2022 21:5:3.185
406, 1.83157, 0.0855541, 88.5524, -0.000976562, -0.000976562, 0.000976562, 0.0341797, 0.299805, -9.73047, 1.18.2022 21:5:3.193
407, 1.83133, 0.0854798, 88.5425, -0.000976562, -0.000976562, 0, -0.0302734, 0.331055, -9.72168, 1.18.2022 21:5:3.201
408, 1.83133, 0.0854798, 88.5425, -0.000976562, 0, 0, -0.0517578, 0.3125, -9.73828, 1.18.2022 21:5:3.209
409, 1.83133, 0.0854798, 88.5425, 0, 0, 0, 0.0332031, 0.28125, -9.74512, 1.18.2022 21:5:3.217
410, 1.83157, 0.0855541, 88.5524, -0.000976562, -0.000976562, 0, -0.0507812, 0.318359, -9.7832, 1.18.2022 21:5:3.225
411, 1.83133, 0.0854798, 88.5425, -0.000976562, 0, 0.000976562, -0.0117188, 0.326172, -9.74805, 1.18.2022 21:5:3.233
412, 1.83133, 0.0854798, 88.5425, -0.000976562, 0, 0, 0.0136719, 0.291016, -9.76367, 1.18.2022 21:5:3.241
413, 1.83133, 0.0854798, 88.5425, -0.000976562, 0, 0, -0.0585938, 0.326172, -9.72168, 1.18.2022 21:5:3.249
414, 1.83157, 0.0855541, 88.5524, -0.000976562, -0.000976562, 0, 0.0166016, 0.297852, -9.74707, 1.18.2022 21:5:3.257
415, 1.83157, 0.0855541, 88.5524, -0.000976562, -0.000976562, 0, -0.0214844, 0.307617, -9.76465, 1.18.2022 21:5:3.265
416, 1.83157, 0.0855541, 88.5524, -0.00195312, -0.000976562, -0.000976562, -0.0449219, 0.307617, -9.74805, 1.18.2022 21:5:3.273
417, 1.83157, 0.0855541, 88.5524, -0.000976562, -0.000976562, -0.000976562, 0.03125, 0.30957, -9.75195, 1.18.2022 21:5:3.281
418, 1.83157, 0.0855541, 88.5524, 0, 0, -0.000976562, -0.0400391, 0.342773, -9.72852, 1.18.2022 21:5:3.289
419, 1.83157, 0.0855541, 88.5524, -0.000976562, -0.000976562, -0.000976562, -0.0429688, 0.332031, -9.76172, 1.18.2022 21:5:3.297
420, 1.83157, 0.0855541, 88.5524, 0, 0, -0.000976562, 0.00488281, 0.290039, -9.73047, 1.18.2022 21:5:3.305
421, 1.83157, 0.0855541, 88.5524, 0, -0.000976562, -0.000976562, -0.0761719, 0.352539, -9.74609, 1.18.2022 21:5:3.313
422, 1.83133, 0.0856378, 88.5526, -0.000976562, 0, -0.000976562, 0.0244141, 0.297852, -9.7373, 1.18.2022 21:5:3.321
423, 1.83133, 0.0856378, 88.5526, -0.000976562, -0.000976562, -0.000976562, -0.0117188, 0.304688, -9.73633, 1.18.2022 21:5:3.329
424, 1.83133, 0.0856378, 88.5526, -0.000976562, 0, 0.000976562, -0.0615234, 0.329102, -9.74219, 1.18.2022 21:5:3.337
425, 1.83133, 0.0856378, 88.5526, -0.000976562, -0.000976562, -0.000976562, 0.0410156, 0.294922, -9.7168, 1.18.2022 21:5:3.345
426, 1.83133, 0.0856378, 88.5526, 0, -0.00195312, -0.000976562, -0.0449219, 0.316406, -9.7168, 1.18.2022 21:5:3.353
427, 1.83133, 0.0856378, 88.5526, 0, -0.000976562, 0, -0.0419922, 0.318359, -9.71484, 1.18.2022 21:5:3.361
428, 1.83133, 0.0856378, 88.5526, -0.000976562, -0.000976562, -0.000976562, 0.00976562, 0.30957, -9.73242, 1.18.2022 21:5:3.369
429, 1.83133, 0.0856378, 88.5526, 0, 0, -0.00195312, -0.0634766, 0.314453, -9.72656, 1.18.2022 21:5:3.377
430, 1.83133, 0.0856378, 88.5526, 0, -0.000976562, -0.000976562, 0.0078125, 0.286133, -9.74219, 1.18.2022 21:5:3.385
431, 1.83133, 0.0856378, 88.5526, -0.000976562, -0.000976562, -0.000976562, -0.00878906, 0.275391, -9.7168, 1.18.2022 21:5:3.393
432, 1.83133, 0.0856378, 88.5526, 0, -0.000976562, 0, -0.0400391, 0.313477, -9.7168, 1.18.2022 21:5:3.401
433, 1.83157, 0.0857121, 88.5624, -0.000976562, 0, -0.00195312, 0.03125, 0.30957, -9.73047, 1.18.2022 21:5:3.409
434, 1.83157, 0.0857121, 88.5624, -0.000976562, -0.000976562, -0.000976562, -0.0332031, 0.316406, -9.72656, 1.18.2022 21:5:3.417
435, 1.83157, 0.0857121, 88.5624, -0.000976562, -0.000976562, -0.000976562, -0.0244141, 0.3125, -9.76953, 1.18.2022 21:5:3.425
436, 1.83133, 0.0857957, 88.5626, -0.000976562, -0.000976562, -0.000976562, 0.0185547, 0.291992, -9.77734, 1.18.2022 21:5:3.433
437, 1.83133, 0.0857957, 88.5626, -0.000976562, 0, -0.00195312, -0.0898438, 0.320312, -9.69922, 1.18.2022 21:5:3.441
438, 1.83133, 0.0857957, 88.5626, -0.000976562, 0, -0.00195312, -0.0205078, 0.323242, -9.72852, 1.18.2022 21:5:3.449
439, 1.83133, 0.0857957, 88.5626, -0.000976562, -0.000976562, -0.000976562, -0.00390625, 0.318359, -9.70605, 1.18.2022 21:5:3.457
440, 1.83133, 0.0857957, 88.5626, -0.000976562, 0, -0.000976562, -0.0546875, 0.328125, -9.72168, 1.18.2022 21:5:3.465
441, 1.83133, 0.0857957, 88.5626, -0.000976562, -0.000976562, -0.000976562, 0.0283203, 0.332031, -9.75781, 1.18.2022 21:5:3.473
442, 1.83133, 0.0857957, 88.5626, -0.000976562, 0, -0.000976562, -0.00195312, 0.306641, -9.71582, 1.18.2022 21:5:3.481
443, 1.83133, 0.0857957, 88.5626, -0.000976562, 0, -0.000976562, -0.0458984, 0.334961, -9.76855, 1.18.2022 21:5:3.489
444, 1.83133, 0.0857957, 88.5626, -0.000976562, -0.000976562, -0.000976562, 0.0478516, 0.296875, -9.73047, 1.18.2022 21:5:3.497
445, 1.83133, 0.0857957, 88.5626, -0.000976562, -0.000976562, 0.000976562, -0.0351562, 0.352539, -9.74707, 1.18.2022 21:5:3.505
446, 1.83133, 0.0857957, 88.5626, 0, -0.000976562, -0.000976562, -0.0185547, 0.319336, -9.74609, 1.18.2022 21:5:3.513
447, 1.83133, 0.0857957, 88.5626, 0, 0, -0.000976562, 0.0214844, 0.310547, -9.77539, 1.18.2022 21:5:3.521
448, 1.83133, 0.0857957, 88.5626, 0, 0, 0, -0.0341797, 0.325195, -9.77832, 1.18.2022 21:5:3.529
449, 1.83133, 0.0857957, 88.5626, 0, 0, 0, 0.0449219, 0.3125, -9.76562, 1.18.2022 21:5:3.535
450, 1.83133, 0.0857957, 88.5626, 0, 0, 0, -0.0166016, 0.297852, -9.73926, 1.18.2022 21:5:3.543
451, 1.83133, 0.0857957, 88.5626, 0, -0.000976562, -0.000976562, -0.0253906, 0.316406, -9.72949, 1.18.2022 21:5:3.551
452, 1.83133, 0.0857957, 88.5626, -0.000976562, 0, -0.00195312, 0.0429688, 0.299805, -9.74512, 1.18.2022 21:5:3.559
453, 1.83133, 0.0857957, 88.5626, -0.000976562, 0, 0, -0.03125, 0.303711, -9.76953, 1.18.2022 21:5:3.567
454, 1.83133, 0.0857957, 88.5626, 0, -0.000976562, -0.000976562, -0.0429688, 0.34375, -9.74707, 1.18.2022 21:5:3.575
455, 1.83133, 0.0857957, 88.5626, -0.000976562, 0, 0, 0.0185547, 0.308594, -9.7793, 1.18.2022 21:5:3.583
456, 1.83133, 0.0857957, 88.5626, 0, -0.000976562, -0.000976562, -0.0791016, 0.320312, -9.76172, 1.18.2022 21:5:3.591
457, 1.83133, 0.0857957, 88.5626, 0, -0.000976562, -0.000976562, 0.0224609, 0.316406, -9.71582, 1.18.2022 21:5:3.599
458, 1.83133, 0.0857957, 88.5626, 0, -0.000976562, 0.000976562, -0.0146484, 0.317383, -9.75293, 1.18.2022 21:5:3.607
459, 1.83157, 0.08587, 88.5725, 0, -0.000976562, 0.000976562, -0.0615234, 0.326172, -9.72559, 1.18.2022 21:5:3.615
460, 1.83157, 0.08587, 88.5725, -0.000976562, -0.000976562, 0.000976562, 0.00976562, 0.294922, -9.72559, 1.18.2022 21:5:3.623
461, 1.83157, 0.08587, 88.5725, -0.000976562, 0, 0, -0.03125, 0.317383, -9.74316, 1.18.2022 21:5:3.631
462, 1.83157, 0.08587, 88.5725, -0.000976562, 0, 0, -0.0371094, 0.333008, -9.70996, 1.18.2022 21:5:3.639
463, 1.83157, 0.08587, 88.5725, 0, 0, 0, 0.0263672, 0.296875, -9.72363, 1.18.2022 21:5:3.647
464, 1.83157, 0.08587, 88.5725, 0, 0, -0.00195312, -0.0712891, 0.316406, -9.73047, 1.18.2022 21:5:3.655
465, 1.83157, 0.08587, 88.5725, 0, -0.000976562, -0.000976562, -0.0351562, 0.316406, -9.70801, 1.18.2022 21:5:3.663
466, 1.83157, 0.08587, 88.5725, 0, -0.000976562, -0.000976562, -0.0078125, 0.300781, -9.76562, 1.18.2022 21:5:3.671
467, 1.83157, 0.08587, 88.5725, -0.000976562, -0.000976562, -0.00195312, -0.0644531, 0.326172, -9.74219, 1.18.2022 21:5:3.679
468, 1.83157, 0.08587, 88.5725, -0.000976562, -0.000976562, -0.000976562, 0.0644531, 0.307617, -9.77051, 1.18.2022 21:5:3.687
469, 1.83157, 0.08587, 88.5725, -0.000976562, -0.000976562, -0.000976562, -0.0302734, 0.318359, -9.71484, 1.18.2022 21:5:3.695
470, 1.83157, 0.08587, 88.5725, -0.000976562, -0.000976562, -0.00195312, -0.0380859, 0.307617, -9.75293, 1.18.2022 21:5:3.703
471, 1.83157, 0.08587, 88.5725, 0, -0.000976562, -0.000976562, 0.0400391, 0.297852, -9.75879, 1.18.2022 21:5:3.711
472, 1.83157, 0.08587, 88.5725, -0.000976562, -0.000976562, -0.000976562, -0.0566406, 0.314453, -9.74512, 1.18.2022 21:5:3.719
473, 1.83157, 0.08587, 88.5725, -0.000976562, -0.000976562, -0.00195312, -0.0234375, 0.306641, -9.71094, 1.18.2022 21:5:3.727
474, 1.83157, 0.08587, 88.5725, 0, -0.000976562, -0.00195312, 0.03125, 0.291016, -9.74512, 1.18.2022 21:5:3.735
475, 1.83157, 0.08587, 88.5725, -0.000976562, -0.000976562, -0.000976562, -0.0625, 0.333984, -9.76367, 1.18.2022 21:5:3.743
476, 1.83157, 0.08587, 88.5725, -0.000976562, -0.000976562, -0.000976562, 0.0146484, 0.314453, -9.74609, 1.18.2022 21:5:3.751
477, 1.83157, 0.08587, 88.5725, 0, -0.000976562, -0.000976562, -0.0283203, 0.324219, -9.75684, 1.18.2022 21:5:3.759
478, 1.82669, 0.0908761, 88.5725, -0.000976562, -0.000976562, -0.000976562, -0.0664062, 0.320312, -9.76172, 1.18.2022 21:5:3.767
479, 1.82669, 0.0908761, 88.5725, 0, -0.000976562, -0.000976562, 0.0244141, 0.325195, -9.71289, 1.18.2022 21:5:3.775
480, 1.82669, 0.0908761, 88.5725, -0.000976562, -0.000976562, 0, -0.0449219, 0.302734, -9.75781, 1.18.2022 21:5:3.783
481, 1.82669, 0.0908761, 88.5725, -0.000976562, -0.000976562, 0, -0.0351562, 0.299805, -9.73438, 1.18.2022 21:5:3.791
482, 1.82669, 0.0908761, 88.5725, 0, -0.000976562, -0.00195312, 0, 0.28125, -9.74219, 1.18.2022 21:5:3.799
483, 1.82645, 0.0909598, 88.5726, 0, 0, 0.000976562, -0.0664062, 0.311523, -9.72168, 1.18.2022 21:5:3.807
484, 1.82645, 0.0909598, 88.5726, 0, -0.000976562, 0, 0.00585938, 0.317383, -9.68945, 1.18.2022 21:5:3.815
485, 1.82645, 0.0909598, 88.5726, -0.000976562, -0.000976562, 0, 0, 0.297852, -9.74902, 1.18.2022 21:5:3.823
486, 1.82645, 0.0909598, 88.5726, 0, 0, 0.000976562, -0.0546875, 0.331055, -9.74023, 1.18.2022 21:5:3.831
487, 1.82645, 0.0909598, 88.5726, 0, 0, 0.000976562, 0.0449219, 0.283203, -9.75195, 1.18.2022 21:5:3.839
488, 1.82645, 0.0909598, 88.5726, 0, -0.000976562, 0, -0.0146484, 0.317383, -9.75488, 1.18.2022 21:5:3.847
489, 1.82645, 0.0909598, 88.5726, 0, -0.000976562, 0.000976562, -0.0332031, 0.332031, -9.75195, 1.18.2022 21:5:3.855
490, 1.82645, 0.0909598, 88.5726, -0.000976562, -0.000976562, 0, 0.0341797, 0.306641, -9.73535, 1.18.2022 21:5:3.863
491, 1.82645, 0.0909598, 88.5726, 0, 0, 0, -0.0615234, 0.327148, -9.75, 1.18.2022 21:5:3.871
492, 1.82669, 0.0908761, 88.5725, 0, 0, 0, -0.0185547, 0.323242, -9.70801, 1.18.2022 21:5:3.879
493, 1.82669, 0.0908761, 88.5725, -0.000976562, -0.000976562, 0, 0.00976562, 0.313477, -9.71582, 1.18.2022 21:5:3.887
494, 1.82669, 0.0908761, 88.5725, 0, -0.000976562, 0, -0.0664062, 0.323242, -9.71191, 1.18.2022 21:5:3.895
495, 1.82669, 0.0908761, 88.5725, -0.000976562, 0, 0, 0.0341797, 0.28418, -9.70703, 1.18.2022 21:5:3.903
496, 1.82669, 0.0908761, 88.5725, -0.000976562, 0, 0, -0.0361328, 0.313477, -9.77637, 1.18.2022 21:5:3.911
497, 1.83157, 0.08587, 88.5725, -0.000976562, -0.000976562, 0, -0.0253906, 0.333008, -9.7168, 1.18.2022 21:5:3.919
498, 1.83157, 0.08587, 88.5725, 0, -0.000976562, 0, 0.0429688, 0.298828, -9.77344, 1.18.2022 21:5:3.927
499, 1.83157, 0.08587, 88.5725, -0.000976562, 0, -0.000976562, -0.0615234, 0.314453, -9.74316, 1.18.2022 21:5:3.935
500, 1.83157, 0.08587, 88.5725, -0.000976562, 0, 0, -0.00683594, 0.318359, -9.71973, 1.18.2022 21:5:3.943
501, 1.83133, 0.0859537, 88.5726, -0.000976562, 0, 0, 0.0126953, 0.294922, -9.7207, 1.18.2022 21:5:3.951
502, 1.83157, 0.08587, 88.5725, 0, -0.000976562, 0.000976562, -0.0712891, 0.331055, -9.72559, 1.18.2022 21:5:3.959
503, 1.83157, 0.08587, 88.5725, -0.000976562, 0, 0, 0.0224609, 0.270508, -9.7168, 1.18.2022 21:5:3.967
504, 1.83157, 0.08587, 88.5725, -0.000976562, -0.000976562, 0, -0.00683594, 0.297852, -9.75391, 1.18.2022 21:5:3.975
505, 1.83157, 0.08587, 88.5725, -0.00195312, -0.000976562, 0, -0.0517578, 0.319336, -9.74316, 1.18.2022 21:5:3.983
506, 1.83157, 0.08587, 88.5725, 0, 0, 0, 0.0195312, 0.280273, -9.72168, 1.18.2022 21:5:3.991
507, 1.83157, 0.08587, 88.5725, 0, 0, 0, -0.0341797, 0.320312, -9.67969, 1.18.2022 21:5:3.999
508, 1.83157, 0.08587, 88.5725, -0.000976562, 0, 0, -0.0302734, 0.311523, -9.73633, 1.18.2022 21:5:4.007
509, 1.83157, 0.08587, 88.5725, -0.000976562, -0.000976562, 0, 0.0146484, 0.302734, -9.73926, 1.18.2022 21:5:4.015
510, 1.83157, 0.08587, 88.5725, 0, -0.000976562, 0, -0.0976562, 0.34668, -9.75781, 1.18.2022 21:5:4.023
511, 1.83133, 0.0859537, 88.5726, 0, 0, 0, 0.0166016, 0.30957, -9.74414, 1.18.2022 21:5:4.031
512, 1.83133, 0.0859537, 88.5726, -0.000976562, 0, -0.00195312, 0.00683594, 0.295898, -9.74707, 1.18.2022 21:5:4.039
513, 1.83133, 0.0859537, 88.5726, -0.00195312, -0.000976562, 0.000976562, -0.0556641, 0.344727, -9.78223, 1.18.2022 21:5:4.047
514, 1.83133, 0.0859537, 88.5726, -0.00195312, -0.000976562, -0.000976562, 0.0478516, 0.291992, -9.72363, 1.18.2022 21:5:4.055
515, 1.83133, 0.0859537, 88.5726, 0, -0.000976562, -0.000976562, -0.0332031, 0.307617, -9.75488, 1.18.2022 21:5:4.063
516, 1.83133, 0.0859537, 88.5726, -0.000976562, 0, -0.000976562, -0.0283203, 0.317383, -9.75977, 1.18.2022 21:5:4.071
517, 1.83133, 0.0859537, 88.5726, 0, -0.000976562, -0.000976562, 0.0410156, 0.282227, -9.72168, 1.18.2022 21:5:4.079
518, 1.83133, 0.0859537, 88.5726, 0, -0.000976562, -0.00195312, -0.0546875, 0.301758, -9.72949, 1.18.2022 21:5:4.087
519, 1.83133, 0.0859537, 88.5726, 0, -0.000976562, -0.00195312, -0.00195312, 0.3125, -9.75781, 1.18.2022 21:5:4.095
520, 1.83133, 0.0859537, 88.5726, -0.000976562, -0.000976562, -0.00195312, 0.00683594, 0.291016, -9.74414, 1.18.2022 21:5:4.103
521, 1.83133, 0.0859537, 88.5726, 0, 0, -0.00195312, -0.0419922, 0.323242, -9.71191, 1.18.2022 21:5:4.111
522, 1.83157, 0.086028, 88.5825, -0.000976562, 0, -0.000976562, 0.0117188, 0.314453, -9.75293, 1.18.2022 21:5:4.119
523, 1.83157, 0.086028, 88.5825, -0.000976562, 0.000976562, 0, -0.0126953, 0.293945, -9.6875, 1.18.2022 21:5:4.127
524, 1.83157, 0.086028, 88.5825, -0.000976562, -0.000976562, -0.000976562, -0.0234375, 0.328125, -9.72168, 1.18.2022 21:5:4.135
525, 1.83157, 0.086028, 88.5825, -0.00195312, 0, -0.000976562, 0.0478516, 0.3125, -9.77051, 1.18.2022 21:5:4.143
526, 1.83157, 0.086028, 88.5825, -0.000976562, 0, -0.000976562, -0.0449219, 0.317383, -9.75, 1.18.2022 21:5:4.151
527, 1.83157, 0.086028, 88.5825, -0.000976562, 0, 0.000976562, -0.0234375, 0.321289, -9.7334, 1.18.2022 21:5:4.159
528, 1.83133, 0.0859537, 88.5726, 0, -0.000976562, -0.000976562, 0.00683594, 0.300781, -9.74902, 1.18.2022 21:5:4.167
529, 1.83133, 0.0859537, 88.5726, -0.000976562, -0.000976562, -0.000976562, -0.0664062, 0.318359, -9.72168, 1.18.2022 21:5:4.175
530, 1.83133, 0.0859537, 88.5726, 0, -0.000976562, -0.000976562, 0.0283203, 0.297852, -9.75391, 1.18.2022 21:5:4.183
531, 1.83133, 0.0859537, 88.5726, 0, -0.000976562, -0.00195312, -0.0195312, 0.303711, -9.7793, 1.18.2022 21:5:4.191
532, 1.83157, 0.086028, 88.5825, 0, 0, -0.00195312, -0.0527344, 0.307617, -9.74805, 1.18.2022 21:5:4.199
533, 1.83157, 0.086028, 88.5825, 0, -0.000976562, -0.00195312, 0.0429688, 0.27832, -9.73633, 1.18.2022 21:5:4.207
534, 1.83157, 0.086028, 88.5825, 0, 0, -0.000976562, -0.0273438, 0.313477, -9.70117, 1.18.2022 21:5:4.215
535, 1.83157, 0.086028, 88.5825, 0, 0, -0.000976562, -0.0244141, 0.308594, -9.78418, 1.18.2022 21:5:4.223
536, 1.83133, 0.0861116, 88.5826, 0, 0, -0.000976562, 0.00488281, 0.271484, -9.73535, 1.18.2022 21:5:4.231
537, 1.83133, 0.0861116, 88.5826, 0, 0, -0.000976562, -0.078125, 0.333008, -9.72266, 1.18.2022 21:5:4.239
538, 1.83133, 0.0861116, 88.5826, -0.000976562, -0.000976562, -0.000976562, -0.00195312, 0.310547, -9.70605, 1.18.2022 21:5:4.247
539, 1.83133, 0.0861116, 88.5826, 0, 0, 0.000976562, 0.00585938, 0.31543, -9.69922, 1.18.2022 21:5:4.255
540, 1.83133, 0.0861116, 88.5826, 0, -0.000976562, 0, -0.0429688, 0.34082, -9.74023, 1.18.2022 21:5:4.263
541, 1.83133, 0.0861116, 88.5826, 0, -0.000976562, -0.000976562, 0.0214844, 0.324219, -9.74902, 1.18.2022 21:5:4.271
542, 1.83133, 0.0861116, 88.5826, 0, 0, -0.000976562, -0.0214844, 0.310547, -9.75488, 1.18.2022 21:5:4.279
543, 1.83133, 0.0861116, 88.5826, -0.000976562, 0, -0.000976562, -0.0185547, 0.302734, -9.74805, 1.18.2022 21:5:4.287
544, 1.83156, 0.0861859, 88.5925, -0.000976562, 0, 0, 0.0380859, 0.304688, -9.73242, 1.18.2022 21:5:4.295
545, 1.83156, 0.0861859, 88.5925, -0.000976562, -0.000976562, 0, -0.0634766, 0.321289, -9.72852, 1.18.2022 21:5:4.303
546, 1.83156, 0.0861859, 88.5925, 0, -0.000976562, 0, 0.0078125, 0.314453, -9.74414, 1.18.2022 21:5:4.311
547, 1.83156, 0.0861859, 88.5925, 0, -0.000976562, 0, 0.0214844, 0.286133, -9.74023, 1.18.2022 21:5:4.319
548, 1.83133, 0.0862696, 88.5926, 0, -0.000976562, 0, -0.0644531, 0.313477, -9.78809, 1.18.2022 21:5:4.327
549, 1.83133, 0.0862696, 88.5926, -0.000976562, -0.000976562, 0, 0.0351562, 0.310547, -9.77734, 1.18.2022 21:5:4.335
550, 1.83133, 0.0862696, 88.5926, 0, -0.000976562, -0.00195312, -0.00390625, 0.317383, -9.69141, 1.18.2022 21:5:4.343
551, 1.83133, 0.0862696, 88.5926, -0.000976562, 0, 0, -0.0351562, 0.303711, -9.70996, 1.18.2022 21:5:4.351
552, 1.83133, 0.0862696, 88.5926, -0.000976562, -0.000976562, 0, 0.03125, 0.271484, -9.74512, 1.18.2022 21:5:4.359
553, 1.83133, 0.0862696, 88.5926, -0.000976562, 0, 0, -0.0595703, 0.299805, -9.74121, 1.18.2022 21:5:4.367
554, 1.83133, 0.0862696, 88.5926, -0.000976562, -0.000976562, 0, -0.0292969, 0.335938, -9.80371, 1.18.2022 21:5:4.375
555, 1.83133, 0.0862696, 88.5926, -0.000976562, 0, -0.000976562, 0.00976562, 0.292969, -9.75195, 1.18.2022 21:5:4.383
556, 1.83133, 0.0862696, 88.5926, -0.000976562, -0.000976562, 0, -0.0664062, 0.347656, -9.71094, 1.18.2022 21:5:4.391
557, 1.83133, 0.0862696, 88.5926, 0, -0.000976562, 0, 0.0126953, 0.304688, -9.72266, 1.18.2022 21:5:4.399
558, 1.83133, 0.0862696, 88.5926, 0, 0, 0, 0, 0.310547, -9.76953, 1.18.2022 21:5:4.407
559, 1.83133, 0.0862696, 88.5926, 0, -0.000976562, 0.000976562, -0.0175781, 0.34668, -9.79492, 1.18.2022 21:5:4.415
560, 1.83133, 0.0862696, 88.5926, 0, 0, 0.000976562, 0.0380859, 0.314453, -9.74902, 1.18.2022 21:5:4.423
561, 1.83133, 0.0862696, 88.5926, 0, 0, -0.000976562, -0.0566406, 0.348633, -9.75391, 1.18.2022 21:5:4.431
562, 1.83133, 0.0862696, 88.5926, -0.000976562, 0, 0, -0.0302734, 0.319336, -9.7334, 1.18.2022 21:5:4.439
563, 1.83133, 0.0862696, 88.5926, 0, 0, 0, 0.0292969, 0.306641, -9.73047, 1.18.2022 21:5:4.447
564, 1.83133, 0.0862696, 88.5926, -0.000976562, -0.000976562, 0, -0.0712891, 0.337891, -9.72754, 1.18.2022 21:5:4.455
565, 1.83133, 0.0862696, 88.5926, -0.000976562, -0.000976562, 0, 0.00292969, 0.305664, -9.70117, 1.18.2022 21:5:4.463
566, 1.83133, 0.0862696, 88.5926, -0.000976562, -0.000976562, 0, -0.0332031, 0.305664, -9.75977, 1.18.2022 21:5:4.471
567, 1.83133, 0.0862696, 88.5926, -0.000976562, -0.000976562, 0, -0.0566406, 0.329102, -9.7334, 1.18.2022 21:5:4.479
568, 1.83133, 0.0862696, 88.5926, 0, 0, 0, 0.0527344, 0.308594, -9.71875, 1.18.2022 21:5:4.487
569, 1.83133, 0.0862696, 88.5926, -0.000976562, -0.000976562, 0, -0.0400391, 0.300781, -9.74805, 1.18.2022 21:5:4.495
570, 1.83156, 0.0861859, 88.5925, 0, -0.000976562, 0, -0.0380859, 0.321289, -9.73633, 1.18.2022 21:5:4.503
571, 1.83156, 0.0861859, 88.5925, 0, 0, -0.000976562, 0.00976562, 0.299805, -9.74219, 1.18.2022 21:5:4.509
572, 1.83156, 0.0861859, 88.5925, 0, 0, 0, -0.078125, 0.3125, -9.75, 1.18.2022 21:5:4.519
573, 1.83133, 0.0861116, 88.5826, 0, -0.000976562, 0, 0.00195312, 0.31543, -9.76758, 1.18.2022 21:5:4.525
574, 1.83133, 0.0861116, 88.5826, -0.000976562, -0.000976562, 0, -0.0146484, 0.305664, -9.76074, 1.18.2022 21:5:4.533
575, 1.83133, 0.0861116, 88.5826, -0.000976562, -0.000976562, 0, -0.0761719, 0.31543, -9.76367, 1.18.2022 21:5:4.541
576, 1.83133, 0.0861116, 88.5826, -0.000976562, -0.000976562, 0, 0.0595703, 0.319336, -9.74219, 1.18.2022 21:5:4.551
577, 1.83133, 0.0861116, 88.5826, -0.000976562, 0, 0, -0.0292969, 0.31543, -9.78125, 1.18.2022 21:5:4.557
578, 1.83133, 0.0861116, 88.5826, -0.000976562, 0.000976562, 0, -0.0371094, 0.323242, -9.72363, 1.18.2022 21:5:4.565
579, 1.83133, 0.0861116, 88.5826, -0.000976562, 0, 0, 0.0185547, 0.277344, -9.78516, 1.18.2022 21:5:4.573
580, 1.83157, 0.086028, 88.5825, -0.00195312, 0, 0, -0.0693359, 0.297852, -9.74512, 1.18.2022 21:5:4.581
581, 1.83157, 0.086028, 88.5825, 0, 0, 0, -0.0400391, 0.30957, -9.74805, 1.18.2022 21:5:4.589
582, 1.83157, 0.086028, 88.5825, -0.000976562, 0, 0, 0.0117188, 0.28125, -9.74219, 1.18.2022 21:5:4.597
583, 1.83157, 0.086028, 88.5825, -0.000976562, -0.000976562, 0, -0.0400391, 0.301758, -9.72656, 1.18.2022 21:5:4.605
584, 1.83157, 0.086028, 88.5825, 0, -0.000976562, 0, 0.0166016, 0.298828, -9.77051, 1.18.2022 21:5:4.613
585, 1.83157, 0.086028, 88.5825, 0, -0.000976562, 0, -0.0253906, 0.313477, -9.70117, 1.18.2022 21:5:4.621
586, 1.83157, 0.086028, 88.5825, -0.000976562, 0, 0, -0.0283203, 0.302734, -9.73633, 1.18.2022 21:5:4.629
587, 1.83157, 0.086028, 88.5825, -0.000976562, 0, 0, 0.0556641, 0.308594, -9.7168, 1.18.2022 21:5:4.637
588, 1.83157, 0.086028, 88.5825, -0.000976562, 0, 0, -0.0478516, 0.324219, -9.75488, 1.18.2022 21:5:4.645
589, 1.83157, 0.086028, 88.5825, -0.000976562, 0, 0.000976562, -0.0214844, 0.30957, -9.72949, 1.18.2022 21:5:4.653
590, 1.83157, 0.086028, 88.5825, -0.000976562, -0.000976562, 0, 0.00683594, 0.314453, -9.75098, 1.18.2022 21:5:4.661
591, 1.83157, 0.086028, 88.5825, -0.000976562, -0.000976562, 0, -0.0742188, 0.351562, -9.79395, 1.18.2022 21:5:4.669
592, 1.83157, 0.086028, 88.5825, -0.000976562, 0, 0, 0.0244141, 0.311523, -9.71777, 1.18.2022 21:5:4.677
593, 1.83157, 0.086028, 88.5825, -0.000976562, -0.000976562, 0, -0.0166016, 0.311523, -9.72949, 1.18.2022 21:5:4.685
594, 1.83645, 0.0810223, 88.5825, -0.000976562, 0, 0, -0.0566406, 0.326172, -9.7168, 1.18.2022 21:5:4.693
595, 1.83645, 0.0810223, 88.5825, 0, 0, 0, 0.0615234, 0.307617, -9.76855, 1.18.2022 21:5:4.701
596, 1.83645, 0.0810223, 88.5825, 0, 0, 0, 0.0078125, 0.321289, -9.73926, 1.18.2022 21:5:4.709
597, 1.83645, 0.0810223, 88.5825, -0.000976562, -0.000976562, 0, -0.0302734, 0.303711, -9.71484, 1.18.2022 21:5:4.717
598, 1.83645, 0.0810223, 88.5825, -0.000976562, -0.000976562, 0, 0.0185547, 0.264648, -9.77344, 1.18.2022 21:5:4.725
599, 1.83645, 0.0810223, 88.5825, -0.000976562, -0.000976562, 0, -0.0478516, 0.338867, -9.74512, 1.18.2022 21:5:4.733
600, 1.83645, 0.0810223, 88.5825, -0.000976562, -0.000976562, 0.000976562, -0.0214844, 0.322266, -9.75, 1.18.2022 21:5:4.741
601, 1.83645, 0.0810223, 88.5825, 0, -0.000976562, 0, -0.0234375, 0.292969, -9.72559, 1.18.2022 21:5:4.749
602, 1.83621, 0.0809476, 88.5726, 0, 0, 0, -0.0400391, 0.318359, -9.70508, 1.18.2022 21:5:4.757
603, 1.83621, 0.0809476, 88.5726, -0.000976562, -0.000976562, 0, 0.0546875, 0.305664, -9.76172, 1.18.2022 21:5:4.765
604, 1.83621, 0.0809476, 88.5726, -0.000976562, -0.00195312, 0, -0.0185547, 0.314453, -9.74121, 1.18.2022 21:5:4.773
605, 1.83621, 0.0809476, 88.5726, -0.000976562, -0.000976562, 0, -0.0263672, 0.30957, -9.74316, 1.18.2022 21:5:4.781
606, 1.83621, 0.0809476, 88.5726, -0.000976562, 0, 0, 0.0390625, 0.27832, -9.72656, 1.18.2022 21:5:4.789
607, 1.83621, 0.0809476, 88.5726, -0.000976562, 0, 0, -0.0644531, 0.314453, -9.74023, 1.18.2022 21:5:4.797
608, 1.83621, 0.0809476, 88.5726, -0.000976562, 0, -0.000976562, -0.03125, 0.314453, -9.74316, 1.18.2022 21:5:4.805
609, 1.83621, 0.0809476, 88.5726, -0.000976562, -0.000976562, -0.00195312, 0.00390625, 0.305664, -9.68066, 1.18.2022 21:5:4.813
610, 1.83621, 0.0809476, 88.5726, -0.000976562, -0.000976562, -0.00195312, -0.0517578, 0.334961, -9.69531, 1.18.2022 21:5:4.821
611, 1.83621, 0.0809476, 88.5726, -0.000976562, -0.000976562, -0.000976562, -0.00976562, 0.31543, -9.75977, 1.18.2022 21:5:4.829
612, 1.83621, 0.0809476, 88.5726, -0.000976562, -0.000976562, -0.000976562, -0.0429688, 0.300781, -9.74805, 1.18.2022 21:5:4.837
613, 1.83621, 0.0809476, 88.5726, -0.000976562, -0.000976562, -0.000976562, -0.0566406, 0.329102, -9.7334, 1.18.2022 21:5:4.845
614, 1.83621, 0.0809476, 88.5726, -0.000976562, 0, -0.000976562, 0.03125, 0.297852, -9.74219, 1.18.2022 21:5:4.853
615, 1.83621, 0.0809476, 88.5726, -0.000976562, 0, -0.000976562, -0.0449219, 0.30957, -9.75, 1.18.2022 21:5:4.861
616, 1.83621, 0.0809476, 88.5726, 0, 0, 0.000976562, -0.0351562, 0.321289, -9.73633, 1.18.2022 21:5:4.869
617, 1.83621, 0.0809476, 88.5726, 0, 0, -0.000976562, 0.00488281, 0.283203, -9.73242, 1.18.2022 21:5:4.877
618, 1.83621, 0.0809476, 88.5726, -0.000976562, 0, -0.00195312, -0.0830078, 0.314453, -9.74219, 1.18.2022 21:5:4.885
619, 1.83621, 0.0809476, 88.5726, -0.000976562, 0, 0.000976562, -0.0205078, 0.326172, -9.72461, 1.18.2022 21:5:4.893
620, 1.83621, 0.0809476, 88.5726, -0.000976562, -0.000976562, -0.000976562, -0.0117188, 0.308594, -9.71973, 1.18.2022 21:5:4.901
621, 1.83621, 0.0809476, 88.5726, 0, 0, -0.000976562, -0.0449219, 0.342773, -9.73242, 1.18.2022 21:5:4.909
622, 1.83621, 0.0809476, 88.5726, 0, -0.000976562, -0.000976562, 0.0341797, 0.263672, -9.72168, 1.18.2022 21:5:4.917
623, 1.83621, 0.0809476, 88.5726, 0, 0, -0.000976562, -0.0302734, 0.314453, -9.73145, 1.18.2022 21:5:4.925
624, 1.83621, 0.0809476, 88.5726, -0.000976562, -0.000976562, -0.000976562, -0.0253906, 0.353516, -9.69238, 1.18.2022 21:5:4.933
625, 1.83133, 0.0859537, 88.5726, -0.000976562, -0.000976562, -0.000976562, 0.0556641, 0.316406, -9.72559, 1.18.2022 21:5:4.941
626, 1.83133, 0.0859537, 88.5726, 0, -0.000976562, 0, -0.0634766, 0.322266, -9.68848, 1.18.2022 21:5:4.949
627, 1.83133, 0.0859537, 88.5726, 0, 0, -0.000976562, 0.00585938, 0.293945, -9.69434, 1.18.2022 21:5:4.957
628, 1.83133, 0.0859537, 88.5726, 0, 0, -0.00195312, 0.0195312, 0.285156, -9.71875, 1.18.2022 21:5:4.965
629, 1.83157, 0.086028, 88.5825, 0, 0, -0.00195312, -0.0761719, 0.30957, -9.72852, 1.18.2022 21:5:4.973
630, 1.83157, 0.086028, 88.5825, -0.000976562, 0, -0.000976562, 0.0556641, 0.323242, -9.73535, 1.18.2022 21:5:4.981
631, 1.83133, 0.0861116, 88.5826, 0, 0, -0.000976562, -0.000976562, 0.323242, -9.70117, 1.18.2022 21:5:4.989
632, 1.83133, 0.0861116, 88.5826, 0, 0, -0.000976562, -0.0341797, 0.31543, -9.68164, 1.18.2022 21:5:4.997
633, 1.83133, 0.0861116, 88.5826, -0.000976562, -0.00195312, -0.000976562, 0.0410156, 0.291992, -9.72656, 1.18.2022 21:5:5.005
634, 1.83133, 0.0861116, 88.5826, -0.000976562, -0.000976562, -0.000976562, -0.0537109, 0.323242, -9.7168, 1.18.2022 21:5:5.013
635, 1.83133, 0.0861116, 88.5826, -0.000976562, -0.000976562, -0.000976562, -0.00585938, 0.310547, -9.70117, 1.18.2022 21:5:5.021
636, 1.83133, 0.0861116, 88.5826, -0.000976562, -0.000976562, -0.000976562, 0.0283203, 0.279297, -9.77148, 1.18.2022 21:5:5.029
637, 1.83133, 0.0861116, 88.5826, -0.000976562, 0, -0.000976562, -0.0898438, 0.328125, -9.71387, 1.18.2022 21:5:5.037
638, 1.83133, 0.0861116, 88.5826, -0.000976562, 0, 0.000976562, 0.0146484, 0.290039, -9.74023, 1.18.2022 21:5:5.045
639, 1.83133, 0.0861116, 88.5826, 0, 0, -0.000976562, -0.0205078, 0.285156, -9.72266, 1.18.2022 21:5:5.053
640, 1.83133, 0.0861116, 88.5826, 0, 0, 0, -0.0400391, 0.311523, -9.72656, 1.18.2022 21:5:5.061
641, 1.83133, 0.0861116, 88.5826, -0.000976562, -0.000976562, 0, 0.0214844, 0.257812, -9.77637, 1.18.2022 21:5:5.069
642, 1.83133, 0.0861116, 88.5826, 0, -0.000976562, 0, -0.0625, 0.298828, -9.78613, 1.18.2022 21:5:5.077
643, 1.83133, 0.0861116, 88.5826, 0, -0.000976562, 0, -0.0214844, 0.327148, -9.75977, 1.18.2022 21:5:5.085
644, 1.83133, 0.0861116, 88.5826, -0.000976562, -0.00195312, 0.000976562, 0.0117188, 0.297852, -9.75586, 1.18.2022 21:5:5.093
645, 1.83133, 0.0861116, 88.5826, 0, -0.000976562, 0, -0.078125, 0.302734, -9.73828, 1.18.2022 21:5:5.101
646, 1.83133, 0.0861116, 88.5826, -0.000976562, 0, 0, 0.0263672, 0.294922, -9.7373, 1.18.2022 21:5:5.109
647, 1.83133, 0.0861116, 88.5826, -0.000976562, -0.000976562, 0, -0.0224609, 0.308594, -9.78809, 1.18.2022 21:5:5.117
648, 1.83133, 0.0861116, 88.5826, -0.000976562, -0.000976562, 0, -0.0566406, 0.355469, -9.74219, 1.18.2022 21:5:5.125
649, 1.83133, 0.0861116, 88.5826, 0, -0.000976562, 0, 0.0537109, 0.301758, -9.70996, 1.18.2022 21:5:5.133
650, 1.83156, 0.0861859, 88.5925, -0.000976562, 0, -0.00195312, -0.03125, 0.31543, -9.7666, 1.18.2022 21:5:5.141
651, 1.83156, 0.0861859, 88.5925, -0.000976562, -0.00195312, -0.000976562, -0.0419922, 0.334961, -9.71875, 1.18.2022 21:5:5.149
652, 1.83156, 0.0861859, 88.5925, -0.000976562, -0.000976562, 0, 0.0322266, 0.303711, -9.7041, 1.18.2022 21:5:5.157
653, 1.83156, 0.0861859, 88.5925, -0.000976562, -0.000976562, 0, -0.0449219, 0.311523, -9.72461, 1.18.2022 21:5:5.165
654, 1.83133, 0.0862696, 88.5926, 0, -0.000976562, 0, 0.00488281, 0.30957, -9.74121, 1.18.2022 21:5:5.173
655, 1.83133, 0.0862696, 88.5926, -0.000976562, -0.000976562, 0, 0.0078125, 0.288086, -9.73242, 1.18.2022 21:5:5.181
656, 1.83133, 0.0862696, 88.5926, -0.000976562, 0, -0.00195312, -0.0546875, 0.299805, -9.72168, 1.18.2022 21:5:5.189
657, 1.83133, 0.0862696, 88.5926, -0.000976562, 0, 0, 0.0195312, 0.283203, -9.72168, 1.18.2022 21:5:5.197
658, 1.83133, 0.0862696, 88.5926, 0, 0, 0, -0.0283203, 0.299805, -9.73926, 1.18.2022 21:5:5.205
659, 1.83133, 0.0862696, 88.5926, 0, -0.000976562, 0, -0.0234375, 0.30957, -9.72949, 1.18.2022 21:5:5.213
660, 1.83133, 0.0862696, 88.5926, 0, 0, 0, 0.0175781, 0.283203, -9.72363, 1.18.2022 21:5:5.221
661, 1.83133, 0.0862696, 88.5926, -0.000976562, -0.000976562, 0, -0.0546875, 0.3125, -9.75488, 1.18.2022 21:5:5.229
662, 1.83156, 0.0863439, 88.6025, 0, 0, 0.000976562, -0.015625, 0.320312, -9.70508, 1.18.2022 21:5:5.237
663, 1.83156, 0.0863439, 88.6025, 0, -0.000976562, -0.00195312, 0, 0.292969, -9.74414, 1.18.2022 21:5:5.245
664, 1.83156, 0.0863439, 88.6025, 0, -0.000976562, 0, -0.0585938, 0.319336, -9.72656, 1.18.2022 21:5:5.253
665, 1.83132, 0.0864275, 88.6026, -0.000976562, -0.000976562, -0.00195312, -0.00195312, 0.305664, -9.75391, 1.18.2022 21:5:5.261
666, 1.83132, 0.0864275, 88.6026, 0, 0, 0, -0.0166016, 0.307617, -9.73633, 1.18.2022 21:5:5.269
667, 1.83132, 0.0864275, 88.6026, 0.000976562, 0, 0, -0.0449219, 0.352539, -9.72754, 1.18.2022 21:5:5.277
668, 1.83132, 0.0864275, 88.6026, 0, 0, 0, 0.0380859, 0.294922, -9.73535, 1.18.2022 21:5:5.285
669, 1.83156, 0.0863439, 88.6025, -0.000976562, 0, 0, -0.0566406, 0.319336, -9.7334, 1.18.2022 21:5:5.293
670, 1.83156, 0.0863439, 88.6025, 0, 0, 0, 0.00292969, 0.331055, -9.74609, 1.18.2022 21:5:5.301
671, 1.83156, 0.0863439, 88.6025, 0, 0, 0, 0.03125, 0.30957, -9.73242, 1.18.2022 21:5:5.309
672, 1.83156, 0.0863439, 88.6025, 0, 0, 0, -0.0849609, 0.345703, -9.73633, 1.18.2022 21:5:5.317
673, 1.83156, 0.0863439, 88.6025, -0.000976562, 0, 0, 0.0136719, 0.291016, -9.77344, 1.18.2022 21:5:5.325
674, 1.83156, 0.0863439, 88.6025, -0.000976562, 0, 0, -0.0107422, 0.291016, -9.69238, 1.18.2022 21:5:5.333
675, 1.83156, 0.0863439, 88.6025, 0, 0, 0, -0.0546875, 0.3125, -9.73828, 1.18.2022 21:5:5.341
676, 1.83156, 0.0863439, 88.6025, 0, -0.000976562, 0, 0.0439453, 0.300781, -9.68066, 1.18.2022 21:5:5.349
677, 1.83133, 0.0862696, 88.5926, 0, 0, -0.00195312, -0.0234375, 0.299805, -9.73438, 1.18.2022 21:5:5.357
678, 1.83133, 0.0862696, 88.5926, -0.00195312, 0, 0, -0.00390625, 0.301758, -9.7207, 1.18.2022 21:5:5.365
679, 1.83133, 0.0862696, 88.5926, -0.000976562, -0.000976562, 0, 0.00585938, 0.290039, -9.71582, 1.18.2022 21:5:5.373
680, 1.83133, 0.0862696, 88.5926, -0.000976562, -0.000976562, -0.00195312, -0.0498047, 0.332031, -9.77051, 1.18.2022 21:5:5.381
681, 1.83133, 0.0862696, 88.5926, 0, -0.000976562, -0.00195312, -0.0195312, 0.300781, -9.76465, 1.18.2022 21:5:5.389
682, 1.83133, 0.0862696, 88.5926, -0.000976562, -0.000976562, 0, 0.00683594, 0.295898, -9.74707, 1.18.2022 21:5:5.397
683, 1.83133, 0.0862696, 88.5926, -0.000976562, -0.000976562, 0, -0.0810547, 0.319336, -9.74023, 1.18.2022 21:5:5.405
684, 1.83156, 0.0861859, 88.5925, -0.000976562, -0.000976562, 0, 0.0263672, 0.299805, -9.74902, 1.18.2022 21:5:5.413
685, 1.83156, 0.0861859, 88.5925, -0.000976562, 0, 0, -0.0390625, 0.308594, -9.69141, 1.18.2022 21:5:5.421
686, 1.83133, 0.0861116, 88.5826, -0.000976562, -0.000976562, 0, -0.0253906, 0.311523, -9.73145, 1.18.2022 21:5:5.429
687, 1.83133, 0.0861116, 88.5826, -0.000976562, -0.000976562, 0.000976562, 0.0263672, 0.292969, -9.75391, 1.18.2022 21:5:5.437
688, 1.83133, 0.0861116, 88.5826, 0, -0.000976562, 0.000976562, -0.0683594, 0.323242, -9.72363, 1.18.2022 21:5:5.445
689, 1.83157, 0.086028, 88.5825, -0.000976562, 0, 0, -0.0283203, 0.316406, -9.73145, 1.18.2022 21:5:5.453
690, 1.83157, 0.086028, 88.5825, -0.000976562, -0.000976562, 0, 0, 0.293945, -9.76758, 1.18.2022 21:5:5.461
691, 1.83133, 0.0859537, 88.5726, -0.000976562, -0.000976562, 0, -0.0449219, 0.333008, -9.72363, 1.18.2022 21:5:5.469
692, 1.83133, 0.0859537, 88.5726, -0.000976562, -0.000976562, 0, 0.0361328, 0.308594, -9.72363, 1.18.2022 21:5:5.477
693, 1.83133, 0.0859537, 88.5726, 0, -0.000976562, 0, 0, 0.304688, -9.73438, 1.18.2022 21:5:5.483
694, 1.83133, 0.0859537, 88.5726, 0, -0.000976562, 0, -0.0546875, 0.357422, -9.72559, 1.18.2022 21:5:5.493
695, 1.83133, 0.0859537, 88.5726, 0, -0.000976562, 0.000976562, 0.0429688, 0.282227, -9.77344, 1.18.2022 21:5:5.499
696, 1.83157, 0.08587, 88.5725, -0.000976562, -0.000976562, 0, -0.0517578, 0.311523, -9.72656, 1.18.2022 21:5:5.507
697, 1.83157, 0.08587, 88.5725, -0.000976562, -0.000976562, 0, -0.0117188, 0.304688, -9.74414, 1.18.2022 21:5:5.515
698, 1.83133, 0.0857957, 88.5626, 0, 0, 0, 0.00195312, 0.293945, -9.77051, 1.18.2022 21:5:5.523
699, 1.83133, 0.0857957, 88.5626, 0, -0.000976562, 0, -0.0576172, 0.302734, -9.75781, 1.18.2022 21:5:5.531
700, 1.83133, 0.0857957, 88.5626, -0.000976562, 0, -0.000976562, 0.0166016, 0.288086, -9.75391, 1.18.2022 21:5:5.539
701, 1.83133, 0.0857957, 88.5626, -0.000976562, 0, 0, 0.00292969, 0.326172, -9.74121, 1.18.2022 21:5:5.547
702, 1.83133, 0.0857957, 88.5626, -0.000976562, -0.000976562, 0, -0.0146484, 0.317383, -9.77148, 1.18.2022 21:5:5.555
703, 1.83133, 0.0857957, 88.5626, -0.000976562, 0, 0, 0.0166016, 0.305664, -9.76758, 1.18.2022 21:5:5.563
704, 1.83157, 0.0857121, 88.5624, -0.000976562, 0, 0.000976562, -0.0400391, 0.314453, -9.75488, 1.18.2022 21:5:5.571
705, 1.83157, 0.0857121, 88.5624, -0.000976562, 0, 0.000976562, -0.0332031, 0.314453, -9.74316, 1.18.2022 21:5:5.579
706, 1.83157, 0.0857121, 88.5624, 0, -0.000976562, -0.000976562, 0.0341797, 0.285156, -9.7168, 1.18.2022 21:5:5.587
707, 1.83133, 0.0856378, 88.5526, 0, 0, 0, -0.0800781, 0.328125, -9.71094, 1.18.2022 21:5:5.595
708, 1.83133, 0.0856378, 88.5526, -0.000976562, -0.000976562, -0.000976562, -0.0185547, 0.323242, -9.70312, 1.18.2022 21:5:5.603
709, 1.83133, 0.0856378, 88.5526, 0, -0.000976562, -0.000976562, -0.0146484, 0.289062, -9.77051, 1.18.2022 21:5:5.611
710, 1.83133, 0.0856378, 88.5526, -0.000976562, -0.000976562, -0.000976562, -0.0644531, 0.327148, -9.75879, 1.18.2022 21:5:5.619
711, 1.83133, 0.0856378, 88.5526, -0.000976562, 0, 0, 0.0078125, 0.310547, -9.69238, 1.18.2022 21:5:5.627
712, 1.83133, 0.0856378, 88.5526, -0.000976562, 0, 0, -0.0214844, 0.3125, -9.74805, 1.18.2022 21:5:5.635
713, 1.83133, 0.0856378, 88.5526, 0, 0, 0.000976562, -0.0322266, 0.31543, -9.70508, 1.18.2022 21:5:5.643
714, 1.83133, 0.0856378, 88.5526, -0.000976562, 0, 0, 0.0302734, 0.320312, -9.6875, 1.18.2022 21:5:5.651
715, 1.83157, 0.0855541, 88.5524, -0.00195312, 0, 0, -0.0517578, 0.337891, -9.73242, 1.18.2022 21:5:5.659
716, 1.83157, 0.0855541, 88.5524, -0.000976562, 0, 0, -0.00878906, 0.333984, -9.74316, 1.18.2022 21:5:5.667
717, 1.83157, 0.0855541, 88.5524, 0, 0, 0, 0.0126953, 0.313477, -9.71094, 1.18.2022 21:5:5.675
718, 1.83133, 0.0854798, 88.5425, 0, -0.000976562, -0.000976562, -0.0712891, 0.328125, -9.72852, 1.18.2022 21:5:5.683
719, 1.83133, 0.0854798, 88.5425, 0, 0, 0, 0.0146484, 0.300781, -9.75586, 1.18.2022 21:5:5.691
720, 1.83133, 0.0854798, 88.5425, -0.000976562, -0.000976562, 0.000976562, -0.0283203, 0.296875, -9.71777, 1.18.2022 21:5:5.699
721, 1.83133, 0.0854798, 88.5425, -0.000976562, -0.000976562, 0.000976562, -0.0400391, 0.354492, -9.72559, 1.18.2022 21:5:5.707
722, 1.83157, 0.0853962, 88.5424, 0, -0.000976562, -0.000976562, 0.0263672, 0.294922, -9.74219, 1.18.2022 21:5:5.715
723, 1.83157, 0.0853962, 88.5424, -0.000976562, 0, 0, -0.0693359, 0.310547, -9.75684, 1.18.2022 21:5:5.723
724, 1.83133, 0.0853219, 88.5325, -0.000976562, 0, 0, -0.0253906, 0.328125, -9.71191, 1.18.2022 21:5:5.731
725, 1.83133, 0.0853219, 88.5325, -0.000976562, -0.000976562, -0.000976562, 0.0166016, 0.291016, -9.76074, 1.18.2022 21:5:5.739
726, 1.83133, 0.0853219, 88.5325, -0.000976562, 0, 0, -0.0742188, 0.317383, -9.75391, 1.18.2022 21:5:5.747
727, 1.83133, 0.0853219, 88.5325, -0.000976562, 0, 0, 0.00488281, 0.322266, -9.75098, 1.18.2022 21:5:5.755
728, 1.83157, 0.0852382, 88.5324, -0.000976562, 0, 0, -0.00390625, 0.288086, -9.72754, 1.18.2022 21:5:5.763
729, 1.83157, 0.0852382, 88.5324, -0.000976562, 0, 0, -0.0693359, 0.327148, -9.75684, 1.18.2022 21:5:5.771
730, 1.83157, 0.0852382, 88.5324, -0.00195312, -0.000976562, 0, 0.0527344, 0.314453, -9.7373, 1.18.2022 21:5:5.779
731, 1.83134, 0.085164, 88.5225, -0.000976562, -0.000976562, -0.000976562, -0.0449219, 0.314453, -9.75, 1.18.2022 21:5:5.787
732, 1.83134, 0.085164, 88.5225, 0, -0.000976562, 0.000976562, -0.0449219, 0.321289, -9.71484, 1.18.2022 21:5:5.795
733, 1.83134, 0.085164, 88.5225, 0, -0.000976562, -0.000976562, 0.0078125, 0.273438, -9.7334, 1.18.2022 21:5:5.803
734, 1.83134, 0.085164, 88.5225, 0, -0.000976562, -0.000976562, -0.0488281, 0.308594, -9.70801, 1.18.2022 21:5:5.811
735, 1.83134, 0.085164, 88.5225, -0.000976562, -0.000976562, -0.00195312, -0.00976562, 0.302734, -9.74414, 1.18.2022 21:5:5.819
736, 1.83134, 0.085164, 88.5225, -0.000976562, -0.000976562, -0.000976562, -0.03125, 0.297852, -9.74414, 1.18.2022 21:5:5.827
737, 1.83134, 0.085164, 88.5225, -0.000976562, -0.000976562, -0.000976562, -0.0664062, 0.292969, -9.74609, 1.18.2022 21:5:5.835
738, 1.83134, 0.085164, 88.5225, -0.000976562, -0.000976562, -0.000976562, 0.0566406, 0.31543, -9.76562, 1.18.2022 21:5:5.843
739, 1.83134, 0.085164, 88.5225, -0.000976562, -0.000976562, -0.00195312, -0.0351562, 0.316406, -9.74121, 1.18.2022 21:5:5.851
740, 1.83134, 0.085164, 88.5225, 0, 0, -0.000976562, -0.0458984, 0.327148, -9.77148, 1.18.2022 21:5:5.859
741, 1.83134, 0.085164, 88.5225, -0.000976562, -0.000976562, -0.000976562, 0.00976562, 0.300781, -9.75391, 1.18.2022 21:5:5.867
742, 1.83134, 0.085164, 88.5225, -0.000976562, -0.000976562, -0.000976562, -0.0634766, 0.34082, -9.72559, 1.18.2022 21:5:5.875
743, 1.83134, 0.085164, 88.5225, -0.000976562, -0.000976562, -0.000976562, -0.015625, 0.334961, -9.70312, 1.18.2022 21:5:5.883
744, 1.83134, 0.085164, 88.5225, -0.000976562, -0.000976562, -0.000976562, 0.00976562, 0.299805, -9.73242, 1.18.2022 21:5:5.891
745, 1.83134, 0.085164, 88.5225, -0.000976562, -0.000976562, -0.000976562, -0.0761719, 0.330078, -9.76367, 1.18.2022 21:5:5.899
746, 1.83134, 0.085164, 88.5225, -0.000976562, -0.000976562, -0.000976562, 0.00292969, 0.329102, -9.75, 1.18.2022 21:5:5.907
747, 1.83134, 0.085164, 88.5225, -0.000976562, -0.000976562, -0.000976562, -0.0234375, 0.302734, -9.73926, 1.18.2022 21:5:5.915
748, 1.83134, 0.085164, 88.5225, -0.000976562, -0.000976562, -0.000976562, -0.0322266, 0.306641, -9.70312, 1.18.2022 21:5:5.923
749, 1.83134, 0.085164, 88.5225, 0, -0.000976562, -0.000976562, 0.0410156, 0.283203, -9.74023, 1.18.2022 21:5:5.931
750, 1.83134, 0.085164, 88.5225, 0, -0.000976562, -0.000976562, -0.0693359, 0.34082, -9.75391, 1.18.2022 21:5:5.939
751, 1.83134, 0.085164, 88.5225, -0.000976562, 0, -0.000976562, -0.0371094, 0.308594, -9.70508, 1.18.2022 21:5:5.947
752, 1.83134, 0.085164, 88.5225, -0.000976562, -0.000976562, -0.000976562, 0.0126953, 0.306641, -9.71777, 1.18.2022 21:5:5.955
753, 1.83634, 0.0900446, 88.5223, -0.00195312, -0.000976562, -0.000976562, -0.0439453, 0.325195, -9.70215, 1.18.2022 21:5:5.963
754, 1.83634, 0.0900446, 88.5223, -0.000976562, -0.000976562, -0.00195312, 0.0214844, 0.307617, -9.74902, 1.18.2022 21:5:5.971
755, 1.83634, 0.0900446, 88.5223, -0.000976562, 0, -0.000976562, -0.00683594, 0.28418, -9.75586, 1.18.2022 21:5:5.979
756, 1.83634, 0.0900446, 88.5223, -0.000976562, -0.000976562, -0.000976562, -0.0595703, 0.314453, -9.75, 1.18.2022 21:5:5.987
757, 1.83634, 0.0900446, 88.5223, -0.000976562, -0.000976562, -0.000976562, 0.0410156, 0.299805, -9.73047, 1.18.2022 21:5:5.995
758, 1.83634, 0.0900446, 88.5223, -0.00195312, -0.000976562, -0.000976562, -0.0410156, 0.305664, -9.7627, 1.18.2022 21:5:6.003
759, 1.83634, 0.0900446, 88.5223, -0.000976562, -0.000976562, -0.000976562, -0.0205078, 0.330078, -9.7168, 1.18.2022 21:5:6.011
760, 1.83634, 0.0900446, 88.5223, -0.000976562, 0, -0.000976562, 0.0556641, 0.295898, -9.7002, 1.18.2022 21:5:6.019
761, 1.83634, 0.0900446, 88.5223, -0.000976562, 0, 0, -0.0566406, 0.334961, -9.70215, 1.18.2022 21:5:6.027
762, 1.83634, 0.0900446, 88.5223, -0.000976562, -0.000976562, -0.000976562, 0.000976562, 0.289062, -9.68262, 1.18.2022 21:5:6.035
763, 1.83634, 0.0900446, 88.5223, 0, 0, -0.000976562, 0.00292969, 0.300781, -9.74902, 1.18.2022 21:5:6.043
764, 1.83634, 0.0900446, 88.5223, 0, -0.000976562, -0.000976562, -0.0732422, 0.337891, -9.73242, 1.18.2022 21:5:6.051
765, 1.83634, 0.0900446, 88.5223, 0, -0.000976562, -0.000976562, 0.0126953, 0.287109, -9.71387, 1.18.2022 21:5:6.059
766, 1.83634, 0.0900446, 88.5223, -0.000976562, 0, -0.000976562, -0.0332031, 0.307617, -9.75488, 1.18.2022 21:5:6.067
767, 1.83634, 0.0900446, 88.5223, -0.000976562, -0.000976562, 0, -0.0498047, 0.331055, -9.72559, 1.18.2022 21:5:6.075
768, 1.83634, 0.0900446, 88.5223, -0.000976562, -0.000976562, -0.000976562, 0.0214844, 0.283203, -9.74707, 1.18.2022 21:5:6.083
769, 1.83634, 0.0900446, 88.5223, 0, 0, 0, -0.0693359, 0.3125, -9.74023, 1.18.2022 21:5:6.091
770, 1.83634, 0.0900446, 88.5223, 0, -0.000976562, -0.000976562, 0.0195312, 0.299805, -9.72363, 1.18.2022 21:5:6.099
771, 1.83634, 0.0900446, 88.5223, -0.000976562, 0, 0.000976562, -0.0185547, 0.290039, -9.73926, 1.18.2022 21:5:6.107
772, 1.83634, 0.0900446, 88.5223, -0.000976562, 0, 0, -0.0810547, 0.310547, -9.75684, 1.18.2022 21:5:6.115
773, 1.83658, 0.0899605, 88.5222, -0.000976562, 0, 0, 0.0332031, 0.299805, -9.74902, 1.18.2022 21:5:6.123
774, 1.83658, 0.0899605, 88.5222, -0.000976562, 0, 0, 0.00292969, 0.299805, -9.71582, 1.18.2022 21:5:6.131
775, 1.83658, 0.0899605, 88.5222, -0.000976562, 0, 0, -0.0332031, 0.321289, -9.73828, 1.18.2022 21:5:6.139
776, 1.83658, 0.0899605, 88.5222, 0, -0.000976562, -0.000976562, 0.0498047, 0.307617, -9.76367, 1.18.2022 21:5:6.147
777, 1.83658, 0.0899605, 88.5222, 0, 0, 0, -0.078125, 0.323242, -9.7207, 1.18.2022 21:5:6.155
778, 1.83658, 0.0899605, 88.5222, -0.000976562, -0.000976562, -0.000976562, -0.00878906, 0.301758, -9.71777, 1.18.2022 21:5:6.163
779, 1.83658, 0.0899605, 88.5222, -0.000976562, 0, 0, 0.0205078, 0.334961, -9.69824, 1.18.2022 21:5:6.171
780, 1.83658, 0.0899605, 88.5222, -0.000976562, -0.000976562, -0.000976562, -0.0634766, 0.325195, -9.7002, 1.18.2022 21:5:6.179
781, 1.83634, 0.0900446, 88.5223, -0.000976562, -0.000976562, -0.000976562, 0.00488281, 0.337891, -9.7334, 1.18.2022 21:5:6.187
782, 1.83634, 0.0900446, 88.5223, -0.000976562, -0.000976562, -0.000976562, 0.00488281, 0.322266, -9.75293, 1.18.2022 21:5:6.195
783, 1.83634, 0.0900446, 88.5223, 0, -0.000976562, -0.00195312, -0.0566406, 0.314453, -9.74316, 1.18.2022 21:5:6.203
784, 1.83634, 0.0900446, 88.5223, 0, -0.000976562, -0.000976562, 0.0605469, 0.294922, -9.72656, 1.18.2022 21:5:6.211
785, 1.83134, 0.085164, 88.5225, 0, 0, 0, -0.0283203, 0.316406, -9.73633, 1.18.2022 21:5:6.219
786, 1.83134, 0.085164, 88.5225, -0.000976562, -0.000976562, -0.000976562, -0.0253906, 0.323242, -9.7168, 1.18.2022 21:5:6.227
787, 1.83134, 0.085164, 88.5225, -0.000976562, 0, 0, 0.0292969, 0.283203, -9.73828, 1.18.2022 21:5:6.235
788, 1.83134, 0.085164, 88.5225, 0, 0, 0, -0.0595703, 0.337891, -9.73535, 1.18.2022 21:5:6.243
789, 1.83134, 0.085164, 88.5225, 0, 0, 0.000976562, 0.0117188, 0.329102, -9.74316, 1.18.2022 21:5:6.251
790, 1.83134, 0.085164, 88.5225, -0.000976562, -0.000976562, -0.000976562, -0.00683594, 0.304688, -9.7373, 1.18.2022 21:5:6.259
791, 1.83134, 0.085164, 88.5225, -0.000976562, 0, 0, -0.0253906, 0.319336, -9.73633, 1.18.2022 21:5:6.267
792, 1.83134, 0.085164, 88.5225, -0.000976562, 0, 0, 0.0449219, 0.302734, -9.75195, 1.18.2022 21:5:6.275
793, 1.83134, 0.085164, 88.5225, -0.000976562, -0.000976562, -0.000976562, -0.0283203, 0.302734, -9.75781, 1.18.2022 21:5:6.283
794, 1.83134, 0.085164, 88.5225, -0.000976562, -0.000976562, -0.000976562, -0.0234375, 0.342773, -9.7334, 1.18.2022 21:5:6.291
795, 1.83134, 0.085164, 88.5225, -0.00195312, 0, 0, 0.0400391, 0.305664, -9.77051, 1.18.2022 21:5:6.299
796, 1.83134, 0.085164, 88.5225, -0.000976562, 0, 0, -0.0478516, 0.327148, -9.75488, 1.18.2022 21:5:6.307
797, 1.83134, 0.085164, 88.5225, -0.000976562, -0.000976562, -0.000976562, 0.00292969, 0.316406, -9.73438, 1.18.2022 21:5:6.315
798, 1.83134, 0.085164, 88.5225, -0.000976562, -0.000976562, -0.000976562, 0.0126953, 0.308594, -9.71777, 1.18.2022 21:5:6.323
799, 1.83134, 0.085164, 88.5225, -0.000976562, -0.000976562, -0.000976562, -0.0419922, 0.333008, -9.72852, 1.18.2022 21:5:6.331
800, 1.83134, 0.085164, 88.5225, 0, -0.000976562, -0.000976562, 0.0283203, 0.332031, -9.76758, 1.18.2022 21:5:6.339
801, 1.83134, 0.085164, 88.5225, -0.000976562, -0.000976562, -0.000976562, -0.0146484, 0.295898, -9.75781, 1.18.2022 21:5:6.347
802, 1.83134, 0.085164, 88.5225, -0.000976562, 0, -0.000976562, -0.0517578, 0.328125, -9.72559, 1.18.2022 21:5:6.355
803, 1.83134, 0.085164, 88.5225, -0.000976562, 0, 0.000976562, 0.0292969, 0.308594, -9.7207, 1.18.2022 21:5:6.363
804, 1.83134, 0.085164, 88.5225, 0, 0, -0.000976562, -0.0380859, 0.314453, -9.72656, 1.18.2022 21:5:6.371
805, 1.83134, 0.085164, 88.5225, -0.000976562, 0, 0.000976562, -0.0283203, 0.339844, -9.7168, 1.18.2022 21:5:6.379
806, 1.83157, 0.0850803, 88.5224, -0.000976562, 0, 0.000976562, 0.0117188, 0.302734, -9.74902, 1.18.2022 21:5:6.387
807, 1.83157, 0.0850803, 88.5224, -0.000976562, 0, -0.000976562, -0.0576172, 0.293945, -9.7627, 1.18.2022 21:5:6.395
808, 1.83157, 0.0850803, 88.5224, -0.000976562, 0, -0.000976562, 0.0117188, 0.297852, -9.74902, 1.18.2022 21:5:6.403
809, 1.83157, 0.0850803, 88.5224, -0.000976562, 0, -0.000976562, -0.0117188, 0.28125, -9.75391, 1.18.2022 21:5:6.411
810, 1.83157, 0.0850803, 88.5224, -0.000976562, -0.000976562, -0.000976562, -0.0566406, 0.321289, -9.7168, 1.18.2022 21:5:6.419
811, 1.83157, 0.0850803, 88.5224, -0.000976562, -0.000976562, -0.000976562, 0.0341797, 0.313477, -9.72266, 1.18.2022 21:5:6.427
812, 1.83157, 0.0850803, 88.5224, 0, -0.000976562, -0.000976562, -0.0742188, 0.328125, -9.79199, 1.18.2022 21:5:6.435
813, 1.83157, 0.0850803, 88.5224, 0, -0.000976562, -0.000976562, -0.00488281, 0.327148, -9.76953, 1.18.2022 21:5:6.443
814, 1.83157, 0.0850803, 88.5224, 0, -0.000976562, -0.00195312, -0.00195312, 0.311523, -9.72949, 1.18.2022 21:5:6.451
815, 1.83157, 0.0850803, 88.5224, -0.000976562, -0.000976562, -0.000976562, -0.0644531, 0.334961, -9.77246, 1.18.2022 21:5:6.459
816, 1.83157, 0.0850803, 88.5224, -0.000976562, -0.000976562, -0.000976562, -0.0117188, 0.331055, -9.72461, 1.18.2022 21:5:6.465
817, 1.83157, 0.0850803, 88.5224, 0, -0.000976562, -0.00195312, -0.000976562, 0.303711, -9.69727, 1.18.2022 21:5:6.473
818, 1.83157, 0.0850803, 88.5224, -0.000976562, -0.000976562, -0.000976562, -0.0595703, 0.328125, -9.73047, 1.18.2022 21:5:6.481
819, 1.83157, 0.0850803, 88.5224, -0.000976562, 0, -0.000976562, 0.0527344, 0.288086, -9.73145, 1.18.2022 21:5:6.489
820, 1.83134, 0.085164, 88.5225, -0.000976562, -0.000976562, -0.000976562, -0.00683594, 0.290039, -9.72754, 1.18.2022 21:5:6.497
821, 1.83134, 0.085164, 88.5225, -0.000976562, -0.000976562, -0.000976562, -0.0166016, 0.329102, -9.74805, 1.18.2022 21:5:6.505
822, 1.83134, 0.085164, 88.5225, -0.000976562, -0.000976562, -0.000976562, 0.0146484, 0.302734, -9.74902, 1.18.2022 21:5:6.513
823, 1.83134, 0.085164, 88.5225, 0, -0.000976562, -0.00195312, -0.0546875, 0.331055, -9.74219, 1.18.2022 21:5:6.521
824, 1.83134, 0.085164, 88.5225, 0, -0.000976562, -0.000976562, -0.0283203, 0.31543, -9.75781, 1.18.2022 21:5:6.529
825, 1.83134, 0.085164, 88.5225, 0, -0.000976562, 0.000976562, 0.0166016, 0.27832, -9.75, 1.18.2022 21:5:6.537
826, 1.83134, 0.085164, 88.5225, 0, 0, -0.000976562, -0.0595703, 0.316406, -9.7334, 1.18.2022 21:5:6.545
827, 1.83134, 0.085164, 88.5225, 0, -0.000976562, -0.000976562, 0.0214844, 0.299805, -9.7373, 1.18.2022 21:5:6.553
828, 1.83134, 0.085164, 88.5225, -0.000976562, -0.000976562, -0.000976562, -0.0185547, 0.297852, -9.72949, 1.18.2022 21:5:6.561
829, 1.83134, 0.085164, 88.5225, 0, -0.000976562, -0.000976562, -0.0527344, 0.310547, -9.75488, 1.18.2022 21:5:6.569
830, 1.83134, 0.085164, 88.5225, -0.000976562, 0, -0.000976562, 0.0341797, 0.297852, -9.7334, 1.18.2022 21:5:6.577
831, 1.83157, 0.0852382, 88.5324, 0, 0, -0.000976562, -0.0498047, 0.302734, -9.73145, 1.18.2022 21:5:6.585
832, 1.83157, 0.0852382, 88.5324, 0, 0, -0.000976562, -0.0166016, 0.357422, -9.73242, 1.18.2022 21:5:6.593
833, 1.83157, 0.0852382, 88.5324, -0.000976562, 0, -0.000976562, 0.0136719, 0.303711, -9.77734, 1.18.2022 21:5:6.601
834, 1.83157, 0.0852382, 88.5324, -0.000976562, 0, -0.000976562, -0.0517578, 0.316406, -9.72656, 1.18.2022 21:5:6.609
835, 1.83157, 0.0852382, 88.5324, -0.000976562, 0, -0.000976562, -0.00488281, 0.307617, -9.74609, 1.18.2022 21:5:6.617
836, 1.83157, 0.0852382, 88.5324, -0.000976562, 0, -0.00195312, -0.00683594, 0.290039, -9.73047, 1.18.2022 21:5:6.625
837, 1.83157, 0.0852382, 88.5324, -0.000976562, 0, -0.000976562, -0.0712891, 0.344727, -9.7207, 1.18.2022 21:5:6.633
838, 1.83133, 0.0853219, 88.5325, -0.000976562, -0.000976562, -0.00195312, 0.0322266, 0.280273, -9.70996, 1.18.2022 21:5:6.641
839, 1.83133, 0.0853219, 88.5325, -0.000976562, 0, -0.000976562, -0.0400391, 0.314453, -9.74512, 1.18.2022 21:5:6.649
840, 1.83133, 0.0853219, 88.5325, 0, -0.000976562, -0.000976562, -0.0429688, 0.324219, -9.74316, 1.18.2022 21:5:6.657
841, 1.83133, 0.0853219, 88.5325, 0, -0.000976562, -0.000976562, 0.0273438, 0.289062, -9.70703, 1.18.2022 21:5:6.665
842, 1.83133, 0.0853219, 88.5325, -0.000976562, 0, -0.000976562, -0.0615234, 0.328125, -9.7168, 1.18.2022 21:5:6.673
843, 1.83133, 0.0853219, 88.5325, 0, 0, -0.00195312, 0.0332031, 0.317383, -9.7627, 1.18.2022 21:5:6.681
844, 1.83133, 0.0853219, 88.5325, -0.000976562, -0.000976562, -0.000976562, -0.0117188, 0.297852, -9.74414, 1.18.2022 21:5:6.689
845, 1.83133, 0.0853219, 88.5325, -0.000976562, 0, -0.000976562, -0.0566406, 0.314453, -9.72363, 1.18.2022 21:5:6.697
846, 1.83133, 0.0853219, 88.5325, 0, 0, -0.000976562, 0.0292969, 0.291992, -9.7168, 1.18.2022 21:5:6.705
847, 1.83133, 0.0853219, 88.5325, 0, -0.000976562, -0.000976562, -0.0234375, 0.287109, -9.70898, 1.18.2022 21:5:6.713
848, 1.83133, 0.0853219, 88.5325, 0, -0.000976562, -0.00195312, -0.0498047, 0.3125, -9.76855, 1.18.2022 21:5:6.721
849, 1.83133, 0.0853219, 88.5325, -0.000976562, 0, -0.000976562, 0.0166016, 0.3125, -9.74902, 1.18.2022 21:5:6.729
850, 1.83133, 0.0853219, 88.5325, -0.000976562, -0.000976562, -0.000976562, -0.0566406, 0.302734, -9.74121, 1.18.2022 21:5:6.737
851, 1.83133, 0.0853219, 88.5325, -0.000976562, 0, -0.00195312, -0.0371094, 0.30957, -9.71973, 1.18.2022 21:5:6.745
852, 1.83133, 0.0853219, 88.5325, -0.000976562, -0.000976562, -0.00195312, 0.0136719, 0.325195, -9.76758, 1.18.2022 21:5:6.753
853, 1.83133, 0.0853219, 88.5325, -0.000976562, -0.000976562, -0.000976562, -0.0566406, 0.345703, -9.74219, 1.18.2022 21:5:6.761
854, 1.83133, 0.0853219, 88.5325, -0.000976562, 0, -0.000976562, 0.0126953, 0.313477, -9.7041, 1.18.2022 21:5:6.769
855, 1.83133, 0.0853219, 88.5325, -0.000976562, 0, -0.000976562, -0.00683594, 0.321289, -9.72949, 1.18.2022 21:5:6.777
856, 1.83133, 0.0853219, 88.5325, -0.000976562, 0, -0.000976562, -0.0546875, 0.31543, -9.76855, 1.18.2022 21:5:6.785
857, 1.83133, 0.0853219, 88.5325, -0.000976562, 0, -0.000976562, 0.0117188, 0.292969, -9.74902, 1.18.2022 21:5:6.793
858, 1.83157, 0.0852382, 88.5324, -0.000976562, 0, -0.00195312, -0.0449219, 0.299805, -9.73145, 1.18.2022 21:5:6.801
859, 1.83645, 0.0802304, 88.5324, -0.000976562, -0.000976562, -0.000976562, 0.00488281, 0.34375, -9.75684, 1.18.2022 21:5:6.809
860, 1.83645, 0.0802304, 88.5324, -0.000976562, -0.000976562, 0.000976562, 0.0107422, 0.306641, -9.80078, 1.18.2022 21:5:6.817
861, 1.83645, 0.0802304, 88.5324, 0, 0, -0.000976562, -0.0693359, 0.31543, -9.76855, 1.18.2022 21:5:6.825
862, 1.83645, 0.0802304, 88.5324, -0.000976562, 0.000976562, 0, 0.03125, 0.292969, -9.75, 1.18.2022 21:5:6.833
863, 1.83621, 0.0801557, 88.5225, 0, -0.000976562, -0.000976562, -0.00878906, 0.321289, -9.73633, 1.18.2022 21:5:6.841
864, 1.83621, 0.0801557, 88.5225, 0, -0.000976562, 0, -0.0419922, 0.323242, -9.72656, 1.18.2022 21:5:6.849
865, 1.83134, 0.085164, 88.5225, -0.000976562, -0.000976562, -0.000976562, 0.0644531, 0.290039, -9.73633, 1.18.2022 21:5:6.857
866, 1.83134, 0.085164, 88.5225, -0.000976562, 0, 0, -0.0332031, 0.302734, -9.73926, 1.18.2022 21:5:6.865
867, 1.83621, 0.0801557, 88.5225, -0.000976562, 0, 0, -0.0234375, 0.326172, -9.72168, 1.18.2022 21:5:6.873
868, 1.83621, 0.0801557, 88.5225, 0, 0, -0.000976562, 0.0234375, 0.283203, -9.75488, 1.18.2022 21:5:6.881
869, 1.83621, 0.0801557, 88.5225, -0.000976562, 0, -0.000976562, -0.0693359, 0.305664, -9.74805, 1.18.2022 21:5:6.889
870, 1.83621, 0.0801557, 88.5225, -0.000976562, -0.000976562, 0, 0.0263672, 0.316406, -9.73926, 1.18.2022 21:5:6.897
871, 1.83621, 0.0801557, 88.5225, -0.000976562, -0.000976562, 0.000976562, -0.00195312, 0.318359, -9.72461, 1.18.2022 21:5:6.905
872, 1.83645, 0.080072, 88.5224, -0.000976562, -0.000976562, 0.000976562, -0.0732422, 0.342773, -9.71777, 1.18.2022 21:5:6.913
873, 1.83645, 0.080072, 88.5224, -0.000976562, 0, 0, 0.0175781, 0.328125, -9.71973, 1.18.2022 21:5:6.921
874, 1.83157, 0.0850803, 88.5224, 0, -0.000976562, -0.000976562, -0.0332031, 0.30957, -9.73145, 1.18.2022 21:5:6.929
875, 1.83157, 0.0850803, 88.5224, -0.000976562, -0.000976562, -0.000976562, -0.03125, 0.317383, -9.75977, 1.18.2022 21:5:6.937
876, 1.83157, 0.0850803, 88.5224, -0.000976562, -0.000976562, -0.000976562, 0.0498047, 0.28418, -9.7832, 1.18.2022 21:5:6.945
877, 1.83134, 0.085164, 88.5225, -0.000976562, -0.000976562, 0, -0.0537109, 0.316406, -9.71484, 1.18.2022 21:5:6.953
878, 1.83134, 0.085164, 88.5225, -0.000976562, 0, 0.000976562, -0.00878906, 0.316406, -9.73438, 1.18.2022 21:5:6.961
879, 1.83157, 0.0850803, 88.5224, -0.000976562, -0.000976562, 0.000976562, -0.0136719, 0.317383, -9.74316, 1.18.2022 21:5:6.969
880, 1.83157, 0.0850803, 88.5224, 0, -0.000976562, 0, -0.0830078, 0.348633, -9.75098, 1.18.2022 21:5:6.977
881, 1.83134, 0.085164, 88.5225, -0.000976562, 0, 0, 0.0214844, 0.302734, -9.76074, 1.18.2022 21:5:6.985
882, 1.83134, 0.085164, 88.5225, -0.000976562, 0, -0.000976562, -0.0361328, 0.297852, -9.74805, 1.18.2022 21:5:6.993
883, 1.83134, 0.085164, 88.5225, -0.000976562, 0, 0, -0.0283203, 0.331055, -9.73828, 1.18.2022 21:5:7.001
884, 1.83134, 0.085164, 88.5225, 0, 0, 0, 0.0283203, 0.286133, -9.75195, 1.18.2022 21:5:7.009
885, 1.83134, 0.085164, 88.5225, 0, -0.000976562, 0, -0.0595703, 0.310547, -9.75195, 1.18.2022 21:5:7.017
886, 1.83134, 0.085164, 88.5225, -0.000976562, -0.000976562, -0.000976562, -0.0107422, 0.320312, -9.71289, 1.18.2022 21:5:7.025
887, 1.83134, 0.085164, 88.5225, -0.000976562, -0.000976562, 0, 0.0410156, 0.266602, -9.74121, 1.18.2022 21:5:7.033
888, 1.83134, 0.085164, 88.5225, -0.000976562, 0, 0, -0.0449219, 0.316406, -9.72656, 1.18.2022 21:5:7.041
889, 1.83134, 0.085164, 88.5225, 0, 0, 0, 0.0166016, 0.325195, -9.78418, 1.18.2022 21:5:7.049
890, 1.83134, 0.085164, 88.5225, -0.000976562, 0.000976562, 0, -0.03125, 0.294922, -9.74121, 1.18.2022 21:5:7.057
891, 1.83134, 0.085164, 88.5225, -0.000976562, 0, 0, -0.0322266, 0.322266, -9.68848, 1.18.2022 21:5:7.065
892, 1.83134, 0.085164, 88.5225, -0.000976562, -0.000976562, 0.000976562, 0.0556641, 0.311523, -9.71875, 1.18.2022 21:5:7.073
893, 1.83134, 0.085164, 88.5225, 0, -0.000976562, 0, -0.0478516, 0.326172, -9.74023, 1.18.2022 21:5:7.081
894, 1.83157, 0.0852382, 88.5324, -0.000976562, 0, -0.000976562, -0.0380859, 0.327148, -9.75, 1.18.2022 21:5:7.089
895, 1.83157, 0.0852382, 88.5324, -0.000976562, -0.000976562, 0, 0.0380859, 0.291016, -9.75684, 1.18.2022 21:5:7.097
896, 1.83157, 0.0852382, 88.5324, 0, -0.000976562, -0.000976562, -0.0927734, 0.30957, -9.72363, 1.18.2022 21:5:7.105
897, 1.83157, 0.0852382, 88.5324, -0.000976562, -0.000976562, 0, 0.0292969, 0.306641, -9.72754, 1.18.2022 21:5:7.113
898, 1.83157, 0.0852382, 88.5324, -0.000976562, -0.000976562, 0, 0.00292969, 0.292969, -9.7373, 1.18.2022 21:5:7.121
899, 1.83157, 0.0852382, 88.5324, -0.000976562, 0, 0, -0.0517578, 0.304688, -9.74316, 1.18.2022 21:5:7.129
900, 1.83157, 0.0852382, 88.5324, -0.000976562, -0.000976562, 0, 0.0410156, 0.283203, -9.73145, 1.18.2022 21:5:7.137
901, 1.83157, 0.0852382, 88.5324, -0.000976562, 0, 0, -0.0185547, 0.299805, -9.73438, 1.18.2022 21:5:7.145
902, 1.83133, 0.0853219, 88.5325, -0.000976562, -0.000976562, 0, -0.0332031, 0.316406, -9.7334, 1.18.2022 21:5:7.153
903, 1.83133, 0.0853219, 88.5325, 0, 0, 0, 0.0419922, 0.28418, -9.78027, 1.18.2022 21:5:7.161
904, 1.83133, 0.0853219, 88.5325, -0.000976562, 0, 0, -0.0683594, 0.326172, -9.72852, 1.18.2022 21:5:7.169
905, 1.83133, 0.0853219, 88.5325, -0.000976562, 0, 0, -0.00683594, 0.331055, -9.74512, 1.18.2022 21:5:7.177
906, 1.83133, 0.0853219, 88.5325, -0.000976562, -0.000976562, 0, 0.00976562, 0.30957, -9.72266, 1.18.2022 21:5:7.185
907, 1.83133, 0.0853219, 88.5325, 0.000976562, -0.000976562, 0, -0.0664062, 0.319336, -9.73047, 1.18.2022 21:5:7.193
908, 1.83133, 0.0853219, 88.5325, 0, 0, -0.000976562, 0.0117188, 0.294922, -9.74414, 1.18.2022 21:5:7.201
909, 1.83133, 0.0853219, 88.5325, -0.000976562, 0, -0.000976562, -0.0166016, 0.302734, -9.75293, 1.18.2022 21:5:7.209
910, 1.83157, 0.0853962, 88.5424, -0.00195312, -0.000976562, 0, -0.0400391, 0.30957, -9.73633, 1.18.2022 21:5:7.217
911, 1.83157, 0.0853962, 88.5424, -0.000976562, -0.000976562, 0.000976562, 0.0263672, 0.302734, -9.75195, 1.18.2022 21:5:7.225
912, 1.83157, 0.0853962, 88.5424, -0.000976562, -0.000976562, 0, -0.0664062, 0.304688, -9.73633, 1.18.2022 21:5:7.233
913, 1.83157, 0.0853962, 88.5424, 0, 0, 0, -0.00878906, 0.323242, -9.70801, 1.18.2022 21:5:7.241
914, 1.83133, 0.0854798, 88.5425, 0, 0, -0.000976562, 0.0224609, 0.321289, -9.71582, 1.18.2022 21:5:7.249
915, 1.83133, 0.0854798, 88.5425, 0, -0.000976562, 0, -0.0517578, 0.331055, -9.73047, 1.18.2022 21:5:7.257
916, 1.83133, 0.0854798, 88.5425, 0, -0.000976562, 0, 0.0214844, 0.307617, -9.74414, 1.18.2022 21:5:7.265
917, 1.83133, 0.0854798, 88.5425, -0.000976562, -0.000976562, 0, -0.00878906, 0.296875, -9.70898, 1.18.2022 21:5:7.273
918, 1.83133, 0.0854798, 88.5425, 0, -0.000976562, -0.000976562, -0.0498047, 0.316406, -9.72168, 1.18.2022 21:5:7.281
919, 1.83133, 0.0854798, 88.5425, 0, 0, 0, 0.0341797, 0.272461, -9.70508, 1.18.2022 21:5:7.289
920, 1.83133, 0.0854798, 88.5425, -0.000976562, 0, 0, -0.0615234, 0.292969, -9.74805, 1.18.2022 21:5:7.297
921, 1.83133, 0.0854798, 88.5425, -0.000976562, -0.000976562, -0.000976562, -0.0380859, 0.333984, -9.73828, 1.18.2022 21:5:7.305
922, 1.83157, 0.0855541, 88.5524, -0.000976562, -0.000976562, -0.000976562, 0.0185547, 0.282227, -9.77539, 1.18.2022 21:5:7.313
923, 1.83157, 0.0855541, 88.5524, -0.000976562, -0.000976562, 0, -0.0839844, 0.325195, -9.76074, 1.18.2022 21:5:7.321
924, 1.83157, 0.0855541, 88.5524, -0.00195312, -0.000976562, 0, 0.0078125, 0.291992, -9.71387, 1.18.2022 21:5:7.329
925, 1.83157, 0.0855541, 88.5524, -0.000976562, 0, 0, -0.00878906, 0.276367, -9.73535, 1.18.2022 21:5:7.337
926, 1.83157, 0.0855541, 88.5524, -0.00195312, 0, 0, -0.0644531, 0.324219, -9.74707, 1.18.2022 21:5:7.345
927, 1.83133, 0.0854798, 88.5425, -0.000976562, 0, 0, 0.0478516, 0.291992, -9.72168, 1.18.2022 21:5:7.353
928, 1.83133, 0.0854798, 88.5425, -0.000976562, 0, 0, -0.0478516, 0.297852, -9.75781, 1.18.2022 21:5:7.361
929, 1.83133, 0.0854798, 88.5425, -0.000976562, 0, 0, -0.0234375, 0.321289, -9.73145, 1.18.2022 21:5:7.369
930, 1.83133, 0.0854798, 88.5425, 0, 0, 0, 0.0195312, 0.3125, -9.74219, 1.18.2022 21:5:7.377
931, 1.83133, 0.0854798, 88.5425, -0.000976562, -0.000976562, 0, -0.0410156, 0.324219, -9.76172, 1.18.2022 21:5:7.385
932, 1.83133, 0.0854798, 88.5425, 0, 0, -0.000976562, 0, 0.316406, -9.73633, 1.18.2022 21:5:7.393
933, 1.83133, 0.0854798, 88.5425, 0, -0.000976562, 0.000976562, 0.00976562, 0.302734, -9.74902, 1.18.2022 21:5:7.401
934, 1.83133, 0.0854798, 88.5425, 0, -0.000976562, 0, -0.0527344, 0.310547, -9.75293, 1.18.2022 21:5:7.409
935, 1.83133, 0.0854798, 88.5425, 0, -0.000976562, 0, 0.0263672, 0.302734, -9.74414, 1.18.2022 21:5:7.417
936, 1.83133, 0.0854798, 88.5425, 0, 0, 0, -0.0136719, 0.3125, -9.74316, 1.18.2022 21:5:7.425
937, 1.83157, 0.0853962, 88.5424, -0.000976562, -0.000976562, 0, -0.0419922, 0.301758, -9.71484, 1.18.2022 21:5:7.433
938, 1.83157, 0.0853962, 88.5424, 0, -0.000976562, 0, 0.0263672, 0.295898, -9.76367, 1.18.2022 21:5:7.439
939, 1.83157, 0.0853962, 88.5424, 0, -0.000976562, 0, -0.0595703, 0.314453, -9.73535, 1.18.2022 21:5:7.447
940, 1.83157, 0.0853962, 88.5424, -0.000976562, -0.000976562, -0.000976562, -0.0117188, 0.316406, -9.74121, 1.18.2022 21:5:7.455
941, 1.83157, 0.0853962, 88.5424, -0.000976562, -0.000976562, 0, -0.0136719, 0.314453, -9.72461, 1.18.2022 21:5:7.463
942, 1.83133, 0.0853219, 88.5325, -0.000976562, -0.000976562, 0, -0.0761719, 0.329102, -9.74902, 1.18.2022 21:5:7.471
943, 1.83133, 0.0853219, 88.5325, -0.000976562, -0.000976562, 0, 0.00976562, 0.326172, -9.75098, 1.18.2022 21:5:7.479
944, 1.83133, 0.0853219, 88.5325, 0, 0, 0, -0.00683594, 0.317383, -9.74805, 1.18.2022 21:5:7.487
945, 1.83133, 0.0853219, 88.5325, -0.000976562, -0.000976562, 0, -0.0615234, 0.31543, -9.75488, 1.18.2022 21:5:7.495
946, 1.83133, 0.0853219, 88.5325, 0, -0.000976562, 0, 0.0576172, 0.299805, -9.72656, 1.18.2022 21:5:7.503
947, 1.83133, 0.0853219, 88.5325, 0, 0, 0.000976562, -0.0449219, 0.317383, -9.75684, 1.18.2022 21:5:7.511
948, 1.83133, 0.0853219, 88.5325, 0, -0.000976562, 0.000976562, -0.0253906, 0.324219, -9.73633, 1.18.2022 21:5:7.519
949, 1.83133, 0.0853219, 88.5325, -0.000976562, -0.000976562, 0, 0.0449219, 0.286133, -9.75, 1.18.2022 21:5:7.527
950, 1.83133, 0.0853219, 88.5325, 0, -0.000976562, -0.000976562, -0.0644531, 0.296875, -9.77832, 1.18.2022 21:5:7.535
951, 1.83133, 0.0853219, 88.5325, -0.000976562, -0.000976562, 0, 0.0234375, 0.3125, -9.75879, 1.18.2022 21:5:7.543
952, 1.83133, 0.0853219, 88.5325, -0.000976562, 0, -0.000976562, -0.00292969, 0.28418, -9.75879, 1.18.2022 21:5:7.551
953, 1.83133, 0.0853219, 88.5325, -0.000976562, -0.000976562, 0, -0.0449219, 0.324219, -9.75977, 1.18.2022 21:5:7.559
954, 1.83157, 0.0853962, 88.5424, 0, -0.000976562, 0, 0.0380859, 0.307617, -9.76855, 1.18.2022 21:5:7.567
955, 1.83157, 0.0853962, 88.5424, 0, -0.000976562, 0, -0.0332031, 0.294922, -9.73242, 1.18.2022 21:5:7.575
956, 1.83157, 0.0853962, 88.5424, 0, -0.000976562, 0, -0.03125, 0.329102, -9.75, 1.18.2022 21:5:7.583
957, 1.82645, 0.0904872, 88.5425, 0, -0.000976562, 0, 0.0146484, 0.311523, -9.70898, 1.18.2022 21:5:7.591
958, 1.82645, 0.0904872, 88.5425, 0, -0.000976562, 0, -0.078125, 0.304688, -9.73535, 1.18.2022 21:5:7.599
959, 1.82645, 0.0904872, 88.5425, -0.000976562, -0.000976562, 0, 0.00292969, 0.329102, -9.75293, 1.18.2022 21:5:7.607
960, 1.82645, 0.0904872, 88.5425, -0.000976562, -0.000976562, -0.00195312, 0.0175781, 0.300781, -9.69238, 1.18.2022 21:5:7.615
961, 1.82645, 0.0904872, 88.5425, -0.000976562, -0.000976562, 0, -0.0595703, 0.338867, -9.74219, 1.18.2022 21:5:7.623
962, 1.82669, 0.0905611, 88.5524, -0.000976562, -0.000976562, 0, 0.0205078, 0.298828, -9.69727, 1.18.2022 21:5:7.631
963, 1.82669, 0.0905611, 88.5524, -0.000976562, -0.00195312, 0, -0.00878906, 0.301758, -9.71777, 1.18.2022 21:5:7.639
964, 1.82669, 0.0905611, 88.5524, 0, -0.00195312, 0, -0.0566406, 0.324219, -9.72852, 1.18.2022 21:5:7.647
965, 1.82669, 0.0905611, 88.5524, 0, -0.00195312, 0.000976562, 0.0292969, 0.290039, -9.7334, 1.18.2022 21:5:7.655
966, 1.82669, 0.0905611, 88.5524, 0, -0.000976562, 0, -0.0644531, 0.286133, -9.73633, 1.18.2022 21:5:7.663
967, 1.82669, 0.0905611, 88.5524, -0.000976562, -0.000976562, 0, -0.0078125, 0.298828, -9.76562, 1.18.2022 21:5:7.671
968, 1.82645, 0.0906448, 88.5526, 0, -0.000976562, 0, -0.0185547, 0.316406, -9.71777, 1.18.2022 21:5:7.679
969, 1.82645, 0.0906448, 88.5526, -0.000976562, -0.000976562, 0, -0.0615234, 0.335938, -9.74707, 1.18.2022 21:5:7.687
970, 1.82645, 0.0906448, 88.5526, -0.000976562, -0.000976562, 0, 0.0126953, 0.291992, -9.70703, 1.18.2022 21:5:7.695
971, 1.82645, 0.0906448, 88.5526, 0, -0.000976562, 0, -0.0136719, 0.306641, -9.71289, 1.18.2022 21:5:7.703
972, 1.82645, 0.0906448, 88.5526, 0, -0.000976562, 0, -0.0322266, 0.328125, -9.70508, 1.18.2022 21:5:7.711
973, 1.82645, 0.0906448, 88.5526, 0, -0.000976562, 0, 0.0458984, 0.272461, -9.71484, 1.18.2022 21:5:7.719
974, 1.82645, 0.0906448, 88.5526, 0, -0.000976562, 0, -0.0449219, 0.304688, -9.73828, 1.18.2022 21:5:7.727
975, 1.82669, 0.0907186, 88.5624, -0.000976562, -0.000976562, 0, -0.0253906, 0.320312, -9.70312, 1.18.2022 21:5:7.735
976, 1.82669, 0.0907186, 88.5624, 0, -0.000976562, -0.00195312, 0.03125, 0.274414, -9.75684, 1.18.2022 21:5:7.743
977, 1.82669, 0.0907186, 88.5624, 0, 0, -0.00195312, -0.0595703, 0.322266, -9.77344, 1.18.2022 21:5:7.751
978, 1.82645, 0.0908023, 88.5626, 0, 0, 0, -0.00488281, 0.283203, -9.73242, 1.18.2022 21:5:7.759
979, 1.82645, 0.0908023, 88.5626, -0.000976562, 0, 0, -0.00488281, 0.291016, -9.74707, 1.18.2022 21:5:7.767
980, 1.82645, 0.0908023, 88.5626, -0.000976562, -0.000976562, 0, -0.0585938, 0.321289, -9.72363, 1.18.2022 21:5:7.775
981, 1.82645, 0.0908023, 88.5626, -0.000976562, -0.000976562, 0, 0.0234375, 0.300781, -9.76074, 1.18.2022 21:5:7.783
982, 1.82645, 0.0908023, 88.5626, -0.000976562, 0, 0, -0.0546875, 0.319336, -9.74316, 1.18.2022 21:5:7.791
983, 1.82645, 0.0908023, 88.5626, -0.000976562, 0.000976562, 0, -0.00683594, 0.316406, -9.73633, 1.18.2022 21:5:7.799
984, 1.82645, 0.0908023, 88.5626, -0.000976562, 0, 0, 0.0400391, 0.248047, -9.75098, 1.18.2022 21:5:7.807
985, 1.82645, 0.0908023, 88.5626, -0.000976562, 0, -0.000976562, -0.0712891, 0.299805, -9.7334, 1.18.2022 21:5:7.815
986, 1.83133, 0.0857957, 88.5626, -0.00195312, 0, 0, 0, 0.28418, -9.75684, 1.18.2022 21:5:7.823
987, 1.83133, 0.0857957, 88.5626, -0.000976562, -0.000976562, 0, 0.0078125, 0.285156, -9.7373, 1.18.2022 21:5:7.831
988, 1.83133, 0.0857957, 88.5626, 0, -0.000976562, 0, -0.0664062, 0.328125, -9.70898, 1.18.2022 21:5:7.839
989, 1.83133, 0.0857957, 88.5626, -0.000976562, 0, 0, 0.0214844, 0.283203, -9.7334, 1.18.2022 21:5:7.847
990, 1.83133, 0.0857957, 88.5626, -0.000976562, 0, 0, -0.0185547, 0.304688, -9.74414, 1.18.2022 21:5:7.855
991, 1.83133, 0.0857957, 88.5626, -0.000976562, 0, 0, -0.0136719, 0.316406, -9.73145, 1.18.2022 21:5:7.863
992, 1.83133, 0.0857957, 88.5626, -0.000976562, -0.000976562, 0, 0.0429688, 0.296875, -9.73047, 1.18.2022 21:5:7.871
993, 1.83133, 0.0857957, 88.5626, -0.000976562, 0, 0, -0.0595703, 0.326172, -9.74219, 1.18.2022 21:5:7.879
994, 1.83133, 0.0857957, 88.5626, -0.000976562, 0, 0, -0.0117188, 0.302734, -9.74902, 1.18.2022 21:5:7.887
995, 1.83133, 0.0857957, 88.5626, -0.000976562, -0.000976562, -0.00195312, 0.00488281, 0.324219, -9.74121, 1.18.2022 21:5:7.895
996, 1.83133, 0.0857957, 88.5626, 0, -0.000976562, 0, -0.0859375, 0.341797, -9.77734, 1.18.2022 21:5:7.903
997, 1.83133, 0.0857957, 88.5626, -0.000976562, -0.000976562, 0.000976562, 0.0429688, 0.326172, -9.72949, 1.18.2022 21:5:7.911
998, 1.83133, 0.0857957, 88.5626, 0, -0.000976562, 0, -0.0302734, 0.304688, -9.73145, 1.18.2022 21:5:7.919
999, 1.83133, 0.0857957, 88.5626, 0, 0, 0, -0.0351562, 0.34082, -9.73047, 1.18.2022 21:5:7.927
1000, 1.83133, 0.0857957, 88.5626, -0.000976562, 0, 0, 0.0292969, 0.291992, -9.72559, 1.18.2022 21:5:7.935
1001, 1.83133, 0.0857957, 88.5626, -0.000976562, -0.000976562, 0, -0.0546875, 0.295898, -9.74316, 1.18.2022 21:5:7.943
1002, 1.83157, 0.08587, 88.5725, -0.000976562, -0.000976562, -0.00195312, -0.0400391, 0.326172, -9.71875, 1.18.2022 21:5:7.951
1003, 1.83157, 0.08587, 88.5725, -0.000976562, 0, -0.000976562, 0.0175781, 0.296875, -9.71387, 1.18.2022 21:5:7.959
1004, 1.83157, 0.08587, 88.5725, 0, -0.000976562, 0, -0.0615234, 0.324219, -9.73535, 1.18.2022 21:5:7.967
1005, 1.83133, 0.0859537, 88.5726, 0, -0.000976562, 0, 0.00976562, 0.304688, -9.73047, 1.18.2022 21:5:7.975
1006, 1.83133, 0.0859537, 88.5726, -0.000976562, -0.000976562, 0, -0.0117188, 0.297852, -9.73438, 1.18.2022 21:5:7.983
1007, 1.83133, 0.0859537, 88.5726, 0.000976562, 0, -0.00195312, -0.0742188, 0.320312, -9.75684, 1.18.2022 21:5:7.991
1008, 1.83133, 0.0859537, 88.5726, 0, -0.000976562, -0.00195312, 0.0273438, 0.291992, -9.71387, 1.18.2022 21:5:7.999
1009, 1.83133, 0.0859537, 88.5726, -0.000976562, -0.000976562, 0, -0.0136719, 0.325195, -9.70312, 1.18.2022 21:5:8.007
1010, 1.83133, 0.0859537, 88.5726, -0.000976562, 0, -0.000976562, -0.00683594, 0.335938, -9.73633, 1.18.2022 21:5:8.015
1011, 1.83133, 0.0859537, 88.5726, -0.000976562, 0, -0.000976562, 0.0244141, 0.285156, -9.7334, 1.18.2022 21:5:8.023
1012, 1.83133, 0.0859537, 88.5726, -0.000976562, -0.000976562, 0, -0.0615234, 0.305664, -9.75, 1.18.2022 21:5:8.031
1013, 1.83133, 0.0859537, 88.5726, 0, -0.00195312, 0, -0.0166016, 0.341797, -9.77148, 1.18.2022 21:5:8.039
1014, 1.83133, 0.0859537, 88.5726, -0.000976562, -0.000976562, 0, -0.00878906, 0.316406, -9.73926, 1.18.2022 21:5:8.047
1015, 1.83133, 0.0859537, 88.5726, -0.000976562, -0.000976562, 0, -0.0615234, 0.333008, -9.72363, 1.18.2022 21:5:8.055
1016, 1.83133, 0.0859537, 88.5726, -0.000976562, -0.000976562, 0, 0.0078125, 0.299805, -9.72559, 1.18.2022 21:5:8.063
1017, 1.83133, 0.0859537, 88.5726, 0, -0.000976562, 0, -0.0136719, 0.307617, -9.73633, 1.18.2022 21:5:8.071
1018, 1.83133, 0.0859537, 88.5726, 0, -0.000976562, 0, -0.0234375, 0.291016, -9.74414, 1.18.2022 21:5:8.079
1019, 1.83133, 0.0859537, 88.5726, -0.000976562, -0.000976562, 0, 0.0263672, 0.285156, -9.73828, 1.18.2022 21:5:8.087
1020, 1.82645, 0.0909598, 88.5726, 0, -0.000976562, 0, -0.0351562, 0.304688, -9.73145, 1.18.2022 21:5:8.095
1021, 1.82645, 0.0909598, 88.5726, 0, -0.000976562, 0, -0.0283203, 0.318359, -9.72168, 1.18.2022 21:5:8.103
1022, 1.82645, 0.0909598, 88.5726, -0.000976562, 0, 0, -0.0253906, 0.299805, -9.71777, 1.18.2022 21:5:8.111
1023, 1.82645, 0.0909598, 88.5726, 0, -0.000976562, 0, -0.0595703, 0.348633, -9.75098, 1.18.2022 21:5:8.119
1024, 1.82645, 0.0909598, 88.5726, 0, 0, 0, 0.0214844, 0.320312, -9.76758, 1.18.2022 21:5:8.127
1025, 1.82645, 0.0909598, 88.5726, -0.000976562, -0.000976562, 0, -0.00195312, 0.294922, -9.73438, 1.18.2022 21:5:8.135
1026, 1.82645, 0.0909598, 88.5726, 0, 0, 0, -0.0595703, 0.325195, -9.76855, 1.18.2022 21:5:8.143
1027, 1.82645, 0.0909598, 88.5726, 0, -0.00195312, 0, 0.0292969, 0.290039, -9.74219, 1.18.2022 21:5:8.151
1028, 1.82645, 0.0909598, 88.5726, 0, -0.000976562, 0, -0.03125, 0.307617, -9.75781, 1.18.2022 21:5:8.159
1029, 1.82645, 0.0909598, 88.5726, 0, -0.000976562, 0, -0.0136719, 0.31543, -9.70605, 1.18.2022 21:5:8.167
1030, 1.82645, 0.0909598, 88.5726, -0.000976562, -0.000976562, 0, 0.0390625, 0.291992, -9.72852, 1.18.2022 21:5:8.175
1031, 1.82645, 0.0909598, 88.5726, -0.000976562, -0.000976562, -0.000976562, -0.0595703, 0.296875, -9.77441, 1.18.2022 21:5:8.183
1032, 1.82645, 0.0909598, 88.5726, -0.000976562, -0.000976562, 0, -0.0136719, 0.302734, -9.74609, 1.18.2022 21:5:8.191
1033, 1.82645, 0.0909598, 88.5726, 0, 0, 0, -0.0253906, 0.268555, -9.72852, 1.18.2022 21:5:8.199
1034, 1.82645, 0.0909598, 88.5726, -0.000976562, -0.000976562, 0, -0.0517578, 0.330078, -9.69727, 1.18.2022 21:5:8.207
1035, 1.82645, 0.0909598, 88.5726, 0, 0, 0, 0.0361328, 0.316406, -9.7373, 1.18.2022 21:5:8.215
1036, 1.82669, 0.0908761, 88.5725, -0.000976562, -0.000976562, -0.000976562, -0.0302734, 0.307617, -9.73633, 1.18.2022 21:5:8.223
1037, 1.82669, 0.0908761, 88.5725, -0.000976562, -0.000976562, 0, -0.0117188, 0.317383, -9.74316, 1.18.2022 21:5:8.231
1038, 1.82669, 0.0908761, 88.5725, -0.000976562, -0.000976562, -0.000976562, 0.0234375, 0.28418, -9.76855, 1.18.2022 21:5:8.239
1039, 1.82669, 0.0908761, 88.5725, -0.00195312, -0.000976562, 0, -0.0478516, 0.333984, -9.74219, 1.18.2022 21:5:8.247
1040, 1.82645, 0.0908023, 88.5626, -0.000976562, -0.000976562, 0, 0.00488281, 0.318359, -9.72461, 1.18.2022 21:5:8.255
1041, 1.82645, 0.0908023, 88.5626, -0.000976562, 0, 0, -0.00878906, 0.294922, -9.73242, 1.18.2022 21:5:8.263
1042, 1.82645, 0.0908023, 88.5626, -0.00195312, 0, 0, -0.0546875, 0.333984, -9.74902, 1.18.2022 21:5:8.271
1043, 1.83133, 0.0857957, 88.5626, -0.000976562, 0.000976562, 0, 0.0234375, 0.291016, -9.76562, 1.18.2022 21:5:8.279
1044, 1.83133, 0.0857957, 88.5626, 0, -0.000976562, 0, -0.0429688, 0.305664, -9.75, 1.18.2022 21:5:8.287
1045, 1.83133, 0.0857957, 88.5626, -0.000976562, 0, 0.000976562, -0.0419922, 0.318359, -9.71191, 1.18.2022 21:5:8.295
1046, 1.83133, 0.0857957, 88.5626, 0, -0.000976562, 0, 0.0517578, 0.291016, -9.77344, 1.18.2022 21:5:8.303
1047, 1.83157, 0.0857121, 88.5624, -0.000976562, -0.000976562, 0, -0.0595703, 0.308594, -9.77344, 1.18.2022 21:5:8.311
1048, 1.83157, 0.0857121, 88.5624, 0, -0.000976562, 0, -0.0234375, 0.311523, -9.71484, 1.18.2022 21:5:8.319
1049, 1.83157, 0.0857121, 88.5624, 0.000976562, 0, 0, 0.00488281, 0.313477, -9.77441, 1.18.2022 21:5:8.327
1050, 1.83133, 0.0856378, 88.5526, 0, -0.000976562, 0, -0.0546875, 0.300781, -9.76172, 1.18.2022 21:5:8.335
1051, 1.82645, 0.0906448, 88.5526, 0, -0.000976562, -0.000976562, 0.0380859, 0.303711, -9.77539, 1.18.2022 21:5:8.343
1052, 1.82645, 0.0906448, 88.5526, -0.000976562, 0, 0, -0.0214844, 0.302734, -9.75586, 1.18.2022 21:5:8.351
