Seq, Rot x, Rot y, Rot z, Vel x, Vel y, Vel z, Acc x, Acc y, Acc z, Time(m.d.y h:m:s.ms)
0, 1.70664, 0.390923, 90.0227, -0.000976562, 0, 0, -0.0351562, 0.273438, -9.7373, 1.18.2022 20:51:51.951
1, 1.70664, 0.390923, 90.0227, -0.000976562, -0.000976562, 0, -0.144531, 0.313477, -9.71094, 1.18.2022 20:51:51.955
2, 1.70664, 0.390923, 90.0227, -0.000976562, 0, -0.00195312, -0.0595703, 0.307617, -9.74316, 1.18.2022 20:51:51.963
3, 1.70664, 0.390923, 90.0227, 0, 0, 0, -0.0498047, 0.282227, -9.71289, 1.18.2022 20:51:51.971
4, 1.70664, 0.390923, 90.0227, 0, 0, 0, -0.116211, 0.321289, -9.71777, 1.18.2022 20:51:51.979
5, 1.70664, 0.390923, 90.0227, 0, -0.000976562, 0, -0.00976562, 0.272461, -9.76367, 1.18.2022 20:51:51.987
6, 1.70664, 0.390923, 90.0227, -0.000976562, -0.000976562, 0, -0.0576172, 0.298828, -9.76465, 1.18.2022 20:51:51.995
7, 1.70664, 0.390923, 90.0227, -0.000976562, -0.000976562, 0, -0.0849609, 0.311523, -9.72852, 1.18.2022 20:51:52.003
8, 1.70664, 0.390923, 90.0227, 0, -0.000976562, 0, -0.0205078, 0.291992, -9.70605, 1.18.2022 20:51:52.011
9, 1.70664, 0.390923, 90.0227, 0, -0.000976562, 0, -0.130859, 0.285156, -9.71191, 1.18.2022 20:51:52.017
10, 1.70664, 0.390923, 90.0227, 0, -0.000976562, 0, -0.0566406, 0.299805, -9.74121, 1.18.2022 20:51:52.025
11, 1.70664, 0.390923, 90.0227, -0.000976562, -0.000976562, 0, -0.046875, 0.287109, -9.71094, 1.18.2022 20:51:52.033
12, 1.70664, 0.390923, 90.0227, -0.000976562, -0.000976562, 0, -0.107422, 0.329102, -9.76074, 1.18.2022 20:51:52.041
13, 1.71159, 0.395869, 90.0225, 0, -0.000976562, 0, -0.03125, 0.30957, -9.75, 1.18.2022 20:51:52.049
14, 1.71159, 0.395869, 90.0225, 0, 0, 0, -0.078125, 0.266602, -9.74414, 1.18.2022 20:51:52.057
15, 1.71159, 0.395869, 90.0225, 0, 0, 0, -0.0976562, 0.274414, -9.74316, 1.18.2022 20:51:52.065
16, 1.71159, 0.395869, 90.0225, 0, -0.000976562, 0, -0.0224609, 0.244141, -9.79004, 1.18.2022 20:51:52.073
17, 1.71159, 0.395869, 90.0225, -0.000976562, -0.000976562, 0, -0.121094, 0.271484, -9.71973, 1.18.2022 20:51:52.081
18, 1.71159, 0.395869, 90.0225, -0.000976562, -0.000976562, -0.00195312, -0.0996094, 0.28125, -9.7334, 1.18.2022 20:51:52.089
19, 1.71159, 0.395869, 90.0225, -0.000976562, 0, 0, -0.0576172, 0.308594, -9.7666, 1.18.2022 20:51:52.097
20, 1.71159, 0.395869, 90.0225, 0, -0.000976562, 0, -0.114258, 0.317383, -9.75586, 1.18.2022 20:51:52.105
21, 1.71159, 0.395869, 90.0225, 0, -0.000976562, 0, -0.0351562, 0.30957, -9.73633, 1.18.2022 20:51:52.113
22, 1.71159, 0.395869, 90.0225, -0.000976562, -0.00195312, 0, -0.0498047, 0.28418, -9.76074, 1.18.2022 20:51:52.121
23, 1.71159, 0.395869, 90.0225, -0.00195312, -0.00195312, 0.000976562, -0.0800781, 0.291992, -9.71191, 1.18.2022 20:51:52.129
24, 1.71159, 0.395869, 90.0225, -0.000976562, -0.000976562, 0, 0.0146484, 0.261719, -9.75, 1.18.2022 20:51:52.137
25, 1.71159, 0.395869, 90.0225, -0.000976562, -0.000976562, -0.000976562, -0.0976562, 0.283203, -9.74316, 1.18.2022 20:51:52.145
26, 1.71653, 0.400815, 90.0224, -0.000976562, -0.000976562, -0.00195312, -0.0683594, 0.316406, -9.7334, 1.18.2022 20:51:52.153
27, 1.71629, 0.400906, 90.0224, 0, -0.000976562, -0.00195312, -0.0253906, 0.279297, -9.69727, 1.18.2022 20:51:52.161
28, 1.71629, 0.400906, 90.0224, 0, -0.000976562, -0.000976562, -0.130859, 0.292969, -9.74414, 1.18.2022 20:51:52.169
29, 1.71629, 0.400906, 90.0224, 0, -0.000976562, -0.000976562, -0.0566406, 0.291992, -9.72266, 1.18.2022 20:51:52.177
30, 1.71629, 0.400906, 90.0224, 0, -0.000976562, 0.000976562, -0.0878906, 0.276367, -9.74121, 1.18.2022 20:51:52.185
31, 1.71653, 0.400815, 90.0224, 0, -0.000976562, 0.000976562, -0.118164, 0.31543, -9.69922, 1.18.2022 20:51:52.193
32, 1.71653, 0.400815, 90.0224, 0, 0, 0, -0.0253906, 0.296875, -9.72461, 1.18.2022 20:51:52.201
33, 1.71653, 0.400815, 90.0224, 0, 0, 0, -0.0878906, 0.304688, -9.73535, 1.18.2022 20:51:52.209
34, 1.71653, 0.400815, 90.0224, -0.000976562, -0.000976562, -0.000976562, -0.0761719, 0.290039, -9.72949, 1.18.2022 20:51:52.217
35, 1.71653, 0.400815, 90.0224, 0, 0, 0, -0.0419922, 0.268555, -9.7207, 1.18.2022 20:51:52.225
36, 1.71653, 0.400815, 90.0224, 0, -0.000976562, -0.000976562, -0.133789, 0.297852, -9.74707, 1.18.2022 20:51:52.233
37, 1.71653, 0.400815, 90.0224, -0.000976562, 0, 0, -0.0429688, 0.286133, -9.75293, 1.18.2022 20:51:52.241
38, 1.71653, 0.400815, 90.0224, -0.000976562, -0.000976562, -0.000976562, -0.0527344, 0.261719, -9.74902, 1.18.2022 20:51:52.249
39, 1.71653, 0.400815, 90.0224, -0.000976562, 0, 0, -0.106445, 0.296875, -9.72168, 1.18.2022 20:51:52.257
40, 1.71653, 0.400815, 90.0224, -0.000976562, -0.000976562, -0.000976562, -0.00878906, 0.267578, -9.70215, 1.18.2022 20:51:52.265
41, 1.71653, 0.400815, 90.0224, 0, -0.000976562, -0.000976562, -0.0517578, 0.263672, -9.71387, 1.18.2022 20:51:52.273
42, 1.71653, 0.400815, 90.0224, -0.000976562, -0.00195312, -0.000976562, -0.0869141, 0.301758, -9.70508, 1.18.2022 20:51:52.281
43, 1.71653, 0.400815, 90.0224, 0, 0, 0, 0.00488281, 0.260742, -9.7168, 1.18.2022 20:51:52.289
44, 1.71653, 0.400815, 90.0224, 0, 0, 0, -0.078125, 0.292969, -9.74121, 1.18.2022 20:51:52.297
45, 1.71653, 0.400815, 90.0224, -0.000976562, 0, -0.00195312, -0.0566406, 0.294922, -9.71484, 1.18.2022 20:51:52.305
46, 1.71629, 0.400906, 90.0224, -0.000976562, 0, -0.00195312, -0.0166016, 0.258789, -9.73047, 1.18.2022 20:51:52.313
47, 1.71629, 0.400906, 90.0224, 0, 0, 0, -0.132812, 0.285156, -9.72852, 1.18.2022 20:51:52.321
48, 1.71135, 0.39596, 90.0225, 0, 0.000976562, 0, -0.0302734, 0.291992, -9.72266, 1.18.2022 20:51:52.329
49, 1.71135, 0.39596, 90.0225, -0.000976562, 0, -0.00195312, -0.0673828, 0.267578, -9.76074, 1.18.2022 20:51:52.337
50, 1.71135, 0.39596, 90.0225, -0.000976562, 0.000976562, -0.00195312, -0.0898438, 0.286133, -9.7334, 1.18.2022 20:51:52.345
51, 1.71135, 0.39596, 90.0225, -0.00195312, -0.000976562, -0.00195312, -0.0205078, 0.292969, -9.72754, 1.18.2022 20:51:52.353
52, 1.71135, 0.39596, 90.0225, -0.000976562, -0.000976562, -0.00195312, -0.104492, 0.299805, -9.72168, 1.18.2022 20:51:52.361
53, 1.71135, 0.39596, 90.0225, 0, -0.000976562, -0.00195312, -0.0683594, 0.324219, -9.7373, 1.18.2022 20:51:52.369
54, 1.71135, 0.39596, 90.0225, -0.000976562, 0, 0.000976562, -0.0419922, 0.285156, -9.71777, 1.18.2022 20:51:52.377
55, 1.71135, 0.39596, 90.0225, -0.000976562, 0, 0, -0.119141, 0.3125, -9.7627, 1.18.2022 20:51:52.385
56, 1.71135, 0.39596, 90.0225, -0.000976562, 0, 0, -0.0185547, 0.292969, -9.7373, 1.18.2022 20:51:52.393
57, 1.71135, 0.39596, 90.0225, -0.000976562, -0.000976562, -0.000976562, -0.0625, 0.286133, -9.7627, 1.18.2022 20:51:52.401
58, 1.71135, 0.39596, 90.0225, -0.000976562, -0.000976562, -0.000976562, -0.0869141, 0.327148, -9.69238, 1.18.2022 20:51:52.409
59, 1.71629, 0.391016, 90.0225, -0.000976562, 0, 0, -0.0244141, 0.303711, -9.76758, 1.18.2022 20:51:52.417
60, 1.71629, 0.391016, 90.0225, -0.000976562, -0.000976562, 0, -0.102539, 0.286133, -9.73145, 1.18.2022 20:51:52.425
61, 1.71629, 0.391016, 90.0225, -0.000976562, -0.000976562, 0, -0.0810547, 0.27832, -9.73828, 1.18.2022 20:51:52.433
62, 1.71629, 0.391016, 90.0225, -0.000976562, -0.000976562, 0, -0.00878906, 0.253906, -9.72656, 1.18.2022 20:51:52.441
63, 1.71629, 0.391016, 90.0225, -0.000976562, -0.000976562, 0, -0.112305, 0.308594, -9.78027, 1.18.2022 20:51:52.449
64, 1.71629, 0.391016, 90.0225, -0.000976562, -0.000976562, -0.000976562, -0.0791016, 0.298828, -9.77148, 1.18.2022 20:51:52.457
65, 1.71629, 0.391016, 90.0225, 0, 0, -0.000976562, -0.0546875, 0.291016, -9.75488, 1.18.2022 20:51:52.465
66, 1.71629, 0.391016, 90.0225, -0.000976562, 0, 0, -0.123047, 0.301758, -9.7207, 1.18.2022 20:51:52.473
67, 1.71629, 0.391016, 90.0225, -0.000976562, -0.000976562, 0.000976562, -0.0332031, 0.24707, -9.73047, 1.18.2022 20:51:52.481
68, 1.71629, 0.391016, 90.0225, -0.000976562, -0.00195312, 0.000976562, -0.0625, 0.264648, -9.75391, 1.18.2022 20:51:52.489
69, 1.71629, 0.391016, 90.0225, -0.000976562, -0.000976562, 0, -0.0751953, 0.311523, -9.70703, 1.18.2022 20:51:52.497
70, 1.71629, 0.391016, 90.0225, -0.000976562, 0, -0.00195312, -0.0234375, 0.266602, -9.72363, 1.18.2022 20:51:52.505
71, 1.71629, 0.391016, 90.0225, -0.000976562, 0, -0.00195312, -0.109375, 0.310547, -9.76367, 1.18.2022 20:51:52.513
72, 1.71629, 0.391016, 90.0225, -0.000976562, 0, -0.000976562, -0.0810547, 0.300781, -9.74512, 1.18.2022 20:51:52.521
73, 1.71629, 0.391016, 90.0225, -0.000976562, -0.000976562, 0, -0.0449219, 0.256836, -9.7373, 1.18.2022 20:51:52.529
74, 1.71629, 0.391016, 90.0225, -0.000976562, -0.000976562, 0, -0.117188, 0.295898, -9.75195, 1.18.2022 20:51:52.537
75, 1.71629, 0.391016, 90.0225, 0, 0, 0, -0.0478516, 0.28125, -9.75098, 1.18.2022 20:51:52.545
76, 1.71135, 0.38607, 90.0227, 0, -0.000976562, -0.000976562, -0.0566406, 0.290039, -9.73145, 1.18.2022 20:51:52.553
77, 1.71135, 0.38607, 90.0227, 0, 0.000976562, -0.000976562, -0.0849609, 0.306641, -9.70703, 1.18.2022 20:51:52.561
78, 1.71135, 0.38607, 90.0227, 0, 0, 0, -0.0126953, 0.291992, -9.78906, 1.18.2022 20:51:52.569
79, 1.71135, 0.38607, 90.0227, -0.000976562, 0, 0, -0.105469, 0.279297, -9.77148, 1.18.2022 20:51:52.577
80, 1.71135, 0.38607, 90.0227, -0.000976562, 0, -0.000976562, -0.0712891, 0.299805, -9.73633, 1.18.2022 20:51:52.585
81, 1.71135, 0.38607, 90.0227, -0.000976562, 0, 0, -0.0400391, 0.292969, -9.75293, 1.18.2022 20:51:52.593
82, 1.71135, 0.38607, 90.0227, -0.000976562, 0, 0, -0.139648, 0.296875, -9.70215, 1.18.2022 20:51:52.601
83, 1.71135, 0.38607, 90.0227, -0.000976562, 0, 0, -0.0527344, 0.271484, -9.74609, 1.18.2022 20:51:52.609
84, 1.71135, 0.38607, 90.0227, -0.000976562, 0, -0.000976562, -0.0664062, 0.263672, -9.72949, 1.18.2022 20:51:52.617
85, 1.71135, 0.38607, 90.0227, -0.000976562, -0.000976562, 0, -0.129883, 0.308594, -9.70605, 1.18.2022 20:51:52.625
86, 1.71135, 0.38607, 90.0227, -0.000976562, -0.00195312, 0, -0.0351562, 0.271484, -9.74414, 1.18.2022 20:51:52.633
87, 1.71135, 0.38607, 90.0227, 0, -0.000976562, 0, -0.0830078, 0.271484, -9.74316, 1.18.2022 20:51:52.641
88, 1.71135, 0.38607, 90.0227, -0.000976562, 0, 0, -0.124023, 0.285156, -9.72852, 1.18.2022 20:51:52.649
89, 1.71135, 0.38607, 90.0227, -0.000976562, 0, 0, -0.0283203, 0.273438, -9.72559, 1.18.2022 20:51:52.657
90, 1.71135, 0.38607, 90.0227, -0.000976562, -0.000976562, 0, -0.117188, 0.295898, -9.75879, 1.18.2022 20:51:52.665
91, 1.71135, 0.38607, 90.0227, 0, -0.000976562, 0, -0.0761719, 0.286133, -9.74609, 1.18.2022 20:51:52.673
92, 1.70641, 0.391014, 90.0227, 0, -0.000976562, 0.000976562, -0.0566406, 0.297852, -9.73633, 1.18.2022 20:51:52.681
93, 1.70641, 0.391014, 90.0227, 0, -0.000976562, 0, -0.0800781, 0.314453, -9.72559, 1.18.2022 20:51:52.689
94, 1.70641, 0.391014, 90.0227, -0.000976562, -0.000976562, 0.000976562, -0.0214844, 0.274414, -9.77734, 1.18.2022 20:51:52.697
95, 1.70641, 0.391014, 90.0227, -0.000976562, -0.000976562, 0.000976562, -0.0625, 0.238281, -9.76172, 1.18.2022 20:51:52.705
96, 1.70641, 0.391014, 90.0227, -0.000976562, -0.000976562, 0, -0.0634766, 0.294922, -9.72949, 1.18.2022 20:51:52.713
97, 1.70641, 0.391014, 90.0227, -0.000976562, -0.000976562, 0, -0.0214844, 0.276367, -9.74707, 1.18.2022 20:51:52.721
98, 1.70641, 0.391014, 90.0227, -0.000976562, -0.000976562, -0.000976562, -0.118164, 0.299805, -9.70898, 1.18.2022 20:51:52.729
99, 1.71135, 0.39596, 90.0225, -0.000976562, -0.000976562, 0, -0.0664062, 0.290039, -9.73438, 1.18.2022 20:51:52.737
100, 1.71135, 0.39596, 90.0225, -0.000976562, -0.000976562, 0, -0.0546875, 0.277344, -9.76758, 1.18.2022 20:51:52.745
101, 1.71135, 0.39596, 90.0225, -0.00195312, -0.000976562, 0, -0.110352, 0.28418, -9.76855, 1.18.2022 20:51:52.753
102, 1.7064, 0.400904, 90.0225, -0.00195312, -0.000976562, 0, -0.0673828, 0.28418, -9.7627, 1.18.2022 20:51:52.761
103, 1.7064, 0.400904, 90.0225, -0.000976562, 0, -0.000976562, -0.0517578, 0.275391, -9.71777, 1.18.2022 20:51:52.769
104, 1.7064, 0.400904, 90.0225, 0, 0, -0.000976562, -0.0957031, 0.302734, -9.75684, 1.18.2022 20:51:52.777
105, 1.7064, 0.400904, 90.0225, -0.000976562, 0, 0, -0.00195312, 0.291016, -9.75586, 1.18.2022 20:51:52.785
106, 1.7064, 0.400904, 90.0225, 0, -0.000976562, -0.000976562, -0.0761719, 0.319336, -9.74707, 1.18.2022 20:51:52.793
107, 1.7064, 0.400904, 90.0225, 0, -0.000976562, 0.000976562, -0.0585938, 0.273438, -9.7207, 1.18.2022 20:51:52.801
108, 1.70146, 0.395958, 90.0227, -0.000976562, 0, 0, -0.0625, 0.269531, -9.75781, 1.18.2022 20:51:52.809
109, 1.70146, 0.395958, 90.0227, -0.000976562, 0, 0, -0.119141, 0.307617, -9.7373, 1.18.2022 20:51:52.817
110, 1.70146, 0.395958, 90.0227, -0.000976562, -0.000976562, 0, -0.078125, 0.30957, -9.72363, 1.18.2022 20:51:52.825
111, 1.70146, 0.395958, 90.0227, -0.000976562, -0.000976562, 0, -0.0361328, 0.264648, -9.76074, 1.18.2022 20:51:52.833
112, 1.70146, 0.395958, 90.0227, 0, 0, -0.000976562, -0.102539, 0.289062, -9.78027, 1.18.2022 20:51:52.841
113, 1.70146, 0.395958, 90.0227, 0, 0, 0, -0.0117188, 0.28125, -9.7373, 1.18.2022 20:51:52.849
114, 1.70146, 0.395958, 90.0227, -0.000976562, 0, -0.000976562, -0.104492, 0.288086, -9.74316, 1.18.2022 20:51:52.857
115, 1.70146, 0.395958, 90.0227, -0.000976562, 0, 0.000976562, -0.0849609, 0.27832, -9.71973, 1.18.2022 20:51:52.865
116, 1.70146, 0.395958, 90.0227, 0, -0.00195312, 0, -0.0195312, 0.255859, -9.78027, 1.18.2022 20:51:52.873
117, 1.69652, 0.400902, 90.0227, -0.000976562, -0.000976562, 0, -0.100586, 0.289062, -9.76367, 1.18.2022 20:51:52.881
118, 1.69652, 0.400902, 90.0227, -0.000976562, 0, 0, -0.0761719, 0.266602, -9.73633, 1.18.2022 20:51:52.889
119, 1.69652, 0.400902, 90.0227, -0.000976562, 0, -0.000976562, -0.0566406, 0.27832, -9.71777, 1.18.2022 20:51:52.897
120, 1.69652, 0.400902, 90.0227, -0.000976562, -0.00195312, -0.000976562, -0.113281, 0.295898, -9.68066, 1.18.2022 20:51:52.905
121, 1.69652, 0.400902, 90.0227, -0.000976562, -0.00195312, 0, -0.00976562, 0.28418, -9.78223, 1.18.2022 20:51:52.913
122, 1.69652, 0.400902, 90.0227, -0.000976562, -0.000976562, 0, -0.0498047, 0.28125, -9.75781, 1.18.2022 20:51:52.921
123, 1.69652, 0.400902, 90.0227, -0.000976562, -0.000976562, 0.000976562, -0.0947266, 0.297852, -9.73047, 1.18.2022 20:51:52.929
124, 1.69652, 0.400902, 90.0227, -0.000976562, -0.000976562, 0.000976562, -0.0185547, 0.277344, -9.70703, 1.18.2022 20:51:52.937
125, 1.69652, 0.400902, 90.0227, 0, -0.000976562, 0, -0.0996094, 0.316406, -9.72559, 1.18.2022 20:51:52.945
126, 1.69652, 0.400902, 90.0227, -0.000976562, 0, 0, -0.0615234, 0.297852, -9.75, 1.18.2022 20:51:52.953
127, 1.69652, 0.400902, 90.0227, 0, -0.000976562, 0, -0.0283203, 0.262695, -9.76172, 1.18.2022 20:51:52.961
128, 1.69652, 0.400902, 90.0227, -0.000976562, -0.000976562, 0, -0.148438, 0.288086, -9.79883, 1.18.2022 20:51:52.969
129, 1.69675, 0.400811, 90.0227, -0.000976562, 0, 0, -0.03125, 0.266602, -9.74902, 1.18.2022 20:51:52.977
130, 1.69675, 0.400811, 90.0227, -0.000976562, 0, 0, -0.0517578, 0.256836, -9.72754, 1.18.2022 20:51:52.985
131, 1.69675, 0.400811, 90.0227, 0, -0.000976562, 0, -0.0966797, 0.300781, -9.67188, 1.18.2022 20:51:52.993
132, 1.69652, 0.400902, 90.0227, 0, -0.000976562, -0.00195312, -0.00683594, 0.273438, -9.7207, 1.18.2022 20:51:52.999
133, 1.69652, 0.400902, 90.0227, -0.000976562, -0.000976562, 0, -0.0976562, 0.295898, -9.75684, 1.18.2022 20:51:53.007
134, 1.69652, 0.400902, 90.0227, -0.000976562, 0, 0, -0.0800781, 0.306641, -9.72168, 1.18.2022 20:51:53.015
135, 1.69157, 0.395956, 90.0229, 0, -0.000976562, 0, -0.0214844, 0.270508, -9.72559, 1.18.2022 20:51:53.023
136, 1.69157, 0.395956, 90.0229, -0.000976562, -0.000976562, 0, -0.111328, 0.304688, -9.72559, 1.18.2022 20:51:53.031
137, 1.69181, 0.395866, 90.0229, -0.000976562, -0.000976562, 0.000976562, -0.0595703, 0.306641, -9.72656, 1.18.2022 20:51:53.039
138, 1.69181, 0.395866, 90.0229, 0, 0, 0, -0.0478516, 0.266602, -9.74707, 1.18.2022 20:51:53.047
139, 1.69181, 0.395866, 90.0229, -0.000976562, 0, 0, -0.111328, 0.288086, -9.7168, 1.18.2022 20:51:53.055
140, 1.69181, 0.395866, 90.0229, 0, 0, 0, -0.0566406, 0.299805, -9.74121, 1.18.2022 20:51:53.063
141, 1.69181, 0.395866, 90.0229, 0, 0, 0, -0.0810547, 0.300781, -9.74512, 1.18.2022 20:51:53.071
142, 1.69181, 0.395866, 90.0229, 0, -0.000976562, 0, -0.0751953, 0.296875, -9.71191, 1.18.2022 20:51:53.079
143, 1.69181, 0.395866, 90.0229, -0.000976562, 0, 0.000976562, -0.00683594, 0.259766, -9.75977, 1.18.2022 20:51:53.087
144, 1.69181, 0.395866, 90.0229, -0.000976562, 0, 0.000976562, -0.148438, 0.289062, -9.76074, 1.18.2022 20:51:53.095
145, 1.69181, 0.395866, 90.0229, -0.000976562, -0.000976562, 0, -0.0527344, 0.289062, -9.75781, 1.18.2022 20:51:53.103
146, 1.69181, 0.395866, 90.0229, -0.000976562, -0.000976562, -0.000976562, -0.0537109, 0.270508, -9.70898, 1.18.2022 20:51:53.111
147, 1.69181, 0.395866, 90.0229, -0.000976562, -0.000976562, 0, -0.111328, 0.283203, -9.73535, 1.18.2022 20:51:53.119
148, 1.69181, 0.395866, 90.0229, 0, -0.000976562, 0, -0.0400391, 0.291992, -9.72266, 1.18.2022 20:51:53.127
149, 1.69181, 0.395866, 90.0229, -0.000976562, -0.000976562, 0, -0.0761719, 0.259766, -9.73438, 1.18.2022 20:51:53.135
150, 1.69181, 0.395866, 90.0229, -0.000976562, 0, 0, -0.109375, 0.288086, -9.74023, 1.18.2022 20:51:53.143
151, 1.69181, 0.395866, 90.0229, -0.000976562, 0, 0, -0.00195312, 0.257812, -9.70312, 1.18.2022 20:51:53.151
152, 1.68687, 0.39092, 90.0231, -0.000976562, 0, 0, -0.104492, 0.27832, -9.7334, 1.18.2022 20:51:53.159
153, 1.68687, 0.39092, 90.0231, -0.000976562, -0.000976562, -0.000976562, -0.0449219, 0.283203, -9.73242, 1.18.2022 20:51:53.167
154, 1.68687, 0.39092, 90.0231, -0.000976562, -0.000976562, -0.000976562, -0.0546875, 0.288086, -9.73438, 1.18.2022 20:51:53.175
155, 1.68687, 0.39092, 90.0231, -0.000976562, 0, -0.000976562, -0.111328, 0.270508, -9.70996, 1.18.2022 20:51:53.183
156, 1.68687, 0.39092, 90.0231, -0.000976562, 0, -0.000976562, -0.0332031, 0.283203, -9.74902, 1.18.2022 20:51:53.191
157, 1.68687, 0.39092, 90.0231, -0.000976562, -0.000976562, -0.00195312, -0.0615234, 0.264648, -9.7373, 1.18.2022 20:51:53.199
158, 1.68687, 0.39092, 90.0231, -0.000976562, 0, -0.000976562, -0.110352, 0.291016, -9.7666, 1.18.2022 20:51:53.207
159, 1.68687, 0.39092, 90.0231, -0.000976562, 0, 0.000976562, -0.0263672, 0.259766, -9.76562, 1.18.2022 20:51:53.215
160, 1.68687, 0.39092, 90.0231, -0.000976562, 0, -0.000976562, -0.0878906, 0.28418, -9.75488, 1.18.2022 20:51:53.223
161, 1.68687, 0.39092, 90.0231, 0, -0.000976562, -0.000976562, -0.0566406, 0.317383, -9.74707, 1.18.2022 20:51:53.231
162, 1.68687, 0.39092, 90.0231, -0.000976562, 0, -0.000976562, -0.0302734, 0.249023, -9.7002, 1.18.2022 20:51:53.239
163, 1.68687, 0.39092, 90.0231, 0, -0.000976562, -0.000976562, -0.118164, 0.287109, -9.71191, 1.18.2022 20:51:53.247
164, 1.68687, 0.39092, 90.0231, 0, 0, -0.00195312, -0.0546875, 0.283203, -9.74609, 1.18.2022 20:51:53.255
165, 1.68192, 0.395864, 90.0231, 0, 0, -0.000976562, -0.078125, 0.304688, -9.73828, 1.18.2022 20:51:53.263
166, 1.68192, 0.395864, 90.0231, -0.000976562, 0, -0.00195312, -0.12207, 0.313477, -9.76758, 1.18.2022 20:51:53.271
167, 1.68169, 0.395953, 90.0231, -0.000976562, 0, -0.00195312, -0.00683594, 0.27832, -9.73535, 1.18.2022 20:51:53.279
168, 1.68169, 0.395953, 90.0231, -0.00195312, 0, 0.000976562, -0.114258, 0.3125, -9.75098, 1.18.2022 20:51:53.287
169, 1.68169, 0.395953, 90.0231, 0, 0, -0.000976562, -0.0693359, 0.283203, -9.74609, 1.18.2022 20:51:53.295
170, 1.68169, 0.395953, 90.0231, 0, 0, -0.00195312, -0.0234375, 0.24707, -9.72168, 1.18.2022 20:51:53.303
171, 1.68169, 0.395953, 90.0231, -0.000976562, -0.000976562, -0.000976562, -0.140625, 0.264648, -9.74805, 1.18.2022 20:51:53.311
172, 1.68169, 0.395953, 90.0231, -0.000976562, -0.00195312, -0.00195312, -0.0625, 0.286133, -9.75488, 1.18.2022 20:51:53.319
173, 1.68169, 0.395953, 90.0231, -0.000976562, -0.000976562, -0.00195312, -0.0166016, 0.263672, -9.72852, 1.18.2022 20:51:53.327
174, 1.68169, 0.395953, 90.0231, -0.000976562, -0.000976562, -0.000976562, -0.114258, 0.293945, -9.75391, 1.18.2022 20:51:53.335
175, 1.68169, 0.395953, 90.0231, -0.000976562, 0, 0.000976562, -0.00683594, 0.268555, -9.72852, 1.18.2022 20:51:53.343
176, 1.68169, 0.395953, 90.0231, -0.000976562, -0.000976562, -0.000976562, -0.0576172, 0.249023, -9.78223, 1.18.2022 20:51:53.351
177, 1.68169, 0.395953, 90.0231, 0, -0.000976562, -0.00195312, -0.0976562, 0.283203, -9.73828, 1.18.2022 20:51:53.359
178, 1.68169, 0.395953, 90.0231, -0.000976562, -0.000976562, -0.000976562, -0.0214844, 0.28418, -9.75879, 1.18.2022 20:51:53.367
179, 1.68169, 0.395953, 90.0231, 0, 0, -0.000976562, -0.0927734, 0.295898, -9.75, 1.18.2022 20:51:53.375
180, 1.67674, 0.391007, 90.0233, 0, -0.000976562, -0.000976562, -0.0859375, 0.304688, -9.73828, 1.18.2022 20:51:53.383
181, 1.67674, 0.391007, 90.0233, -0.000976562, -0.000976562, -0.000976562, -0.0478516, 0.264648, -9.74414, 1.18.2022 20:51:53.391
182, 1.67674, 0.391007, 90.0233, 0, -0.000976562, -0.000976562, -0.119141, 0.30957, -9.73047, 1.18.2022 20:51:53.399
183, 1.67674, 0.391007, 90.0233, -0.000976562, 0, 0.000976562, -0.0126953, 0.260742, -9.77539, 1.18.2022 20:51:53.407
184, 1.67674, 0.391007, 90.0233, -0.000976562, 0, -0.000976562, -0.0595703, 0.28125, -9.74805, 1.18.2022 20:51:53.415
185, 1.67674, 0.391007, 90.0233, -0.000976562, 0, 0, -0.0927734, 0.27832, -9.72656, 1.18.2022 20:51:53.423
186, 1.67674, 0.391007, 90.0233, 0, 0, 0, -0.0322266, 0.303711, -9.70801, 1.18.2022 20:51:53.431
187, 1.67674, 0.391007, 90.0233, -0.000976562, -0.000976562, 0, -0.134766, 0.323242, -9.71582, 1.18.2022 20:51:53.439
188, 1.67674, 0.391007, 90.0233, 0, -0.000976562, 0, -0.0566406, 0.28125, -9.73926, 1.18.2022 20:51:53.447
189, 1.6718, 0.395951, 90.0233, 0, -0.000976562, 0, -0.0332031, 0.264648, -9.74902, 1.18.2022 20:51:53.455
190, 1.6718, 0.395951, 90.0233, 0, 0, -0.000976562, -0.119141, 0.297852, -9.74707, 1.18.2022 20:51:53.463
191, 1.6718, 0.395951, 90.0233, 0, 0, -0.000976562, -0.0566406, 0.295898, -9.74609, 1.18.2022 20:51:53.471
192, 1.6718, 0.395951, 90.0233, 0, -0.000976562, 0, -0.0771484, 0.289062, -9.68848, 1.18.2022 20:51:53.479
193, 1.6718, 0.395951, 90.0233, 0, -0.000976562, 0.000976562, -0.105469, 0.291992, -9.77539, 1.18.2022 20:51:53.487
194, 1.6718, 0.395951, 90.0233, 0, 0, 0, -0.0136719, 0.244141, -9.7168, 1.18.2022 20:51:53.495
195, 1.6718, 0.395951, 90.0233, -0.000976562, 0, 0, -0.107422, 0.28125, -9.74316, 1.18.2022 20:51:53.503
196, 1.6718, 0.395951, 90.0233, 0, 0, 0, -0.0751953, 0.280273, -9.70605, 1.18.2022 20:51:53.511
197, 1.6718, 0.395951, 90.0233, -0.000976562, -0.000976562, -0.000976562, -0.0302734, 0.285156, -9.72559, 1.18.2022 20:51:53.519
198, 1.6718, 0.395951, 90.0233, -0.000976562, -0.000976562, -0.000976562, -0.0878906, 0.305664, -9.75, 1.18.2022 20:51:53.527
199, 1.6718, 0.395951, 90.0233, -0.000976562, -0.000976562, 0, -0.0400391, 0.280273, -9.71777, 1.18.2022 20:51:53.535
200, 1.6718, 0.395951, 90.0233, -0.000976562, 0, 0, -0.0527344, 0.262695, -9.76562, 1.18.2022 20:51:53.543
201, 1.6718, 0.395951, 90.0233, -0.000976562, 0, -0.000976562, -0.134766, 0.308594, -9.70117, 1.18.2022 20:51:53.551
202, 1.6718, 0.395951, 90.0233, 0, -0.000976562, 0, 0.00878906, 0.286133, -9.67188, 1.18.2022 20:51:53.559
203, 1.6718, 0.395951, 90.0233, 0, -0.000976562, 0.000976562, -0.0908203, 0.262695, -9.77441, 1.18.2022 20:51:53.567
204, 1.6718, 0.395951, 90.0233, -0.000976562, 0.000976562, 0, -0.0771484, 0.307617, -9.67871, 1.18.2022 20:51:53.575
205, 1.6718, 0.395951, 90.0233, -0.000976562, 0, 0, -0.0576172, 0.28418, -9.75293, 1.18.2022 20:51:53.583
206, 1.6718, 0.395951, 90.0233, 0, 0, 0, -0.114258, 0.320312, -9.77246, 1.18.2022 20:51:53.591
207, 1.6718, 0.395951, 90.0233, 0, 0, 0.000976562, -0.0595703, 0.325195, -9.76367, 1.18.2022 20:51:53.599
208, 1.6718, 0.395951, 90.0233, 0, -0.000976562, 0, -0.0117188, 0.253906, -9.72852, 1.18.2022 20:51:53.607
209, 1.6718, 0.395951, 90.0233, -0.000976562, -0.000976562, 0, -0.106445, 0.299805, -9.7168, 1.18.2022 20:51:53.615
210, 1.6718, 0.395951, 90.0233, -0.000976562, 0, 0, -0.0449219, 0.288086, -9.71973, 1.18.2022 20:51:53.623
211, 1.6718, 0.395951, 90.0233, 0, -0.000976562, 0, -0.0693359, 0.272461, -9.76758, 1.18.2022 20:51:53.631
212, 1.6718, 0.395951, 90.0233, -0.000976562, -0.000976562, 0, -0.111328, 0.301758, -9.7207, 1.18.2022 20:51:53.639
213, 1.6718, 0.395951, 90.0233, 0, -0.000976562, 0, -0.0205078, 0.27832, -9.71875, 1.18.2022 20:51:53.647
214, 1.6718, 0.395951, 90.0233, -0.000976562, -0.000976562, 0, -0.0966797, 0.318359, -9.69043, 1.18.2022 20:51:53.655
215, 1.6718, 0.395951, 90.0233, -0.000976562, 0, -0.000976562, -0.102539, 0.266602, -9.74316, 1.18.2022 20:51:53.663
216, 1.6718, 0.395951, 90.0233, -0.000976562, 0, 0, -0.0332031, 0.276367, -9.74219, 1.18.2022 20:51:53.671
217, 1.6718, 0.395951, 90.0233, 0, -0.000976562, 0, -0.109375, 0.305664, -9.75879, 1.18.2022 20:51:53.679
218, 1.6718, 0.395951, 90.0233, -0.000976562, 0, -0.000976562, -0.0527344, 0.292969, -9.75488, 1.18.2022 20:51:53.687
219, 1.6718, 0.395951, 90.0233, -0.000976562, 0, -0.000976562, -0.0742188, 0.307617, -9.76172, 1.18.2022 20:51:53.695
220, 1.6718, 0.395951, 90.0233, 0, 0, 0, -0.150391, 0.298828, -9.77734, 1.18.2022 20:51:53.703
221, 1.6718, 0.395951, 90.0233, -0.000976562, -0.000976562, 0.000976562, -0.0429688, 0.3125, -9.73828, 1.18.2022 20:51:53.711
222, 1.6718, 0.395951, 90.0233, 0, -0.000976562, 0, -0.0712891, 0.280273, -9.71289, 1.18.2022 20:51:53.719
223, 1.6718, 0.395951, 90.0233, -0.000976562, -0.000976562, 0, -0.0732422, 0.283203, -9.72949, 1.18.2022 20:51:53.727
224, 1.67674, 0.400897, 90.0231, -0.000976562, -0.000976562, 0, -0.0146484, 0.269531, -9.75195, 1.18.2022 20:51:53.735
225, 1.67674, 0.400897, 90.0231, -0.000976562, -0.000976562, 0, -0.114258, 0.30957, -9.72363, 1.18.2022 20:51:53.743
226, 1.67674, 0.400897, 90.0231, 0, 0, 0, -0.0517578, 0.313477, -9.70312, 1.18.2022 20:51:53.751
227, 1.67674, 0.400897, 90.0231, 0, 0, 0, -0.0566406, 0.299805, -9.71973, 1.18.2022 20:51:53.759
228, 1.67674, 0.400897, 90.0231, 0, 0, 0, -0.119141, 0.313477, -9.77051, 1.18.2022 20:51:53.767
229, 1.68169, 0.395953, 90.0231, -0.000976562, -0.000976562, 0, -0.0263672, 0.28125, -9.76074, 1.18.2022 20:51:53.775
230, 1.68169, 0.395953, 90.0231, -0.000976562, 0, 0.000976562, -0.0742188, 0.262695, -9.76562, 1.18.2022 20:51:53.783
231, 1.68169, 0.395953, 90.0231, -0.000976562, 0, -0.000976562, -0.104492, 0.286133, -9.73145, 1.18.2022 20:51:53.791
232, 1.68169, 0.395953, 90.0231, -0.000976562, -0.00195312, -0.00195312, -0.00488281, 0.258789, -9.73145, 1.18.2022 20:51:53.799
233, 1.68663, 0.4009, 90.0229, -0.000976562, -0.000976562, 0, -0.104492, 0.304688, -9.74023, 1.18.2022 20:51:53.807
234, 1.68663, 0.4009, 90.0229, -0.000976562, -0.000976562, 0, -0.0683594, 0.313477, -9.70996, 1.18.2022 20:51:53.815
235, 1.68663, 0.4009, 90.0229, 0, 0, 0, -0.0625, 0.276367, -9.75586, 1.18.2022 20:51:53.823
236, 1.68663, 0.4009, 90.0229, 0, 0, 0, -0.102539, 0.288086, -9.74316, 1.18.2022 20:51:53.831
237, 1.68663, 0.4009, 90.0229, -0.000976562, -0.000976562, 0, -0.0449219, 0.307617, -9.7334, 1.18.2022 20:51:53.839
238, 1.68663, 0.4009, 90.0229, -0.000976562, 0, -0.000976562, -0.0673828, 0.28125, -9.7627, 1.18.2022 20:51:53.847
239, 1.68663, 0.4009, 90.0229, 0, -0.000976562, -0.00195312, -0.109375, 0.28125, -9.7334, 1.18.2022 20:51:53.855
240, 1.68663, 0.4009, 90.0229, -0.000976562, -0.000976562, 0, -0.00390625, 0.270508, -9.71191, 1.18.2022 20:51:53.863
241, 1.68663, 0.4009, 90.0229, -0.000976562, -0.000976562, 0, -0.0947266, 0.317383, -9.74219, 1.18.2022 20:51:53.871
242, 1.68663, 0.4009, 90.0229, -0.000976562, 0, 0.000976562, -0.0498047, 0.304688, -9.72168, 1.18.2022 20:51:53.879
243, 1.69157, 0.405846, 90.0227, -0.000976562, -0.000976562, 0, -0.0449219, 0.299805, -9.72266, 1.18.2022 20:51:53.887
244, 1.69157, 0.405846, 90.0227, -0.000976562, 0, -0.000976562, -0.109375, 0.316406, -9.72266, 1.18.2022 20:51:53.895
245, 1.69157, 0.405846, 90.0227, -0.000976562, -0.000976562, -0.00195312, -0.0136719, 0.285156, -9.70898, 1.18.2022 20:51:53.903
246, 1.69652, 0.400902, 90.0227, 0, -0.000976562, 0, -0.0449219, 0.263672, -9.72559, 1.18.2022 20:51:53.911
247, 1.69652, 0.400902, 90.0227, -0.000976562, 0, 0.000976562, -0.0996094, 0.307617, -9.73047, 1.18.2022 20:51:53.919
248, 1.69652, 0.400902, 90.0227, -0.00195312, 0, 0, -0.00195312, 0.275391, -9.72559, 1.18.2022 20:51:53.927
249, 1.69652, 0.400902, 90.0227, -0.000976562, -0.000976562, 0, -0.0810547, 0.25293, -9.76074, 1.18.2022 20:51:53.935
250, 1.69652, 0.400902, 90.0227, -0.00195312, -0.000976562, 0, -0.0693359, 0.297852, -9.75293, 1.18.2022 20:51:53.943
251, 1.69652, 0.400902, 90.0227, 0, -0.000976562, -0.000976562, -0.0351562, 0.292969, -9.73633, 1.18.2022 20:51:53.951
252, 1.69652, 0.400902, 90.0227, 0, -0.000976562, 0.000976562, -0.152344, 0.324219, -9.72266, 1.18.2022 20:51:53.959
253, 1.69652, 0.400902, 90.0227, -0.000976562, 0, 0.000976562, -0.0517578, 0.311523, -9.73145, 1.18.2022 20:51:53.967
254, 1.69652, 0.400902, 90.0227, -0.000976562, 0, 0, -0.0390625, 0.249023, -9.78711, 1.18.2022 20:51:53.975
255, 1.69652, 0.400902, 90.0227, -0.000976562, -0.000976562, 0, -0.0878906, 0.285156, -9.71484, 1.18.2022 20:51:53.981
256, 1.69652, 0.400902, 90.0227, -0.000976562, -0.000976562, 0, -0.0429688, 0.267578, -9.75879, 1.18.2022 20:51:53.989
257, 1.69652, 0.400902, 90.0227, -0.000976562, -0.000976562, 0, -0.0664062, 0.28125, -9.75098, 1.18.2022 20:51:53.997
258, 1.70146, 0.395958, 90.0227, -0.000976562, -0.000976562, 0, -0.118164, 0.318359, -9.71387, 1.18.2022 20:51:54.005
259, 1.70146, 0.395958, 90.0227, -0.000976562, -0.000976562, 0, -0.0527344, 0.254883, -9.74023, 1.18.2022 20:51:54.013
260, 1.70146, 0.395958, 90.0227, 0, -0.000976562, 0, -0.106445, 0.289062, -9.68359, 1.18.2022 20:51:54.021
261, 1.7064, 0.400904, 90.0225, -0.000976562, -0.000976562, 0.000976562, -0.0683594, 0.282227, -9.69434, 1.18.2022 20:51:54.029
262, 1.7064, 0.400904, 90.0225, 0, -0.000976562, -0.000976562, -0.0478516, 0.264648, -9.75879, 1.18.2022 20:51:54.037
263, 1.70146, 0.395958, 90.0227, 0, 0, -0.000976562, -0.116211, 0.300781, -9.74023, 1.18.2022 20:51:54.045
264, 1.70146, 0.395958, 90.0227, 0, 0, 0, -0.0449219, 0.297852, -9.74121, 1.18.2022 20:51:54.053
265, 1.70146, 0.395958, 90.0227, 0, -0.000976562, -0.000976562, -0.0498047, 0.272461, -9.75879, 1.18.2022 20:51:54.061
266, 1.70146, 0.395958, 90.0227, -0.000976562, 0, -0.000976562, -0.0878906, 0.306641, -9.72559, 1.18.2022 20:51:54.069
267, 1.70146, 0.395958, 90.0227, -0.000976562, -0.000976562, 0, -0.0195312, 0.277344, -9.76367, 1.18.2022 20:51:54.077
268, 1.70146, 0.395958, 90.0227, -0.000976562, -0.000976562, 0, -0.0810547, 0.294922, -9.73828, 1.18.2022 20:51:54.085
269, 1.70146, 0.395958, 90.0227, -0.00195312, -0.000976562, 0, -0.0566406, 0.314453, -9.72168, 1.18.2022 20:51:54.093
270, 1.70146, 0.395958, 90.0227, -0.000976562, -0.000976562, 0, -0.0332031, 0.28418, -9.76074, 1.18.2022 20:51:54.101
271, 1.70146, 0.395958, 90.0227, 0, 0, 0, -0.125977, 0.305664, -9.74902, 1.18.2022 20:51:54.109
272, 1.70146, 0.395958, 90.0227, -0.000976562, 0, 0, -0.0761719, 0.28418, -9.75781, 1.18.2022 20:51:54.117
273, 1.70146, 0.395958, 90.0227, -0.000976562, -0.000976562, 0, -0.0976562, 0.273438, -9.72461, 1.18.2022 20:51:54.125
274, 1.70146, 0.395958, 90.0227, -0.000976562, 0, -0.000976562, -0.137695, 0.296875, -9.70215, 1.18.2022 20:51:54.133
275, 1.70146, 0.395958, 90.0227, 0, 0, 0, -0.0361328, 0.279297, -9.74902, 1.18.2022 20:51:54.141
276, 1.70146, 0.395958, 90.0227, -0.000976562, -0.000976562, 0, -0.0878906, 0.292969, -9.73145, 1.18.2022 20:51:54.149
277, 1.70146, 0.395958, 90.0227, -0.000976562, -0.000976562, 0, -0.0615234, 0.290039, -9.72949, 1.18.2022 20:51:54.157
278, 1.70146, 0.395958, 90.0227, 0, -0.00195312, -0.00195312, -0.0146484, 0.274414, -9.75684, 1.18.2022 20:51:54.165
279, 1.7064, 0.400904, 90.0225, -0.000976562, -0.000976562, -0.000976562, -0.106445, 0.291992, -9.71191, 1.18.2022 20:51:54.173
280, 1.7064, 0.400904, 90.0225, -0.000976562, -0.000976562, -0.000976562, -0.0488281, 0.28418, -9.68457, 1.18.2022 20:51:54.181
281, 1.7064, 0.400904, 90.0225, 0, 0, -0.000976562, -0.0371094, 0.285156, -9.71289, 1.18.2022 20:51:54.189
282, 1.7064, 0.400904, 90.0225, -0.000976562, 0, 0, -0.106445, 0.316406, -9.70703, 1.18.2022 20:51:54.197
283, 1.7064, 0.400904, 90.0225, -0.000976562, -0.000976562, -0.000976562, -0.00878906, 0.293945, -9.69922, 1.18.2022 20:51:54.205
284, 1.7064, 0.400904, 90.0225, -0.00195312, 0, 0, -0.0615234, 0.297852, -9.74805, 1.18.2022 20:51:54.213
285, 1.7064, 0.400904, 90.0225, 0, -0.000976562, 0, -0.0830078, 0.30957, -9.71875, 1.18.2022 20:51:54.221
286, 1.7064, 0.400904, 90.0225, 0, 0, -0.000976562, -0.0117188, 0.271484, -9.74219, 1.18.2022 20:51:54.229
287, 1.7064, 0.400904, 90.0225, 0, -0.000976562, 0, -0.0878906, 0.292969, -9.73633, 1.18.2022 20:51:54.237
288, 1.70146, 0.395958, 90.0227, 0, -0.000976562, 0, -0.0791016, 0.295898, -9.76465, 1.18.2022 20:51:54.245
289, 1.70146, 0.395958, 90.0227, 0, 0, 0.000976562, -0.0380859, 0.273438, -9.73047, 1.18.2022 20:51:54.253
290, 1.70146, 0.395958, 90.0227, 0, -0.000976562, 0, -0.105469, 0.313477, -9.76562, 1.18.2022 20:51:54.261
291, 1.70146, 0.395958, 90.0227, -0.000976562, 0, 0, -0.0449219, 0.266602, -9.72559, 1.18.2022 20:51:54.269
292, 1.70146, 0.395958, 90.0227, -0.000976562, 0, 0, -0.0908203, 0.25293, -9.75391, 1.18.2022 20:51:54.277
293, 1.70146, 0.395958, 90.0227, 0, 0, 0, -0.0966797, 0.291992, -9.70996, 1.18.2022 20:51:54.285
294, 1.70146, 0.395958, 90.0227, 0, 0, 0, -0.0234375, 0.291992, -9.71582, 1.18.2022 20:51:54.293
295, 1.70146, 0.395958, 90.0227, -0.000976562, -0.000976562, 0, -0.121094, 0.294922, -9.73242, 1.18.2022 20:51:54.301
296, 1.70146, 0.395958, 90.0227, -0.00195312, 0, 0, -0.0859375, 0.305664, -9.75488, 1.18.2022 20:51:54.309
297, 1.70146, 0.395958, 90.0227, -0.000976562, -0.000976562, 0, -0.00878906, 0.301758, -9.70898, 1.18.2022 20:51:54.317
298, 1.70146, 0.395958, 90.0227, -0.000976562, -0.000976562, -0.000976562, -0.128906, 0.322266, -9.75781, 1.18.2022 20:51:54.325
299, 1.70146, 0.395958, 90.0227, -0.000976562, 0, 0, -0.0595703, 0.297852, -9.73145, 1.18.2022 20:51:54.333
300, 1.70146, 0.395958, 90.0227, -0.000976562, -0.000976562, 0, -0.0449219, 0.291016, -9.74121, 1.18.2022 20:51:54.341
301, 1.70146, 0.395958, 90.0227, -0.000976562, 0, 0.000976562, -0.102539, 0.291992, -9.77344, 1.18.2022 20:51:54.349
302, 1.70146, 0.395958, 90.0227, -0.000976562, 0, 0, -0.00488281, 0.262695, -9.76172, 1.18.2022 20:51:54.357
303, 1.70146, 0.395958, 90.0227, 0, -0.000976562, 0, -0.0498047, 0.262695, -9.75391, 1.18.2022 20:51:54.365
304, 1.70146, 0.395958, 90.0227, -0.000976562, -0.000976562, 0, -0.0898438, 0.316406, -9.71875, 1.18.2022 20:51:54.373
305, 1.70146, 0.395958, 90.0227, -0.000976562, -0.000976562, -0.000976562, -0.0136719, 0.266602, -9.73047, 1.18.2022 20:51:54.381
306, 1.70146, 0.395958, 90.0227, -0.000976562, -0.000976562, -0.000976562, -0.104492, 0.301758, -9.70703, 1.18.2022 20:51:54.389
307, 1.70641, 0.391014, 90.0227, -0.000976562, 0, -0.000976562, -0.0664062, 0.279297, -9.74805, 1.18.2022 20:51:54.397
308, 1.70641, 0.391014, 90.0227, -0.000976562, 0, 0, -0.0595703, 0.27832, -9.73926, 1.18.2022 20:51:54.405
309, 1.70641, 0.391014, 90.0227, -0.000976562, -0.000976562, 0.000976562, -0.121094, 0.311523, -9.71094, 1.18.2022 20:51:54.413
310, 1.70641, 0.391014, 90.0227, -0.00195312, -0.000976562, 0, -0.03125, 0.298828, -9.76758, 1.18.2022 20:51:54.421
311, 1.70641, 0.391014, 90.0227, -0.000976562, -0.000976562, 0, -0.0712891, 0.276367, -9.72754, 1.18.2022 20:51:54.429
312, 1.70641, 0.391014, 90.0227, 0, 0, 0.000976562, -0.0800781, 0.296875, -9.69336, 1.18.2022 20:51:54.437
313, 1.70641, 0.391014, 90.0227, 0, -0.00195312, 0.000976562, -0.0234375, 0.270508, -9.70703, 1.18.2022 20:51:54.445
314, 1.70641, 0.391014, 90.0227, 0, 0, 0.000976562, -0.0849609, 0.277344, -9.69824, 1.18.2022 20:51:54.453
315, 1.70664, 0.390923, 90.0227, -0.000976562, -0.000976562, 0.000976562, -0.0878906, 0.291016, -9.74316, 1.18.2022 20:51:54.461
316, 1.70664, 0.390923, 90.0227, 0, -0.000976562, 0, -0.0351562, 0.272461, -9.69434, 1.18.2022 20:51:54.469
317, 1.70664, 0.390923, 90.0227, 0, -0.000976562, 0, -0.114258, 0.31543, -9.76074, 1.18.2022 20:51:54.477
318, 1.70664, 0.390923, 90.0227, -0.000976562, -0.000976562, -0.00195312, -0.0136719, 0.304688, -9.72461, 1.18.2022 20:51:54.485
319, 1.70641, 0.391014, 90.0227, -0.000976562, 0, -0.00195312, -0.0566406, 0.276367, -9.74121, 1.18.2022 20:51:54.493
320, 1.70641, 0.391014, 90.0227, 0, 0, 0, -0.121094, 0.306641, -9.70703, 1.18.2022 20:51:54.501
321, 1.70641, 0.391014, 90.0227, -0.000976562, -0.000976562, 0, -0.00878906, 0.266602, -9.72852, 1.18.2022 20:51:54.509
322, 1.70641, 0.391014, 90.0227, -0.000976562, 0, -0.00195312, -0.0966797, 0.280273, -9.70801, 1.18.2022 20:51:54.517
323, 1.70641, 0.391014, 90.0227, 0, -0.000976562, 0, -0.0878906, 0.283203, -9.7334, 1.18.2022 20:51:54.525
324, 1.70641, 0.391014, 90.0227, 0, -0.00195312, -0.000976562, -0.0400391, 0.28125, -9.74609, 1.18.2022 20:51:54.533
325, 1.70641, 0.391014, 90.0227, -0.000976562, -0.000976562, 0.000976562, -0.114258, 0.277344, -9.75977, 1.18.2022 20:51:54.541
326, 1.70641, 0.391014, 90.0227, -0.000976562, -0.000976562, 0, -0.0351562, 0.302734, -9.74121, 1.18.2022 20:51:54.549
327, 1.70641, 0.391014, 90.0227, -0.000976562, -0.000976562, 0, -0.0576172, 0.246094, -9.78223, 1.18.2022 20:51:54.557
328, 1.70641, 0.391014, 90.0227, -0.000976562, -0.000976562, 0, -0.0898438, 0.283203, -9.7334, 1.18.2022 20:51:54.565
329, 1.70641, 0.391014, 90.0227, 0, -0.000976562, 0, -0.0166016, 0.274414, -9.74707, 1.18.2022 20:51:54.573
330, 1.70641, 0.391014, 90.0227, 0, -0.000976562, 0, -0.0644531, 0.297852, -9.74316, 1.18.2022 20:51:54.581
331, 1.70641, 0.391014, 90.0227, -0.000976562, -0.000976562, 0, -0.0800781, 0.294922, -9.70996, 1.18.2022 20:51:54.589
332, 1.70641, 0.391014, 90.0227, 0, -0.000976562, 0, -0.03125, 0.279297, -9.76758, 1.18.2022 20:51:54.597
333, 1.70146, 0.395958, 90.0227, -0.000976562, -0.000976562, 0, -0.111328, 0.288086, -9.71875, 1.18.2022 20:51:54.605
334, 1.7017, 0.395867, 90.0227, 0, -0.000976562, 0.000976562, -0.0878906, 0.28125, -9.74316, 1.18.2022 20:51:54.613
335, 1.7017, 0.395867, 90.0227, -0.000976562, -0.000976562, 0.000976562, -0.0214844, 0.276367, -9.75195, 1.18.2022 20:51:54.621
336, 1.7017, 0.395867, 90.0227, -0.000976562, 0, 0, -0.102539, 0.302734, -9.73535, 1.18.2022 20:51:54.629
337, 1.7017, 0.395867, 90.0227, 0, -0.000976562, 0, -0.0302734, 0.27832, -9.73047, 1.18.2022 20:51:54.637
338, 1.7017, 0.395867, 90.0227, -0.000976562, 0, 0, -0.0888672, 0.282227, -9.77637, 1.18.2022 20:51:54.645
339, 1.69676, 0.390922, 90.0229, -0.000976562, 0, 0, -0.0976562, 0.321289, -9.73535, 1.18.2022 20:51:54.653
340, 1.69676, 0.390922, 90.0229, 0, -0.000976562, 0, -0.0234375, 0.265625, -9.71875, 1.18.2022 20:51:54.661
341, 1.69676, 0.390922, 90.0229, 0, -0.000976562, 0, -0.0878906, 0.276367, -9.73145, 1.18.2022 20:51:54.669
342, 1.69676, 0.390922, 90.0229, 0, -0.000976562, 0, -0.0546875, 0.303711, -9.7666, 1.18.2022 20:51:54.677
343, 1.69676, 0.390922, 90.0229, -0.000976562, -0.000976562, 0, -0.0332031, 0.269531, -9.76367, 1.18.2022 20:51:54.685
344, 1.69676, 0.390922, 90.0229, 0, -0.000976562, -0.00195312, -0.0966797, 0.311523, -9.7207, 1.18.2022 20:51:54.693
345, 1.69676, 0.390922, 90.0229, -0.000976562, -0.000976562, -0.000976562, -0.0117188, 0.27832, -9.71875, 1.18.2022 20:51:54.701
346, 1.69676, 0.390922, 90.0229, -0.000976562, -0.000976562, -0.000976562, -0.046875, 0.283203, -9.72266, 1.18.2022 20:51:54.709
347, 1.69676, 0.390922, 90.0229, -0.000976562, 0, 0, -0.102539, 0.302734, -9.75391, 1.18.2022 20:51:54.717
348, 1.69676, 0.390922, 90.0229, 0, -0.000976562, -0.000976562, -0.0332031, 0.279297, -9.76562, 1.18.2022 20:51:54.725
349, 1.69676, 0.390922, 90.0229, 0, -0.000976562, -0.00195312, -0.102539, 0.277344, -9.76465, 1.18.2022 20:51:54.733
350, 1.69676, 0.390922, 90.0229, 0, 0, 0.000976562, -0.0859375, 0.302734, -9.74316, 1.18.2022 20:51:54.741
351, 1.69676, 0.390922, 90.0229, -0.000976562, 0, 0, -0.0449219, 0.276367, -9.75586, 1.18.2022 20:51:54.749
352, 1.69676, 0.390922, 90.0229, -0.000976562, 0, 0, -0.115234, 0.328125, -9.77734, 1.18.2022 20:51:54.757
353, 1.69676, 0.390922, 90.0229, -0.000976562, 0, 0, -0.0351562, 0.304688, -9.73633, 1.18.2022 20:51:54.765
354, 1.69676, 0.390922, 90.0229, -0.000976562, 0, 0, -0.0615234, 0.259766, -9.73242, 1.18.2022 20:51:54.773
355, 1.69181, 0.385976, 90.0231, 0, -0.000976562, -0.000976562, -0.123047, 0.314453, -9.72559, 1.18.2022 20:51:54.781
356, 1.69181, 0.385976, 90.0231, -0.000976562, 0, 0, -0.0351562, 0.283203, -9.72949, 1.18.2022 20:51:54.789
357, 1.69181, 0.385976, 90.0231, -0.000976562, -0.000976562, -0.000976562, -0.0917969, 0.27832, -9.70996, 1.18.2022 20:51:54.797
358, 1.69181, 0.385976, 90.0231, -0.000976562, -0.000976562, -0.000976562, -0.0810547, 0.324219, -9.7373, 1.18.2022 20:51:54.805
359, 1.69676, 0.381032, 90.0231, -0.000976562, -0.000976562, -0.000976562, 0.00683594, 0.28418, -9.75684, 1.18.2022 20:51:54.813
360, 1.69652, 0.381122, 90.0231, -0.000976562, -0.000976562, -0.00195312, -0.104492, 0.290039, -9.7334, 1.18.2022 20:51:54.821
361, 1.69652, 0.381122, 90.0231, 0, -0.000976562, -0.000976562, -0.0761719, 0.291016, -9.75293, 1.18.2022 20:51:54.829
362, 1.69652, 0.381122, 90.0231, -0.000976562, 0, 0, -0.0751953, 0.291992, -9.71484, 1.18.2022 20:51:54.837
363, 1.69652, 0.381122, 90.0231, 0, -0.00195312, -0.000976562, -0.119141, 0.297852, -9.74707, 1.18.2022 20:51:54.845
364, 1.70146, 0.386068, 90.0229, -0.000976562, -0.000976562, -0.000976562, -0.0380859, 0.288086, -9.73242, 1.18.2022 20:51:54.853
365, 1.70146, 0.386068, 90.0229, 0, -0.00195312, -0.000976562, -0.078125, 0.288086, -9.74805, 1.18.2022 20:51:54.861
366, 1.69652, 0.391012, 90.0229, 0, -0.000976562, 0.000976562, -0.123047, 0.321289, -9.71777, 1.18.2022 20:51:54.869
367, 1.69676, 0.390922, 90.0229, -0.000976562, -0.000976562, -0.000976562, -0.0332031, 0.261719, -9.72852, 1.18.2022 20:51:54.877
368, 1.7017, 0.385978, 90.0229, -0.000976562, 0, 0, -0.104492, 0.287109, -9.70703, 1.18.2022 20:51:54.885
369, 1.7017, 0.385978, 90.0229, 0, 0, -0.000976562, -0.0859375, 0.276367, -9.74609, 1.18.2022 20:51:54.893
370, 1.7017, 0.385978, 90.0229, -0.000976562, -0.000976562, -0.000976562, -0.0517578, 0.265625, -9.71875, 1.18.2022 20:51:54.901
371, 1.7017, 0.385978, 90.0229, 0, -0.000976562, -0.000976562, -0.138672, 0.317383, -9.75586, 1.18.2022 20:51:54.909
372, 1.7017, 0.385978, 90.0229, -0.000976562, 0, 0, -0.0449219, 0.307617, -9.74121, 1.18.2022 20:51:54.917
373, 1.7017, 0.385978, 90.0229, -0.000976562, 0, 0, -0.0732422, 0.273438, -9.72461, 1.18.2022 20:51:54.925
374, 1.7017, 0.385978, 90.0229, 0, 0, -0.000976562, -0.109375, 0.256836, -9.74121, 1.18.2022 20:51:54.933
375, 1.70146, 0.386068, 90.0229, 0, -0.000976562, -0.00195312, -0.0166016, 0.273438, -9.7373, 1.18.2022 20:51:54.941
376, 1.69652, 0.391012, 90.0229, -0.000976562, -0.000976562, -0.000976562, -0.09375, 0.303711, -9.78516, 1.18.2022 20:51:54.947
377, 1.69652, 0.391012, 90.0229, -0.000976562, -0.000976562, 0, -0.0830078, 0.3125, -9.75, 1.18.2022 20:51:54.957
378, 1.69652, 0.391012, 90.0229, 0, 0, 0.000976562, -0.0078125, 0.243164, -9.75977, 1.18.2022 20:51:54.963
379, 1.69652, 0.391012, 90.0229, 0, 0, 0, -0.0908203, 0.27832, -9.74121, 1.18.2022 20:51:54.971
380, 1.69652, 0.391012, 90.0229, -0.000976562, 0, 0, -0.046875, 0.280273, -9.72461, 1.18.2022 20:51:54.979
381, 1.69652, 0.391012, 90.0229, 0, 0, -0.00195312, -0.0410156, 0.28418, -9.7793, 1.18.2022 20:51:54.987
382, 1.69652, 0.391012, 90.0229, -0.000976562, 0, 0, -0.102539, 0.322266, -9.74219, 1.18.2022 20:51:54.995
383, 1.69652, 0.391012, 90.0229, -0.000976562, -0.000976562, 0, -0.0410156, 0.274414, -9.7627, 1.18.2022 20:51:55.003
384, 1.69652, 0.391012, 90.0229, -0.000976562, -0.000976562, 0, -0.0917969, 0.306641, -9.80371, 1.18.2022 20:51:55.011
385, 1.70146, 0.395958, 90.0227, -0.000976562, -0.000976562, 0, -0.116211, 0.283203, -9.73047, 1.18.2022 20:51:55.019
386, 1.70146, 0.395958, 90.0227, -0.000976562, -0.000976562, 0.000976562, -0.00683594, 0.291016, -9.74902, 1.18.2022 20:51:55.027
387, 1.70146, 0.395958, 90.0227, -0.000976562, -0.000976562, -0.00195312, -0.119141, 0.300781, -9.76367, 1.18.2022 20:51:55.035
388, 1.70146, 0.395958, 90.0227, -0.000976562, 0, -0.00195312, -0.0839844, 0.293945, -9.76855, 1.18.2022 20:51:55.043
389, 1.70146, 0.395958, 90.0227, -0.000976562, -0.000976562, 0, -0.0693359, 0.282227, -9.78613, 1.18.2022 20:51:55.051
390, 1.70146, 0.395958, 90.0227, -0.000976562, 0, 0, -0.128906, 0.30957, -9.73926, 1.18.2022 20:51:55.059
391, 1.70146, 0.395958, 90.0227, -0.000976562, 0, 0, -0.03125, 0.269531, -9.74414, 1.18.2022 20:51:55.067
392, 1.70146, 0.395958, 90.0227, -0.000976562, -0.000976562, -0.00195312, -0.0996094, 0.274414, -9.74805, 1.18.2022 20:51:55.075
393, 1.70146, 0.395958, 90.0227, 0, 0, 0, -0.123047, 0.302734, -9.72559, 1.18.2022 20:51:55.083
394, 1.70146, 0.395958, 90.0227, -0.000976562, 0, -0.00195312, -0.0351562, 0.268555, -9.73926, 1.18.2022 20:51:55.091
395, 1.70146, 0.395958, 90.0227, 0, -0.000976562, 0, -0.0800781, 0.285156, -9.71484, 1.18.2022 20:51:55.099
396, 1.70146, 0.395958, 90.0227, -0.000976562, -0.000976562, 0.000976562, -0.0791016, 0.317383, -9.77051, 1.18.2022 20:51:55.107
397, 1.70146, 0.395958, 90.0227, -0.000976562, 0, 0, -0.0205078, 0.285156, -9.72559, 1.18.2022 20:51:55.115
398, 1.70146, 0.395958, 90.0227, -0.000976562, -0.000976562, 0, -0.128906, 0.30957, -9.7373, 1.18.2022 20:51:55.123
399, 1.70146, 0.395958, 90.0227, -0.000976562, 0, 0.000976562, -0.0429688, 0.28125, -9.75391, 1.18.2022 20:51:55.131
400, 1.70146, 0.395958, 90.0227, -0.000976562, -0.000976562, 0, -0.0722656, 0.253906, -9.79199, 1.18.2022 20:51:55.139
401, 1.7064, 0.400904, 90.0225, -0.000976562, 0, -0.00195312, -0.0664062, 0.283203, -9.71973, 1.18.2022 20:51:55.147
402, 1.70146, 0.405848, 90.0225, 0, -0.000976562, 0, -0.0136719, 0.283203, -9.7207, 1.18.2022 20:51:55.155
403, 1.70146, 0.405848, 90.0225, 0, -0.000976562, 0, -0.0771484, 0.320312, -9.68359, 1.18.2022 20:51:55.163
404, 1.70146, 0.405848, 90.0225, -0.000976562, -0.000976562, 0, -0.104492, 0.30957, -9.7373, 1.18.2022 20:51:55.171
405, 1.70146, 0.405848, 90.0225, -0.000976562, 0, 0, -0.0429688, 0.271484, -9.73438, 1.18.2022 20:51:55.179
406, 1.70146, 0.405848, 90.0225, -0.000976562, 0, -0.00195312, -0.135742, 0.292969, -9.73047, 1.18.2022 20:51:55.187
407, 1.70146, 0.405848, 90.0225, 0, -0.000976562, -0.00195312, -0.0625, 0.269531, -9.76953, 1.18.2022 20:51:55.195
408, 1.70146, 0.405848, 90.0225, 0, -0.000976562, -0.00195312, -0.0263672, 0.279297, -9.77051, 1.18.2022 20:51:55.203
409, 1.70146, 0.405848, 90.0225, -0.000976562, 0, 0, -0.0830078, 0.296875, -9.7168, 1.18.2022 20:51:55.211
410, 1.70146, 0.405848, 90.0225, -0.000976562, 0, 0, -0.0322266, 0.311523, -9.71289, 1.18.2022 20:51:55.219
411, 1.70146, 0.405848, 90.0225, -0.000976562, 0, 0, -0.0830078, 0.326172, -9.7373, 1.18.2022 20:51:55.227
412, 1.70146, 0.405848, 90.0225, 0, 0, 0.000976562, -0.0644531, 0.3125, -9.74023, 1.18.2022 20:51:55.235
413, 1.70146, 0.405848, 90.0225, 0, 0, 0, -0.0283203, 0.260742, -9.71875, 1.18.2022 20:51:55.243
414, 1.70146, 0.405848, 90.0225, 0, 0, -0.000976562, -0.116211, 0.291016, -9.74023, 1.18.2022 20:51:55.251
415, 1.70146, 0.405848, 90.0225, 0, -0.000976562, -0.000976562, -0.0615234, 0.27832, -9.72949, 1.18.2022 20:51:55.259
416, 1.70146, 0.405848, 90.0225, 0, -0.000976562, -0.000976562, -0.0722656, 0.303711, -9.77637, 1.18.2022 20:51:55.267
417, 1.70146, 0.405848, 90.0225, -0.000976562, 0, 0, -0.123047, 0.311523, -9.71387, 1.18.2022 20:51:55.275
418, 1.70146, 0.405848, 90.0225, -0.000976562, -0.000976562, 0.000976562, -0.0351562, 0.288086, -9.73242, 1.18.2022 20:51:55.283
419, 1.70146, 0.405848, 90.0225, 0, -0.000976562, 0, -0.0878906, 0.285156, -9.72461, 1.18.2022 20:51:55.291
420, 1.70146, 0.405848, 90.0225, -0.000976562, 0, 0, -0.116211, 0.297852, -9.74512, 1.18.2022 20:51:55.299
421, 1.70146, 0.405848, 90.0225, -0.000976562, 0, 0, -0.0136719, 0.256836, -9.73535, 1.18.2022 20:51:55.307
422, 1.70146, 0.405848, 90.0225, -0.000976562, -0.000976562, -0.000976562, -0.0849609, 0.296875, -9.71973, 1.18.2022 20:51:55.315
423, 1.70146, 0.405848, 90.0225, -0.000976562, 0, -0.000976562, -0.0585938, 0.333008, -9.71387, 1.18.2022 20:51:55.323
424, 1.70146, 0.405848, 90.0225, -0.000976562, -0.000976562, 0, -0.0292969, 0.262695, -9.76562, 1.18.2022 20:51:55.331
425, 1.70146, 0.405848, 90.0225, 0, -0.000976562, 0, -0.109375, 0.264648, -9.75488, 1.18.2022 20:51:55.339
426, 1.70146, 0.405848, 90.0225, -0.000976562, -0.000976562, 0, -0.0478516, 0.266602, -9.73535, 1.18.2022 20:51:55.347
427, 1.70146, 0.405848, 90.0225, -0.000976562, 0.000976562, -0.000976562, -0.0712891, 0.268555, -9.72461, 1.18.2022 20:51:55.355
428, 1.70146, 0.405848, 90.0225, -0.000976562, 0, -0.000976562, -0.111328, 0.306641, -9.70215, 1.18.2022 20:51:55.363
429, 1.70146, 0.405848, 90.0225, -0.000976562, 0, 0, 0.00292969, 0.27832, -9.72168, 1.18.2022 20:51:55.371
430, 1.70146, 0.405848, 90.0225, -0.000976562, 0, 0.000976562, -0.0976562, 0.287109, -9.77148, 1.18.2022 20:51:55.379
431, 1.70146, 0.405848, 90.0225, -0.000976562, -0.000976562, 0.000976562, -0.0927734, 0.295898, -9.75195, 1.18.2022 20:51:55.387
432, 1.70146, 0.405848, 90.0225, -0.000976562, -0.000976562, -0.000976562, -0.0273438, 0.275391, -9.79883, 1.18.2022 20:51:55.395
433, 1.70146, 0.405848, 90.0225, -0.000976562, -0.000976562, 0, -0.119141, 0.279297, -9.75195, 1.18.2022 20:51:55.403
434, 1.70146, 0.405848, 90.0225, -0.000976562, 0, 0, -0.0566406, 0.27832, -9.73633, 1.18.2022 20:51:55.411
435, 1.70146, 0.405848, 90.0225, 0, 0.000976562, 0, -0.0380859, 0.27832, -9.73438, 1.18.2022 20:51:55.419
436, 1.70146, 0.405848, 90.0225, -0.000976562, 0, 0, -0.117188, 0.325195, -9.77734, 1.18.2022 20:51:55.427
437, 1.70146, 0.405848, 90.0225, 0, 0, 0, -0.0214844, 0.291016, -9.75781, 1.18.2022 20:51:55.435
438, 1.70146, 0.405848, 90.0225, -0.000976562, 0, 0, -0.0742188, 0.280273, -9.78613, 1.18.2022 20:51:55.443
439, 1.70146, 0.405848, 90.0225, -0.000976562, -0.000976562, -0.000976562, -0.0947266, 0.314453, -9.73047, 1.18.2022 20:51:55.451
440, 1.70146, 0.405848, 90.0225, -0.000976562, -0.000976562, -0.000976562, -0.015625, 0.282227, -9.7041, 1.18.2022 20:51:55.459
441, 1.70146, 0.405848, 90.0225, 0, -0.000976562, 0, -0.116211, 0.292969, -9.74219, 1.18.2022 20:51:55.467
442, 1.70146, 0.405848, 90.0225, 0, -0.000976562, 0, -0.0595703, 0.28418, -9.77637, 1.18.2022 20:51:55.475
443, 1.70146, 0.405848, 90.0225, 0, -0.000976562, 0, -0.0742188, 0.282227, -9.77148, 1.18.2022 20:51:55.483
444, 1.70146, 0.405848, 90.0225, 0, 0, 0, -0.106445, 0.285156, -9.72656, 1.18.2022 20:51:55.491
445, 1.70146, 0.405848, 90.0225, -0.000976562, -0.000976562, 0, -0.0283203, 0.302734, -9.75781, 1.18.2022 20:51:55.499
446, 1.70146, 0.405848, 90.0225, -0.000976562, 0, 0, -0.0732422, 0.283203, -9.72266, 1.18.2022 20:51:55.507
447, 1.70146, 0.405848, 90.0225, -0.000976562, 0, 0.000976562, -0.0810547, 0.286133, -9.7334, 1.18.2022 20:51:55.515
448, 1.70146, 0.405848, 90.0225, 0, -0.000976562, 0.000976562, -0.0292969, 0.244141, -9.78809, 1.18.2022 20:51:55.523
449, 1.70146, 0.405848, 90.0225, -0.000976562, -0.00195312, 0, -0.112305, 0.283203, -9.74316, 1.18.2022 20:51:55.531
450, 1.70146, 0.405848, 90.0225, 0, -0.000976562, -0.000976562, -0.0664062, 0.263672, -9.7041, 1.18.2022 20:51:55.539
451, 1.70146, 0.405848, 90.0225, -0.000976562, -0.000976562, 0, -0.0253906, 0.270508, -9.7041, 1.18.2022 20:51:55.547
452, 1.70146, 0.405848, 90.0225, 0, -0.000976562, -0.000976562, -0.150391, 0.31543, -9.75781, 1.18.2022 20:51:55.555
453, 1.70146, 0.405848, 90.0225, 0, -0.000976562, -0.000976562, -0.0332031, 0.289062, -9.76953, 1.18.2022 20:51:55.563
454, 1.70146, 0.405848, 90.0225, -0.000976562, -0.000976562, 0, -0.0429688, 0.276367, -9.74902, 1.18.2022 20:51:55.571
455, 1.70146, 0.405848, 90.0225, -0.000976562, -0.000976562, 0, -0.0976562, 0.291016, -9.75, 1.18.2022 20:51:55.579
456, 1.70146, 0.405848, 90.0225, 0, 0, 0.000976562, -0.0166016, 0.237305, -9.72656, 1.18.2022 20:51:55.587
457, 1.70146, 0.405848, 90.0225, 0, 0, -0.000976562, -0.0976562, 0.286133, -9.74512, 1.18.2022 20:51:55.595
458, 1.70146, 0.405848, 90.0225, -0.000976562, 0, 0, -0.0830078, 0.305664, -9.75488, 1.18.2022 20:51:55.603
459, 1.70146, 0.405848, 90.0225, -0.000976562, -0.000976562, 0, -0.00976562, 0.266602, -9.74219, 1.18.2022 20:51:55.611
460, 1.70146, 0.405848, 90.0225, -0.000976562, -0.000976562, 0, -0.125977, 0.322266, -9.74609, 1.18.2022 20:51:55.619
461, 1.70146, 0.405848, 90.0225, -0.000976562, 0, 0, -0.0527344, 0.28125, -9.75098, 1.18.2022 20:51:55.627
462, 1.70146, 0.405848, 90.0225, -0.000976562, 0, 0.000976562, -0.0498047, 0.291016, -9.76465, 1.18.2022 20:51:55.635
463, 1.70146, 0.405848, 90.0225, -0.000976562, 0, 0, -0.12793, 0.316406, -9.72559, 1.18.2022 20:51:55.643
464, 1.70146, 0.405848, 90.0225, -0.000976562, 0, 0, -0.0351562, 0.255859, -9.69727, 1.18.2022 20:51:55.651
465, 1.69652, 0.400902, 90.0227, 0, 0, 0, -0.0722656, 0.25293, -9.76562, 1.18.2022 20:51:55.659
466, 1.69652, 0.400902, 90.0227, -0.000976562, 0, -0.000976562, -0.102539, 0.327148, -9.75098, 1.18.2022 20:51:55.667
467, 1.69652, 0.400902, 90.0227, -0.000976562, -0.000976562, -0.000976562, -0.0234375, 0.27832, -9.72266, 1.18.2022 20:51:55.675
468, 1.69157, 0.405846, 90.0227, -0.000976562, 0, 0, -0.0888672, 0.298828, -9.77344, 1.18.2022 20:51:55.683
469, 1.69157, 0.405846, 90.0227, 0, 0, 0, -0.0283203, 0.286133, -9.73926, 1.18.2022 20:51:55.691
470, 1.69157, 0.405846, 90.0227, 0, -0.000976562, 0, -0.0332031, 0.27832, -9.73438, 1.18.2022 20:51:55.699
471, 1.69157, 0.405846, 90.0227, 0, -0.000976562, 0, -0.125977, 0.320312, -9.75781, 1.18.2022 20:51:55.707
472, 1.69157, 0.405846, 90.0227, 0, -0.000976562, 0, -0.0595703, 0.279297, -9.77637, 1.18.2022 20:51:55.715
473, 1.69157, 0.405846, 90.0227, -0.000976562, -0.000976562, 0.000976562, -0.0908203, 0.273438, -9.73828, 1.18.2022 20:51:55.723
474, 1.69157, 0.405846, 90.0227, -0.000976562, -0.000976562, 0.000976562, -0.0849609, 0.304688, -9.72656, 1.18.2022 20:51:55.731
475, 1.69157, 0.405846, 90.0227, 0, -0.000976562, 0, -0.00878906, 0.261719, -9.73535, 1.18.2022 20:51:55.739
476, 1.69157, 0.405846, 90.0227, 0, 0, 0, -0.0898438, 0.266602, -9.73145, 1.18.2022 20:51:55.747
477, 1.69157, 0.405846, 90.0227, 0, 0, 0, -0.0898438, 0.291992, -9.71973, 1.18.2022 20:51:55.755
478, 1.69157, 0.405846, 90.0227, -0.000976562, -0.000976562, 0, -0.0380859, 0.248047, -9.76367, 1.18.2022 20:51:55.763
479, 1.69157, 0.405846, 90.0227, -0.000976562, -0.000976562, 0, -0.0947266, 0.273438, -9.73633, 1.18.2022 20:51:55.771
480, 1.69157, 0.405846, 90.0227, -0.000976562, 0, 0, -0.0185547, 0.280273, -9.73047, 1.18.2022 20:51:55.779
481, 1.69157, 0.405846, 90.0227, 0, 0, 0, -0.0332031, 0.290039, -9.71582, 1.18.2022 20:51:55.787
482, 1.69157, 0.405846, 90.0227, -0.000976562, 0, 0, -0.107422, 0.319336, -9.74902, 1.18.2022 20:51:55.795
483, 1.68663, 0.4009, 90.0229, -0.000976562, -0.000976562, -0.00195312, -0.0078125, 0.269531, -9.76367, 1.18.2022 20:51:55.803
484, 1.68663, 0.4009, 90.0229, 0, -0.000976562, 0, -0.0810547, 0.271484, -9.74121, 1.18.2022 20:51:55.811
485, 1.68663, 0.4009, 90.0229, -0.000976562, 0, 0, -0.0664062, 0.268555, -9.71582, 1.18.2022 20:51:55.819
486, 1.68663, 0.4009, 90.0229, -0.000976562, 0, 0, -0.0302734, 0.27832, -9.73047, 1.18.2022 20:51:55.827
487, 1.68663, 0.4009, 90.0229, 0, 0, 0, -0.104492, 0.316406, -9.73535, 1.18.2022 20:51:55.835
488, 1.68663, 0.4009, 90.0229, -0.000976562, 0, -0.00195312, -0.0576172, 0.28418, -9.75781, 1.18.2022 20:51:55.843
489, 1.68663, 0.4009, 90.0229, -0.000976562, 0, -0.00195312, -0.0332031, 0.292969, -9.72461, 1.18.2022 20:51:55.851
490, 1.68663, 0.4009, 90.0229, -0.000976562, 0, 0, -0.113281, 0.299805, -9.70703, 1.18.2022 20:51:55.859
491, 1.69157, 0.395956, 90.0229, 0, 0, 0, -0.0136719, 0.266602, -9.73535, 1.18.2022 20:51:55.867
492, 1.69157, 0.395956, 90.0229, 0, -0.000976562, -0.00195312, -0.0576172, 0.25293, -9.77051, 1.18.2022 20:51:55.875
493, 1.69157, 0.395956, 90.0229, -0.000976562, -0.000976562, -0.00195312, -0.104492, 0.290039, -9.72852, 1.18.2022 20:51:55.883
494, 1.68663, 0.39101, 90.0231, -0.000976562, -0.000976562, 0, -0.0263672, 0.254883, -9.73828, 1.18.2022 20:51:55.891
495, 1.68663, 0.39101, 90.0231, 0, -0.000976562, 0, -0.0947266, 0.283203, -9.72852, 1.18.2022 20:51:55.899
496, 1.68663, 0.39101, 90.0231, 0, 0, 0, -0.0830078, 0.292969, -9.74023, 1.18.2022 20:51:55.907
497, 1.68663, 0.39101, 90.0231, -0.000976562, -0.000976562, 0, -0.0507812, 0.287109, -9.77246, 1.18.2022 20:51:55.915
498, 1.68663, 0.39101, 90.0231, 0, -0.000976562, 0, -0.119141, 0.274414, -9.75, 1.18.2022 20:51:55.921
499, 1.68663, 0.39101, 90.0231, 0, 0, 0, -0.0517578, 0.271484, -9.72949, 1.18.2022 20:51:55.929
500, 1.68663, 0.39101, 90.0231, -0.000976562, 0, -0.00195312, -0.0400391, 0.299805, -9.74316, 1.18.2022 20:51:55.937
501, 1.68663, 0.39101, 90.0231, 0, -0.000976562, 0, -0.0908203, 0.3125, -9.74707, 1.18.2022 20:51:55.945
502, 1.68663, 0.39101, 90.0231, 0, -0.000976562, 0, -0.0166016, 0.264648, -9.76367, 1.18.2022 20:51:55.953
503, 1.68169, 0.395953, 90.0231, 0, -0.000976562, 0, -0.112305, 0.274414, -9.73828, 1.18.2022 20:51:55.961
504, 1.67674, 0.391007, 90.0233, 0, -0.000976562, 0.000976562, -0.0761719, 0.299805, -9.73145, 1.18.2022 20:51:55.969
505, 1.67674, 0.391007, 90.0233, -0.000976562, -0.000976562, 0.000976562, -0.0185547, 0.259766, -9.74707, 1.18.2022 20:51:55.979
506, 1.67674, 0.391007, 90.0233, -0.000976562, 0, 0, -0.124023, 0.288086, -9.74219, 1.18.2022 20:51:55.985
507, 1.67674, 0.391007, 90.0233, -0.000976562, -0.00195312, -0.00195312, -0.0166016, 0.27832, -9.74023, 1.18.2022 20:51:55.993
508, 1.67674, 0.391007, 90.0233, -0.000976562, -0.000976562, 0, -0.0429688, 0.289062, -9.77441, 1.18.2022 20:51:56.001
509, 1.67674, 0.391007, 90.0233, -0.000976562, -0.000976562, 0, -0.112305, 0.297852, -9.74219, 1.18.2022 20:51:56.009
510, 1.67674, 0.391007, 90.0233, 0, -0.000976562, 0.000976562, -0.00683594, 0.279297, -9.75684, 1.18.2022 20:51:56.017
511, 1.67674, 0.391007, 90.0233, -0.000976562, 0, 0, -0.0810547, 0.292969, -9.74512, 1.18.2022 20:51:56.025
512, 1.67674, 0.391007, 90.0233, 0, -0.000976562, 0, -0.0712891, 0.295898, -9.75488, 1.18.2022 20:51:56.033
513, 1.67674, 0.391007, 90.0233, -0.000976562, -0.000976562, 0, -0.0419922, 0.294922, -9.71484, 1.18.2022 20:51:56.041
514, 1.67674, 0.391007, 90.0233, -0.000976562, -0.000976562, 0, -0.139648, 0.287109, -9.70215, 1.18.2022 20:51:56.049
515, 1.67674, 0.391007, 90.0233, -0.000976562, -0.000976562, 0, -0.0742188, 0.293945, -9.75488, 1.18.2022 20:51:56.057
516, 1.67674, 0.391007, 90.0233, -0.000976562, -0.000976562, 0.000976562, -0.0429688, 0.289062, -9.78418, 1.18.2022 20:51:56.065
517, 1.67674, 0.391007, 90.0233, -0.000976562, 0, 0, -0.15332, 0.313477, -9.77441, 1.18.2022 20:51:56.073
518, 1.68169, 0.386064, 90.0233, -0.000976562, 0, 0, -0.0302734, 0.283203, -9.72266, 1.18.2022 20:51:56.081
519, 1.68169, 0.386064, 90.0233, -0.000976562, 0, 0, -0.0595703, 0.266602, -9.72559, 1.18.2022 20:51:56.089
520, 1.68169, 0.386064, 90.0233, 0, 0, -0.000976562, -0.121094, 0.329102, -9.75098, 1.18.2022 20:51:56.097
521, 1.68169, 0.386064, 90.0233, -0.000976562, -0.000976562, 0, -0.0429688, 0.286133, -9.73926, 1.18.2022 20:51:56.105
522, 1.68169, 0.386064, 90.0233, -0.000976562, 0, 0.000976562, -0.124023, 0.272461, -9.78027, 1.18.2022 20:51:56.113
523, 1.68169, 0.386064, 90.0233, -0.000976562, 0, 0.000976562, -0.0693359, 0.308594, -9.77148, 1.18.2022 20:51:56.121
524, 1.68169, 0.386064, 90.0233, -0.000976562, -0.000976562, 0, -0.0419922, 0.265625, -9.71875, 1.18.2022 20:51:56.129
525, 1.68169, 0.386064, 90.0233, -0.00195312, -0.000976562, -0.000976562, -0.106445, 0.285156, -9.72656, 1.18.2022 20:51:56.137
526, 1.68169, 0.386064, 90.0233, -0.000976562, -0.000976562, 0, -0.00390625, 0.290039, -9.71387, 1.18.2022 20:51:56.145
527, 1.68169, 0.386064, 90.0233, -0.000976562, -0.000976562, -0.00195312, -0.0498047, 0.266602, -9.74707, 1.18.2022 20:51:56.153
528, 1.68169, 0.386064, 90.0233, -0.000976562, 0, 0, -0.0898438, 0.275391, -9.70801, 1.18.2022 20:51:56.161
529, 1.68169, 0.386064, 90.0233, 0, -0.000976562, 0.000976562, 0.0146484, 0.294922, -9.7373, 1.18.2022 20:51:56.169
530, 1.68169, 0.386064, 90.0233, 0, -0.000976562, 0, -0.0800781, 0.311523, -9.72559, 1.18.2022 20:51:56.177
531, 1.68169, 0.386064, 90.0233, -0.000976562, -0.000976562, 0, -0.0546875, 0.295898, -9.75488, 1.18.2022 20:51:56.185
532, 1.68663, 0.39101, 90.0231, 0, -0.000976562, 0, -0.0234375, 0.269531, -9.75195, 1.18.2022 20:51:56.193
533, 1.68192, 0.385974, 90.0233, 0, 0, 0.000976562, -0.150391, 0.295898, -9.75098, 1.18.2022 20:51:56.201
534, 1.68192, 0.385974, 90.0233, -0.000976562, 0, 0.000976562, -0.0488281, 0.301758, -9.70996, 1.18.2022 20:51:56.209
535, 1.68687, 0.39092, 90.0231, -0.000976562, -0.000976562, 0.000976562, -0.0517578, 0.27832, -9.73242, 1.18.2022 20:51:56.217
536, 1.68687, 0.39092, 90.0231, -0.00195312, -0.000976562, 0, -0.114258, 0.310547, -9.75391, 1.18.2022 20:51:56.225
537, 1.68687, 0.39092, 90.0231, -0.000976562, 0, -0.000976562, -0.0078125, 0.272461, -9.76562, 1.18.2022 20:51:56.233
538, 1.68687, 0.39092, 90.0231, 0, -0.000976562, -0.000976562, -0.0849609, 0.293945, -9.68848, 1.18.2022 20:51:56.241
539, 1.68687, 0.39092, 90.0231, -0.000976562, -0.000976562, 0, -0.117188, 0.293945, -9.75391, 1.18.2022 20:51:56.249
540, 1.68667, 0.390864, 90.0132, -0.000976562, 0, -0.000976562, 0, 0.264648, -9.76855, 1.18.2022 20:51:56.257
541, 1.68667, 0.390864, 90.0132, -0.000976562, -0.000976562, -0.000976562, -0.124023, 0.318359, -9.77734, 1.18.2022 20:51:56.265
542, 1.68687, 0.39092, 90.0231, -0.000976562, -0.000976562, -0.00195312, -0.0625, 0.318359, -9.78027, 1.18.2022 20:51:56.273
543, 1.68687, 0.39092, 90.0231, -0.000976562, -0.000976562, -0.000976562, -0.0566406, 0.290039, -9.71289, 1.18.2022 20:51:56.281
544, 1.68687, 0.39092, 90.0231, 0, -0.000976562, -0.000976562, -0.116211, 0.306641, -9.69727, 1.18.2022 20:51:56.289
545, 1.68687, 0.39092, 90.0231, -0.000976562, -0.000976562, -0.000976562, -0.0214844, 0.288086, -9.74902, 1.18.2022 20:51:56.297
546, 1.68687, 0.39092, 90.0231, -0.000976562, -0.000976562, -0.000976562, -0.0634766, 0.294922, -9.72656, 1.18.2022 20:51:56.305
547, 1.68687, 0.39092, 90.0231, -0.000976562, -0.000976562, -0.000976562, -0.0546875, 0.292969, -9.74805, 1.18.2022 20:51:56.313
548, 1.68687, 0.39092, 90.0231, 0, -0.00195312, 0, 0, 0.268555, -9.74219, 1.18.2022 20:51:56.321
549, 1.68687, 0.39092, 90.0231, -0.000976562, -0.000976562, -0.00195312, -0.09375, 0.306641, -9.79004, 1.18.2022 20:51:56.329
550, 1.68687, 0.39092, 90.0231, -0.000976562, 0, -0.000976562, -0.0546875, 0.273438, -9.72559, 1.18.2022 20:51:56.337
551, 1.68687, 0.39092, 90.0231, 0, -0.000976562, -0.000976562, -0.03125, 0.289062, -9.78418, 1.18.2022 20:51:56.345
552, 1.68687, 0.39092, 90.0231, -0.000976562, -0.000976562, -0.000976562, -0.0898438, 0.288086, -9.7168, 1.18.2022 20:51:56.353
553, 1.68687, 0.39092, 90.0231, -0.00195312, -0.000976562, -0.000976562, -0.0166016, 0.294922, -9.72559, 1.18.2022 20:51:56.361
554, 1.69181, 0.385976, 90.0231, -0.000976562, -0.000976562, -0.000976562, -0.0527344, 0.289062, -9.76953, 1.18.2022 20:51:56.369
555, 1.69181, 0.385976, 90.0231, 0, 0, -0.000976562, -0.0966797, 0.316406, -9.70703, 1.18.2022 20:51:56.377
556, 1.69181, 0.385976, 90.0231, 0, -0.000976562, 0, -0.0283203, 0.279297, -9.75586, 1.18.2022 20:51:56.385
557, 1.69181, 0.385976, 90.0231, 0, -0.000976562, -0.000976562, -0.0947266, 0.273438, -9.73633, 1.18.2022 20:51:56.393
558, 1.69181, 0.385976, 90.0231, -0.000976562, 0, -0.000976562, -0.0644531, 0.30957, -9.73828, 1.18.2022 20:51:56.401
559, 1.69181, 0.385976, 90.0231, 0, 0, -0.000976562, -0.0292969, 0.265625, -9.78711, 1.18.2022 20:51:56.409
560, 1.69181, 0.385976, 90.0231, -0.000976562, 0, -0.000976562, -0.0927734, 0.302734, -9.72852, 1.18.2022 20:51:56.417
561, 1.69181, 0.385976, 90.0231, -0.000976562, -0.000976562, -0.000976562, -0.0576172, 0.302734, -9.75781, 1.18.2022 20:51:56.425
562, 1.69181, 0.385976, 90.0231, -0.000976562, 0, -0.000976562, -0.0732422, 0.283203, -9.73633, 1.18.2022 20:51:56.433
563, 1.69181, 0.385976, 90.0231, -0.000976562, 0, -0.000976562, -0.124023, 0.317383, -9.74902, 1.18.2022 20:51:56.441
564, 1.69676, 0.381032, 90.0231, -0.000976562, -0.000976562, -0.000976562, 0.0224609, 0.258789, -9.71484, 1.18.2022 20:51:56.449
565, 1.69676, 0.381032, 90.0231, -0.000976562, -0.00195312, 0, -0.0449219, 0.302734, -9.75781, 1.18.2022 20:51:56.457
566, 1.69676, 0.381032, 90.0231, 0, -0.000976562, -0.000976562, -0.0761719, 0.305664, -9.76367, 1.18.2022 20:51:56.465
567, 1.69676, 0.381032, 90.0231, -0.000976562, -0.000976562, -0.000976562, -0.015625, 0.287109, -9.71387, 1.18.2022 20:51:56.473
568, 1.69676, 0.381032, 90.0231, -0.000976562, -0.000976562, -0.000976562, -0.130859, 0.329102, -9.72949, 1.18.2022 20:51:56.481
569, 1.69676, 0.381032, 90.0231, -0.000976562, 0, -0.000976562, -0.0761719, 0.305664, -9.75684, 1.18.2022 20:51:56.489
570, 1.69676, 0.381032, 90.0231, -0.000976562, 0, -0.000976562, -0.0439453, 0.272461, -9.70215, 1.18.2022 20:51:56.497
571, 1.69676, 0.381032, 90.0231, -0.00195312, -0.000976562, -0.000976562, -0.119141, 0.300781, -9.74023, 1.18.2022 20:51:56.505
572, 1.69676, 0.381032, 90.0231, -0.000976562, -0.000976562, -0.000976562, -0.0117188, 0.285156, -9.73535, 1.18.2022 20:51:56.513
573, 1.7017, 0.376088, 90.0231, 0, -0.000976562, -0.000976562, -0.0644531, 0.269531, -9.75781, 1.18.2022 20:51:56.521
574, 1.7017, 0.376088, 90.0231, 0, 0, -0.000976562, -0.100586, 0.287109, -9.76465, 1.18.2022 20:51:56.529
575, 1.7017, 0.376088, 90.0231, 0, 0, 0.000976562, -0.00195312, 0.285156, -9.73242, 1.18.2022 20:51:56.537
576, 1.7017, 0.376088, 90.0231, 0, 0, -0.000976562, -0.111328, 0.292969, -9.73047, 1.18.2022 20:51:56.545
577, 1.7017, 0.376088, 90.0231, -0.000976562, -0.000976562, -0.000976562, -0.0849609, 0.306641, -9.72363, 1.18.2022 20:51:56.553
578, 1.7017, 0.376088, 90.0231, -0.000976562, -0.000976562, -0.000976562, -0.0527344, 0.288086, -9.74316, 1.18.2022 20:51:56.561
579, 1.7017, 0.376088, 90.0231, 0, 0.000976562, -0.000976562, -0.114258, 0.324219, -9.75098, 1.18.2022 20:51:56.569
580, 1.7017, 0.376088, 90.0231, -0.000976562, 0, -0.000976562, -0.0458984, 0.28418, -9.76074, 1.18.2022 20:51:56.577
581, 1.7017, 0.376088, 90.0231, 0, 0, -0.000976562, -0.078125, 0.30957, -9.72168, 1.18.2022 20:51:56.585
582, 1.7017, 0.376088, 90.0231, 0, -0.000976562, -0.000976562, -0.0898438, 0.299805, -9.73047, 1.18.2022 20:51:56.593
583, 1.7017, 0.376088, 90.0231, -0.000976562, 0, -0.000976562, 0.00976562, 0.276367, -9.74219, 1.18.2022 20:51:56.601
584, 1.70665, 0.371144, 90.0231, -0.00195312, 0, -0.000976562, -0.0908203, 0.303711, -9.76367, 1.18.2022 20:51:56.609
585, 1.70665, 0.371144, 90.0231, -0.000976562, -0.000976562, -0.000976562, -0.0585938, 0.294922, -9.71973, 1.18.2022 20:51:56.617
586, 1.70665, 0.371144, 90.0231, -0.000976562, -0.000976562, -0.000976562, -0.0302734, 0.261719, -9.7207, 1.18.2022 20:51:56.625
587, 1.70665, 0.371144, 90.0231, -0.000976562, 0, -0.000976562, -0.101562, 0.285156, -9.7002, 1.18.2022 20:51:56.633
588, 1.70665, 0.371144, 90.0231, 0, -0.000976562, -0.000976562, -0.046875, 0.285156, -9.72461, 1.18.2022 20:51:56.641
589, 1.70665, 0.371144, 90.0231, -0.000976562, -0.000976562, -0.000976562, -0.0644531, 0.276367, -9.72949, 1.18.2022 20:51:56.649
590, 1.70665, 0.371144, 90.0231, 0, -0.00195312, -0.000976562, -0.0957031, 0.300781, -9.75, 1.18.2022 20:51:56.657
591, 1.70665, 0.371144, 90.0231, -0.000976562, -0.000976562, -0.000976562, -0.0371094, 0.282227, -9.69727, 1.18.2022 20:51:56.665
592, 1.70665, 0.371144, 90.0231, -0.000976562, -0.000976562, -0.00195312, -0.0732422, 0.292969, -9.7334, 1.18.2022 20:51:56.673
593, 1.70665, 0.371144, 90.0231, 0, -0.000976562, -0.000976562, -0.0634766, 0.299805, -9.72461, 1.18.2022 20:51:56.681
594, 1.71135, 0.37618, 90.0229, -0.000976562, -0.00195312, -0.00195312, -0.0224609, 0.27832, -9.81055, 1.18.2022 20:51:56.689
595, 1.71135, 0.37618, 90.0229, -0.000976562, -0.000976562, -0.00195312, -0.0976562, 0.289062, -9.76172, 1.18.2022 20:51:56.697
596, 1.71135, 0.37618, 90.0229, -0.000976562, 0, -0.000976562, -0.0761719, 0.302734, -9.72852, 1.18.2022 20:51:56.705
597, 1.71135, 0.37618, 90.0229, 0, 0, -0.000976562, -0.0361328, 0.241211, -9.76855, 1.18.2022 20:51:56.713
598, 1.70641, 0.371234, 90.0231, 0, 0, -0.000976562, -0.102539, 0.307617, -9.73535, 1.18.2022 20:51:56.721
599, 1.70641, 0.371234, 90.0231, -0.000976562, -0.000976562, -0.000976562, -0.0283203, 0.299805, -9.73926, 1.18.2022 20:51:56.729
600, 1.71135, 0.37618, 90.0229, -0.000976562, -0.000976562, -0.00195312, -0.104492, 0.30957, -9.74219, 1.18.2022 20:51:56.737
601, 1.71135, 0.37618, 90.0229, -0.000976562, -0.000976562, 0, -0.0732422, 0.30957, -9.74316, 1.18.2022 20:51:56.745
602, 1.71135, 0.37618, 90.0229, -0.000976562, 0, 0, -0.00488281, 0.254883, -9.74805, 1.18.2022 20:51:56.753
603, 1.71135, 0.37618, 90.0229, 0, -0.000976562, 0, -0.0810547, 0.292969, -9.73633, 1.18.2022 20:51:56.761
604, 1.71135, 0.37618, 90.0229, 0, 0, 0, -0.0683594, 0.305664, -9.69824, 1.18.2022 20:51:56.769
605, 1.71135, 0.37618, 90.0229, -0.000976562, -0.000976562, -0.00195312, -0.0595703, 0.28125, -9.73926, 1.18.2022 20:51:56.777
606, 1.71135, 0.37618, 90.0229, -0.000976562, 0, 0, -0.130859, 0.336914, -9.75293, 1.18.2022 20:51:56.785
607, 1.71135, 0.37618, 90.0229, 0, -0.000976562, 0, -0.0332031, 0.301758, -9.71777, 1.18.2022 20:51:56.793
608, 1.71135, 0.37618, 90.0229, 0, -0.000976562, 0, -0.0585938, 0.304688, -9.72168, 1.18.2022 20:51:56.801
609, 1.71135, 0.37618, 90.0229, -0.000976562, -0.000976562, 0, -0.0976562, 0.292969, -9.74707, 1.18.2022 20:51:56.809
610, 1.71135, 0.37618, 90.0229, -0.000976562, -0.000976562, 0, 0, 0.297852, -9.75098, 1.18.2022 20:51:56.817
611, 1.71135, 0.37618, 90.0229, 0, -0.000976562, 0, -0.0830078, 0.292969, -9.72656, 1.18.2022 20:51:56.825
612, 1.71135, 0.37618, 90.0229, -0.000976562, 0, 0, -0.109375, 0.273438, -9.72461, 1.18.2022 20:51:56.833
613, 1.7163, 0.371236, 90.0229, -0.000976562, 0, 0, -0.046875, 0.274414, -9.69434, 1.18.2022 20:51:56.841
614, 1.7163, 0.371236, 90.0229, -0.000976562, -0.000976562, 0.000976562, -0.130859, 0.314453, -9.72754, 1.18.2022 20:51:56.849
615, 1.7163, 0.371236, 90.0229, -0.000976562, 0, 0.000976562, -0.0566406, 0.283203, -9.72754, 1.18.2022 20:51:56.857
616, 1.7163, 0.371236, 90.0229, 0, -0.000976562, 0, -0.0488281, 0.258789, -9.79199, 1.18.2022 20:51:56.865
617, 1.7163, 0.371236, 90.0229, -0.000976562, 0, 0, -0.0830078, 0.294922, -9.7168, 1.18.2022 20:51:56.873
618, 1.7163, 0.371236, 90.0229, -0.000976562, 0, 0, 0.00195312, 0.28418, -9.75684, 1.18.2022 20:51:56.881
619, 1.7163, 0.371236, 90.0229, -0.000976562, -0.000976562, -0.00195312, -0.0664062, 0.289062, -9.75781, 1.18.2022 20:51:56.889
620, 1.7163, 0.371236, 90.0229, -0.000976562, -0.000976562, 0, -0.0927734, 0.322266, -9.74707, 1.18.2022 20:51:56.897
621, 1.7163, 0.371236, 90.0229, 0, -0.000976562, 0.000976562, -0.0244141, 0.274414, -9.76855, 1.18.2022 20:51:56.903
622, 1.71654, 0.371146, 90.0229, -0.000976562, -0.000976562, 0.000976562, -0.152344, 0.297852, -9.73047, 1.18.2022 20:51:56.911
623, 1.71654, 0.371146, 90.0229, 0, -0.000976562, 0, -0.0380859, 0.307617, -9.75293, 1.18.2022 20:51:56.919
624, 1.71654, 0.371146, 90.0229, -0.000976562, -0.00195312, 0, -0.0253906, 0.270508, -9.72363, 1.18.2022 20:51:56.927
625, 1.71654, 0.371146, 90.0229, -0.000976562, 0, 0, -0.0966797, 0.30957, -9.71875, 1.18.2022 20:51:56.935
626, 1.71654, 0.371146, 90.0229, -0.000976562, -0.000976562, 0, -0.0283203, 0.268555, -9.73242, 1.18.2022 20:51:56.943
627, 1.71654, 0.371146, 90.0229, -0.000976562, -0.000976562, 0, -0.0644531, 0.277344, -9.76465, 1.18.2022 20:51:56.951
628, 1.71654, 0.371146, 90.0229, 0, -0.000976562, 0.000976562, -0.0996094, 0.288086, -9.7334, 1.18.2022 20:51:56.959
629, 1.71159, 0.37609, 90.0229, -0.000976562, -0.000976562, 0, -0.0371094, 0.272461, -9.69238, 1.18.2022 20:51:56.967
630, 1.71159, 0.37609, 90.0229, -0.000976562, 0, 0, -0.12793, 0.318359, -9.71289, 1.18.2022 20:51:56.975
631, 1.71654, 0.371146, 90.0229, -0.000976562, 0, 0, -0.09375, 0.277344, -9.77637, 1.18.2022 20:51:56.983
632, 1.71654, 0.371146, 90.0229, -0.000976562, 0, 0, -0.0136719, 0.268555, -9.71191, 1.18.2022 20:51:56.991
633, 1.71654, 0.371146, 90.0229, -0.000976562, 0, -0.000976562, -0.105469, 0.279297, -9.76465, 1.18.2022 20:51:56.999
634, 1.71654, 0.371146, 90.0229, -0.000976562, -0.000976562, -0.000976562, -0.0332031, 0.271484, -9.74414, 1.18.2022 20:51:57.007
635, 1.72148, 0.376092, 90.0227, -0.000976562, -0.000976562, 0, -0.0576172, 0.287109, -9.7793, 1.18.2022 20:51:57.015
636, 1.71653, 0.381036, 90.0227, 0, -0.000976562, -0.000976562, -0.0830078, 0.296875, -9.70996, 1.18.2022 20:51:57.023
637, 1.71653, 0.381036, 90.0227, -0.000976562, -0.000976562, -0.000976562, -0.00488281, 0.273438, -9.7334, 1.18.2022 20:51:57.031
638, 1.71653, 0.381036, 90.0227, -0.000976562, 0, -0.000976562, -0.0927734, 0.291016, -9.75977, 1.18.2022 20:51:57.039
639, 1.71159, 0.37609, 90.0229, 0, 0, -0.000976562, -0.0810547, 0.292969, -9.74023, 1.18.2022 20:51:57.047
640, 1.71159, 0.37609, 90.0229, -0.000976562, -0.000976562, -0.000976562, -0.00878906, 0.275391, -9.72559, 1.18.2022 20:51:57.055
641, 1.71159, 0.37609, 90.0229, -0.000976562, 0, -0.000976562, -0.119141, 0.30957, -9.72754, 1.18.2022 20:51:57.063
642, 1.71159, 0.37609, 90.0229, -0.000976562, 0, -0.000976562, -0.0683594, 0.290039, -9.7334, 1.18.2022 20:51:57.071
643, 1.71159, 0.37609, 90.0229, 0, 0, -0.000976562, -0.0664062, 0.285156, -9.71777, 1.18.2022 20:51:57.079
644, 1.71159, 0.37609, 90.0229, -0.000976562, -0.000976562, -0.000976562, -0.115234, 0.323242, -9.77734, 1.18.2022 20:51:57.087
645, 1.71159, 0.37609, 90.0229, -0.000976562, -0.000976562, -0.000976562, -0.0283203, 0.297852, -9.76074, 1.18.2022 20:51:57.095
646, 1.71159, 0.37609, 90.0229, 0, 0, -0.000976562, -0.0986328, 0.311523, -9.79199, 1.18.2022 20:51:57.103
647, 1.71159, 0.37609, 90.0229, 0, 0, -0.000976562, -0.0898438, 0.296875, -9.70508, 1.18.2022 20:51:57.111
648, 1.71159, 0.37609, 90.0229, 0, -0.000976562, -0.000976562, -0.0146484, 0.272461, -9.78516, 1.18.2022 20:51:57.119
649, 1.71159, 0.37609, 90.0229, 0, -0.000976562, -0.000976562, -0.128906, 0.323242, -9.77246, 1.18.2022 20:51:57.127
650, 1.71159, 0.37609, 90.0229, 0, 0, -0.000976562, -0.0283203, 0.258789, -9.7334, 1.18.2022 20:51:57.135
651, 1.71159, 0.37609, 90.0229, -0.000976562, 0, 0.000976562, -0.0234375, 0.236328, -9.75293, 1.18.2022 20:51:57.143
652, 1.71159, 0.37609, 90.0229, -0.000976562, -0.000976562, -0.000976562, -0.0976562, 0.297852, -9.74512, 1.18.2022 20:51:57.151
653, 1.71159, 0.37609, 90.0229, -0.000976562, -0.000976562, -0.000976562, -0.0400391, 0.302734, -9.73145, 1.18.2022 20:51:57.159
654, 1.71159, 0.37609, 90.0229, -0.000976562, 0, -0.00195312, -0.0791016, 0.303711, -9.78809, 1.18.2022 20:51:57.167
655, 1.71159, 0.37609, 90.0229, -0.000976562, 0.000976562, -0.000976562, -0.078125, 0.319336, -9.74707, 1.18.2022 20:51:57.175
656, 1.71159, 0.37609, 90.0229, -0.000976562, 0, -0.000976562, -0.00878906, 0.283203, -9.72754, 1.18.2022 20:51:57.183
657, 1.71159, 0.37609, 90.0229, -0.000976562, 0, -0.000976562, -0.0986328, 0.291992, -9.78516, 1.18.2022 20:51:57.191
658, 1.71159, 0.37609, 90.0229, -0.000976562, -0.000976562, -0.000976562, -0.0556641, 0.280273, -9.78125, 1.18.2022 20:51:57.199
659, 1.71159, 0.37609, 90.0229, 0, -0.000976562, -0.000976562, -0.0507812, 0.282227, -9.77246, 1.18.2022 20:51:57.207
660, 1.71159, 0.37609, 90.0229, -0.000976562, -0.000976562, -0.000976562, -0.147461, 0.290039, -9.70703, 1.18.2022 20:51:57.215
661, 1.71159, 0.37609, 90.0229, -0.000976562, 0, -0.000976562, -0.0351562, 0.308594, -9.70605, 1.18.2022 20:51:57.223
662, 1.71159, 0.37609, 90.0229, 0, -0.000976562, 0, -0.0488281, 0.296875, -9.70605, 1.18.2022 20:51:57.231
663, 1.71159, 0.37609, 90.0229, 0, -0.000976562, 0, -0.0869141, 0.279297, -9.69336, 1.18.2022 20:51:57.239
664, 1.71159, 0.37609, 90.0229, 0, -0.000976562, -0.000976562, -0.00976562, 0.277344, -9.77734, 1.18.2022 20:51:57.247
665, 1.71159, 0.37609, 90.0229, 0, 0, -0.000976562, -0.078125, 0.283203, -9.73633, 1.18.2022 20:51:57.255
666, 1.71159, 0.37609, 90.0229, -0.000976562, -0.000976562, -0.000976562, -0.0478516, 0.295898, -9.76465, 1.18.2022 20:51:57.263
667, 1.71159, 0.37609, 90.0229, 0, -0.000976562, -0.000976562, -0.0400391, 0.24707, -9.70996, 1.18.2022 20:51:57.271
668, 1.70665, 0.381034, 90.0229, 0, 0, -0.000976562, -0.113281, 0.296875, -9.69238, 1.18.2022 20:51:57.279
669, 1.70665, 0.381034, 90.0229, -0.000976562, 0, -0.000976562, -0.0761719, 0.28125, -9.73438, 1.18.2022 20:51:57.287
670, 1.71159, 0.37609, 90.0229, -0.000976562, 0, -0.000976562, -0.0498047, 0.257812, -9.75879, 1.18.2022 20:51:57.295
671, 1.71159, 0.37609, 90.0229, -0.000976562, 0, -0.000976562, -0.0898438, 0.290039, -9.72852, 1.18.2022 20:51:57.303
672, 1.71159, 0.37609, 90.0229, -0.00195312, -0.000976562, 0, -0.0234375, 0.273438, -9.71582, 1.18.2022 20:51:57.311
673, 1.71159, 0.37609, 90.0229, -0.000976562, -0.000976562, -0.000976562, -0.0644531, 0.28125, -9.7627, 1.18.2022 20:51:57.319
674, 1.71159, 0.37609, 90.0229, -0.000976562, -0.000976562, -0.000976562, -0.0917969, 0.287109, -9.70801, 1.18.2022 20:51:57.327
675, 1.70665, 0.381034, 90.0229, -0.000976562, -0.000976562, 0, -0.0625, 0.254883, -9.75586, 1.18.2022 20:51:57.335
676, 1.70665, 0.381034, 90.0229, -0.000976562, -0.000976562, -0.000976562, -0.0996094, 0.296875, -9.71875, 1.18.2022 20:51:57.343
677, 1.70665, 0.381034, 90.0229, 0, -0.000976562, -0.000976562, -0.0546875, 0.264648, -9.7627, 1.18.2022 20:51:57.351
678, 1.70665, 0.381034, 90.0229, -0.000976562, -0.000976562, -0.000976562, -0.0761719, 0.25293, -9.76758, 1.18.2022 20:51:57.359
679, 1.70665, 0.381034, 90.0229, 0, -0.000976562, -0.00195312, -0.162109, 0.31543, -9.75488, 1.18.2022 20:51:57.367
680, 1.70665, 0.381034, 90.0229, 0, -0.000976562, -0.00195312, -0.0283203, 0.28125, -9.75879, 1.18.2022 20:51:57.375
681, 1.70665, 0.381034, 90.0229, 0, -0.000976562, -0.000976562, -0.0712891, 0.300781, -9.76465, 1.18.2022 20:51:57.383
682, 1.70665, 0.381034, 90.0229, 0, -0.000976562, -0.000976562, -0.0966797, 0.311523, -9.7207, 1.18.2022 20:51:57.391
683, 1.70665, 0.381034, 90.0229, -0.000976562, -0.000976562, -0.000976562, -0.0126953, 0.277344, -9.68359, 1.18.2022 20:51:57.399
684, 1.70641, 0.381124, 90.0229, -0.000976562, -0.000976562, -0.00195312, -0.0849609, 0.292969, -9.72168, 1.18.2022 20:51:57.407
685, 1.70641, 0.381124, 90.0229, -0.000976562, 0, -0.00195312, -0.0830078, 0.292969, -9.74316, 1.18.2022 20:51:57.415
686, 1.70146, 0.386068, 90.0229, -0.000976562, 0, 0.000976562, -0.0380859, 0.288086, -9.72461, 1.18.2022 20:51:57.423
687, 1.70146, 0.386068, 90.0229, 0, 0, -0.000976562, -0.0898438, 0.285156, -9.72852, 1.18.2022 20:51:57.431
688, 1.70146, 0.386068, 90.0229, 0, -0.000976562, -0.000976562, -0.0400391, 0.27832, -9.72266, 1.18.2022 20:51:57.439
689, 1.70146, 0.386068, 90.0229, -0.000976562, -0.000976562, -0.000976562, -0.0546875, 0.295898, -9.74805, 1.18.2022 20:51:57.447
690, 1.70146, 0.386068, 90.0229, -0.000976562, 0, 0.000976562, -0.101562, 0.290039, -9.72363, 1.18.2022 20:51:57.455
691, 1.7017, 0.385978, 90.0229, -0.000976562, 0, 0.000976562, -0.0136719, 0.265625, -9.7168, 1.18.2022 20:51:57.463
692, 1.7017, 0.385978, 90.0229, -0.000976562, -0.000976562, -0.00195312, -0.0712891, 0.271484, -9.73438, 1.18.2022 20:51:57.471
693, 1.70146, 0.386068, 90.0229, -0.000976562, -0.000976562, -0.00195312, -0.078125, 0.288086, -9.72461, 1.18.2022 20:51:57.479
694, 1.70146, 0.386068, 90.0229, -0.000976562, 0, -0.00195312, 0.0078125, 0.285156, -9.71387, 1.18.2022 20:51:57.487
695, 1.70146, 0.386068, 90.0229, -0.000976562, 0, -0.000976562, -0.121094, 0.319336, -9.74414, 1.18.2022 20:51:57.495
696, 1.70146, 0.386068, 90.0229, 0, 0, -0.000976562, -0.0527344, 0.289062, -9.77637, 1.18.2022 20:51:57.503
697, 1.69652, 0.381122, 90.0231, -0.000976562, 0, 0, -0.0546875, 0.300781, -9.76953, 1.18.2022 20:51:57.511
698, 1.69652, 0.381122, 90.0231, -0.000976562, -0.000976562, 0, -0.114258, 0.314453, -9.74902, 1.18.2022 20:51:57.519
699, 1.69652, 0.381122, 90.0231, -0.000976562, -0.000976562, 0, -0.0205078, 0.280273, -9.71582, 1.18.2022 20:51:57.527
700, 1.69652, 0.381122, 90.0231, -0.000976562, -0.000976562, 0, -0.0810547, 0.288086, -9.75, 1.18.2022 20:51:57.535
701, 1.69652, 0.381122, 90.0231, 0, -0.000976562, 0, -0.0898438, 0.296875, -9.70996, 1.18.2022 20:51:57.543
702, 1.69652, 0.381122, 90.0231, -0.000976562, 0, 0, -0.03125, 0.248047, -9.7666, 1.18.2022 20:51:57.551
703, 1.69652, 0.381122, 90.0231, -0.000976562, 0, -0.000976562, -0.103516, 0.323242, -9.69727, 1.18.2022 20:51:57.559
704, 1.69652, 0.381122, 90.0231, -0.000976562, -0.000976562, 0, -0.0449219, 0.268555, -9.71582, 1.18.2022 20:51:57.567
705, 1.69652, 0.381122, 90.0231, 0, 0, 0, -0.0302734, 0.273438, -9.7373, 1.18.2022 20:51:57.575
706, 1.69652, 0.381122, 90.0231, -0.000976562, -0.000976562, 0, -0.116211, 0.314453, -9.73438, 1.18.2022 20:51:57.583
707, 1.69652, 0.381122, 90.0231, -0.000976562, -0.000976562, 0, -0.0185547, 0.273438, -9.72363, 1.18.2022 20:51:57.591
708, 1.69652, 0.381122, 90.0231, -0.000976562, -0.000976562, 0, -0.0859375, 0.298828, -9.78027, 1.18.2022 20:51:57.599
709, 1.69652, 0.381122, 90.0231, -0.000976562, 0, 0, -0.078125, 0.3125, -9.73535, 1.18.2022 20:51:57.607
710, 1.69652, 0.381122, 90.0231, -0.000976562, 0, 0, -0.0175781, 0.282227, -9.77734, 1.18.2022 20:51:57.615
711, 1.69652, 0.381122, 90.0231, -0.00195312, 0, 0, -0.107422, 0.293945, -9.77832, 1.18.2022 20:51:57.623
712, 1.69652, 0.381122, 90.0231, -0.000976562, -0.000976562, 0, -0.0634766, 0.296875, -9.72168, 1.18.2022 20:51:57.631
713, 1.69652, 0.381122, 90.0231, -0.000976562, -0.000976562, 0, -0.0429688, 0.271484, -9.74219, 1.18.2022 20:51:57.639
714, 1.69652, 0.381122, 90.0231, -0.000976562, -0.000976562, 0, -0.102539, 0.286133, -9.74805, 1.18.2022 20:51:57.647
715, 1.69652, 0.381122, 90.0231, -0.000976562, -0.000976562, 0, -0.0517578, 0.287109, -9.71289, 1.18.2022 20:51:57.655
716, 1.69652, 0.381122, 90.0231, 0, 0, 0, -0.0458984, 0.265625, -9.78906, 1.18.2022 20:51:57.663
717, 1.69652, 0.381122, 90.0231, 0, -0.000976562, 0, -0.119141, 0.310547, -9.75586, 1.18.2022 20:51:57.671
718, 1.69652, 0.381122, 90.0231, 0, -0.000976562, 0, -0.0117188, 0.276367, -9.7373, 1.18.2022 20:51:57.679
719, 1.69652, 0.381122, 90.0231, 0, -0.000976562, 0, -0.0927734, 0.275391, -9.72168, 1.18.2022 20:51:57.687
720, 1.69652, 0.381122, 90.0231, 0, 0, 0, -0.0976562, 0.291016, -9.75684, 1.18.2022 20:51:57.695
721, 1.69652, 0.381122, 90.0231, -0.000976562, -0.000976562, 0, -0.0283203, 0.257812, -9.75684, 1.18.2022 20:51:57.703
722, 1.69652, 0.381122, 90.0231, -0.000976562, -0.000976562, 0, -0.138672, 0.310547, -9.75586, 1.18.2022 20:51:57.711
723, 1.69652, 0.381122, 90.0231, 0, -0.000976562, -0.00195312, -0.0380859, 0.299805, -9.73145, 1.18.2022 20:51:57.719
724, 1.69652, 0.381122, 90.0231, -0.000976562, 0, 0, -0.0683594, 0.28125, -9.73145, 1.18.2022 20:51:57.727
725, 1.69652, 0.381122, 90.0231, -0.000976562, -0.000976562, 0, -0.124023, 0.297852, -9.74219, 1.18.2022 20:51:57.735
726, 1.69652, 0.381122, 90.0231, -0.000976562, -0.00195312, 0, -0.0195312, 0.270508, -9.77734, 1.18.2022 20:51:57.743
727, 1.69652, 0.381122, 90.0231, 0, -0.000976562, -0.00195312, -0.0810547, 0.283203, -9.73828, 1.18.2022 20:51:57.751
728, 1.69652, 0.381122, 90.0231, -0.000976562, 0, 0, -0.104492, 0.316406, -9.70898, 1.18.2022 20:51:57.759
729, 1.69652, 0.381122, 90.0231, -0.000976562, 0, 0, -0.0166016, 0.258789, -9.72656, 1.18.2022 20:51:57.767
730, 1.69652, 0.381122, 90.0231, -0.000976562, 0, -0.000976562, -0.135742, 0.357422, -9.72656, 1.18.2022 20:51:57.775
731, 1.69652, 0.381122, 90.0231, 0, -0.000976562, 0.000976562, -0.0478516, 0.301758, -9.78125, 1.18.2022 20:51:57.783
732, 1.69652, 0.381122, 90.0231, 0, 0, 0, -0.0410156, 0.277344, -9.77051, 1.18.2022 20:51:57.791
733, 1.69652, 0.381122, 90.0231, -0.000976562, 0, 0, -0.125977, 0.307617, -9.75098, 1.18.2022 20:51:57.799
734, 1.69652, 0.381122, 90.0231, -0.000976562, -0.000976562, 0, -0.0263672, 0.308594, -9.78809, 1.18.2022 20:51:57.807
735, 1.69652, 0.381122, 90.0231, 0, 0, 0, -0.0546875, 0.28418, -9.76074, 1.18.2022 20:51:57.815
736, 1.69652, 0.381122, 90.0231, 0, -0.000976562, 0, -0.105469, 0.28125, -9.80957, 1.18.2022 20:51:57.823
737, 1.69158, 0.386066, 90.0231, 0, -0.000976562, 0, 0.0126953, 0.258789, -9.72461, 1.18.2022 20:51:57.831
738, 1.69652, 0.391012, 90.0229, -0.000976562, -0.000976562, 0, -0.0927734, 0.286133, -9.75977, 1.18.2022 20:51:57.839
739, 1.69652, 0.391012, 90.0229, -0.000976562, -0.000976562, 0, -0.116211, 0.302734, -9.72852, 1.18.2022 20:51:57.847
740, 1.69652, 0.391012, 90.0229, 0, -0.000976562, 0, -0.0498047, 0.269531, -9.74414, 1.18.2022 20:51:57.855
741, 1.69652, 0.391012, 90.0229, -0.000976562, 0, 0, -0.114258, 0.291016, -9.75391, 1.18.2022 20:51:57.863
742, 1.69652, 0.391012, 90.0229, 0, -0.000976562, 0, -0.0615234, 0.291016, -9.73828, 1.18.2022 20:51:57.869
743, 1.69652, 0.391012, 90.0229, 0, 0, 0, -0.0664062, 0.274414, -9.75098, 1.18.2022 20:51:57.879
744, 1.69652, 0.391012, 90.0229, 0, -0.000976562, 0, -0.0898438, 0.320312, -9.7041, 1.18.2022 20:51:57.885
745, 1.69652, 0.391012, 90.0229, -0.000976562, -0.000976562, 0, -0.00976562, 0.279297, -9.76367, 1.18.2022 20:51:57.893
746, 1.69652, 0.391012, 90.0229, -0.000976562, -0.000976562, 0, -0.109375, 0.283203, -9.74316, 1.18.2022 20:51:57.901
747, 1.69652, 0.391012, 90.0229, 0, -0.000976562, 0, -0.0761719, 0.304688, -9.74512, 1.18.2022 20:51:57.909
748, 1.69652, 0.391012, 90.0229, 0, 0, 0, -0.03125, 0.276367, -9.74707, 1.18.2022 20:51:57.917
749, 1.69652, 0.391012, 90.0229, -0.000976562, 0, 0, -0.0878906, 0.316406, -9.73242, 1.18.2022 20:51:57.925
750, 1.69652, 0.391012, 90.0229, -0.000976562, -0.000976562, 0, -0.0419922, 0.311523, -9.72461, 1.18.2022 20:51:57.933
751, 1.69652, 0.391012, 90.0229, -0.000976562, 0, 0.000976562, -0.0664062, 0.275391, -9.71973, 1.18.2022 20:51:57.941
752, 1.69652, 0.391012, 90.0229, -0.000976562, 0, 0, -0.104492, 0.31543, -9.75391, 1.18.2022 20:51:57.949
753, 1.69652, 0.391012, 90.0229, 0, -0.000976562, 0.000976562, -0.00488281, 0.268555, -9.7334, 1.18.2022 20:51:57.957
754, 1.69676, 0.390922, 90.0229, 0, -0.000976562, 0, -0.0810547, 0.308594, -9.7832, 1.18.2022 20:51:57.965
755, 1.69676, 0.390922, 90.0229, -0.000976562, -0.000976562, 0, -0.112305, 0.307617, -9.75391, 1.18.2022 20:51:57.973
756, 1.69676, 0.390922, 90.0229, -0.000976562, -0.000976562, 0, -0.0166016, 0.259766, -9.74512, 1.18.2022 20:51:57.981
757, 1.69676, 0.390922, 90.0229, -0.000976562, -0.000976562, 0, -0.0898438, 0.3125, -9.7373, 1.18.2022 20:51:57.989
758, 1.69676, 0.390922, 90.0229, 0, -0.000976562, 0, -0.0517578, 0.291016, -9.73926, 1.18.2022 20:51:57.997
759, 1.69676, 0.390922, 90.0229, -0.000976562, -0.000976562, 0, -0.0810547, 0.299805, -9.7334, 1.18.2022 20:51:58.005
760, 1.7017, 0.395867, 90.0227, -0.000976562, -0.000976562, 0, -0.137695, 0.30957, -9.71582, 1.18.2022 20:51:58.013
761, 1.7017, 0.395867, 90.0227, -0.000976562, -0.000976562, -0.000976562, -0.0302734, 0.296875, -9.72461, 1.18.2022 20:51:58.021
762, 1.7017, 0.395867, 90.0227, 0, -0.000976562, -0.000976562, -0.0898438, 0.293945, -9.7002, 1.18.2022 20:51:58.029
763, 1.7017, 0.395867, 90.0227, -0.000976562, 0, -0.000976562, -0.0878906, 0.291992, -9.70801, 1.18.2022 20:51:58.037
764, 1.7017, 0.395867, 90.0227, -0.000976562, 0, -0.000976562, -0.0302734, 0.258789, -9.72559, 1.18.2022 20:51:58.045
765, 1.7017, 0.395867, 90.0227, -0.000976562, 0, -0.000976562, -0.129883, 0.263672, -9.70508, 1.18.2022 20:51:58.053
766, 1.7017, 0.395867, 90.0227, -0.000976562, -0.000976562, -0.000976562, -0.0976562, 0.27832, -9.72461, 1.18.2022 20:51:58.061
767, 1.7017, 0.395867, 90.0227, -0.000976562, 0, -0.000976562, -0.0478516, 0.28418, -9.76074, 1.18.2022 20:51:58.069
768, 1.7017, 0.395867, 90.0227, 0, 0, -0.000976562, -0.100586, 0.291992, -9.77539, 1.18.2022 20:51:58.077
769, 1.7017, 0.395867, 90.0227, -0.000976562, -0.000976562, -0.000976562, -0.0400391, 0.271484, -9.73047, 1.18.2022 20:51:58.085
770, 1.70146, 0.395958, 90.0227, -0.000976562, 0, -0.00195312, -0.0810547, 0.258789, -9.72949, 1.18.2022 20:51:58.093
771, 1.70146, 0.395958, 90.0227, -0.000976562, -0.000976562, -0.000976562, -0.0947266, 0.292969, -9.74023, 1.18.2022 20:51:58.101
772, 1.70641, 0.391014, 90.0227, -0.00195312, 0, -0.000976562, -0.0166016, 0.299805, -9.73633, 1.18.2022 20:51:58.109
773, 1.71135, 0.39596, 90.0225, -0.000976562, -0.000976562, -0.000976562, -0.0996094, 0.301758, -9.69727, 1.18.2022 20:51:58.117
774, 1.7064, 0.400904, 90.0225, 0, -0.000976562, -0.00195312, -0.0898438, 0.311523, -9.72559, 1.18.2022 20:51:58.125
775, 1.7064, 0.400904, 90.0225, -0.000976562, -0.000976562, -0.000976562, -0.0117188, 0.276367, -9.74512, 1.18.2022 20:51:58.133
776, 1.7064, 0.400904, 90.0225, 0, -0.000976562, -0.000976562, -0.112305, 0.275391, -9.78125, 1.18.2022 20:51:58.141
777, 1.7064, 0.400904, 90.0225, -0.000976562, -0.000976562, -0.000976562, -0.046875, 0.285156, -9.71777, 1.18.2022 20:51:58.149
778, 1.7064, 0.400904, 90.0225, -0.000976562, -0.000976562, -0.000976562, -0.0527344, 0.264648, -9.74414, 1.18.2022 20:51:58.157
779, 1.7064, 0.400904, 90.0225, -0.000976562, -0.000976562, -0.000976562, -0.137695, 0.291016, -9.73535, 1.18.2022 20:51:58.165
780, 1.7064, 0.400904, 90.0225, 0, 0, -0.000976562, -0.0214844, 0.276367, -9.73242, 1.18.2022 20:51:58.173
781, 1.7064, 0.400904, 90.0225, -0.00195312, 0, -0.000976562, -0.0771484, 0.272461, -9.68945, 1.18.2022 20:51:58.181
782, 1.7064, 0.400904, 90.0225, -0.000976562, -0.000976562, -0.000976562, -0.0693359, 0.329102, -9.75391, 1.18.2022 20:51:58.189
783, 1.7064, 0.400904, 90.0225, -0.000976562, -0.000976562, -0.000976562, 0.00488281, 0.276367, -9.74219, 1.18.2022 20:51:58.197
784, 1.7064, 0.400904, 90.0225, -0.000976562, 0, -0.000976562, -0.0878906, 0.283203, -9.74121, 1.18.2022 20:51:58.205
785, 1.7064, 0.400904, 90.0225, 0, 0, -0.000976562, -0.0615234, 0.264648, -9.74219, 1.18.2022 20:51:58.213
786, 1.7064, 0.400904, 90.0225, -0.000976562, 0, -0.000976562, -0.0498047, 0.251953, -9.72363, 1.18.2022 20:51:58.221
787, 1.7064, 0.400904, 90.0225, -0.000976562, -0.000976562, 0.000976562, -0.110352, 0.280273, -9.77832, 1.18.2022 20:51:58.229
788, 1.7064, 0.400904, 90.0225, 0, -0.000976562, -0.000976562, -0.0136719, 0.294922, -9.73242, 1.18.2022 20:51:58.237
789, 1.7064, 0.400904, 90.0225, -0.000976562, -0.000976562, -0.000976562, -0.0429688, 0.251953, -9.7334, 1.18.2022 20:51:58.245
790, 1.7064, 0.400904, 90.0225, -0.000976562, 0, -0.000976562, -0.0947266, 0.319336, -9.73047, 1.18.2022 20:51:58.253
791, 1.7064, 0.400904, 90.0225, -0.000976562, -0.000976562, -0.000976562, -0.0234375, 0.280273, -9.73242, 1.18.2022 20:51:58.261
792, 1.7064, 0.400904, 90.0225, 0, -0.000976562, -0.000976562, -0.0996094, 0.285156, -9.72363, 1.18.2022 20:51:58.269
793, 1.7064, 0.400904, 90.0225, 0, -0.000976562, 0, -0.0546875, 0.297852, -9.74316, 1.18.2022 20:51:58.277
794, 1.7064, 0.400904, 90.0225, 0, -0.000976562, 0.000976562, -0.046875, 0.271484, -9.73047, 1.18.2022 20:51:58.285
795, 1.7064, 0.400904, 90.0225, 0, 0, 0.000976562, -0.123047, 0.316406, -9.70605, 1.18.2022 20:51:58.293
796, 1.70146, 0.395958, 90.0227, -0.000976562, 0, 0, -0.0595703, 0.299805, -9.74316, 1.18.2022 20:51:58.301
797, 1.70146, 0.395958, 90.0227, 0, -0.000976562, -0.00195312, -0.0517578, 0.264648, -9.7373, 1.18.2022 20:51:58.309
798, 1.70146, 0.395958, 90.0227, -0.000976562, -0.000976562, 0, -0.105469, 0.31543, -9.78027, 1.18.2022 20:51:58.317
799, 1.70146, 0.395958, 90.0227, -0.000976562, 0, 0, -0.0302734, 0.285156, -9.72949, 1.18.2022 20:51:58.325
800, 1.70146, 0.395958, 90.0227, -0.000976562, -0.000976562, 0, -0.0810547, 0.280273, -9.72461, 1.18.2022 20:51:58.333
801, 1.70146, 0.395958, 90.0227, -0.000976562, -0.000976562, 0, -0.0810547, 0.279297, -9.74805, 1.18.2022 20:51:58.341
802, 1.70146, 0.395958, 90.0227, -0.000976562, 0, 0, -0.0332031, 0.271484, -9.75586, 1.18.2022 20:51:58.349
803, 1.70146, 0.395958, 90.0227, -0.000976562, -0.000976562, 0, -0.0898438, 0.326172, -9.73242, 1.18.2022 20:51:58.357
804, 1.70146, 0.395958, 90.0227, -0.000976562, -0.000976562, 0, -0.0361328, 0.289062, -9.75586, 1.18.2022 20:51:58.365
805, 1.70146, 0.395958, 90.0227, -0.000976562, 0, -0.00195312, -0.0410156, 0.28418, -9.76562, 1.18.2022 20:51:58.373
806, 1.70146, 0.395958, 90.0227, 0, -0.000976562, 0, -0.107422, 0.332031, -9.76758, 1.18.2022 20:51:58.381
807, 1.70146, 0.395958, 90.0227, 0, -0.000976562, 0, -0.0644531, 0.286133, -9.74121, 1.18.2022 20:51:58.389
808, 1.70146, 0.395958, 90.0227, 0, 0, 0.000976562, -0.0810547, 0.277344, -9.76758, 1.18.2022 20:51:58.397
809, 1.70146, 0.395958, 90.0227, 0, 0, 0, -0.0878906, 0.3125, -9.74902, 1.18.2022 20:51:58.405
810, 1.69652, 0.391012, 90.0229, 0, 0, 0, -0.0380859, 0.240234, -9.74805, 1.18.2022 20:51:58.413
811, 1.69652, 0.391012, 90.0229, 0, -0.000976562, 0, -0.121094, 0.286133, -9.75, 1.18.2022 20:51:58.421
812, 1.69652, 0.391012, 90.0229, -0.000976562, -0.000976562, -0.00195312, -0.0644531, 0.297852, -9.73633, 1.18.2022 20:51:58.429
813, 1.69652, 0.391012, 90.0229, -0.000976562, 0, 0, -0.046875, 0.306641, -9.70312, 1.18.2022 20:51:58.437
814, 1.69652, 0.391012, 90.0229, -0.000976562, 0, 0, -0.108398, 0.308594, -9.69238, 1.18.2022 20:51:58.445
815, 1.69652, 0.391012, 90.0229, -0.000976562, -0.000976562, 0.000976562, -0.03125, 0.235352, -9.74805, 1.18.2022 20:51:58.453
816, 1.69652, 0.391012, 90.0229, -0.000976562, -0.000976562, 0, -0.0527344, 0.25293, -9.76367, 1.18.2022 20:51:58.461
817, 1.69652, 0.391012, 90.0229, -0.000976562, -0.000976562, 0, -0.0947266, 0.286133, -9.74023, 1.18.2022 20:51:58.469
818, 1.69652, 0.391012, 90.0229, -0.000976562, -0.000976562, 0, 0.0126953, 0.277344, -9.70996, 1.18.2022 20:51:58.477
819, 1.69652, 0.391012, 90.0229, -0.000976562, -0.00195312, -0.000976562, -0.116211, 0.302734, -9.74414, 1.18.2022 20:51:58.485
820, 1.69652, 0.391012, 90.0229, -0.000976562, -0.000976562, 0, -0.0693359, 0.300781, -9.77344, 1.18.2022 20:51:58.493
821, 1.69652, 0.391012, 90.0229, -0.00195312, -0.00195312, -0.000976562, -0.0478516, 0.255859, -9.76367, 1.18.2022 20:51:58.501
822, 1.69652, 0.391012, 90.0229, -0.000976562, -0.000976562, 0, -0.117188, 0.295898, -9.76172, 1.18.2022 20:51:58.509
823, 1.69652, 0.391012, 90.0229, -0.000976562, -0.000976562, 0, -0.03125, 0.270508, -9.78711, 1.18.2022 20:51:58.517
824, 1.69652, 0.391012, 90.0229, -0.000976562, -0.000976562, 0, -0.0214844, 0.264648, -9.76562, 1.18.2022 20:51:58.525
825, 1.69157, 0.395956, 90.0229, -0.000976562, -0.00195312, -0.00195312, -0.0996094, 0.321289, -9.70898, 1.18.2022 20:51:58.533
826, 1.69157, 0.395956, 90.0229, 0, -0.000976562, -0.000976562, 0.00976562, 0.297852, -9.7373, 1.18.2022 20:51:58.541
827, 1.69157, 0.395956, 90.0229, -0.000976562, -0.000976562, -0.000976562, -0.0947266, 0.283203, -9.73828, 1.18.2022 20:51:58.549
828, 1.69157, 0.395956, 90.0229, -0.000976562, -0.000976562, -0.000976562, -0.0527344, 0.300781, -9.74805, 1.18.2022 20:51:58.557
829, 1.69157, 0.395956, 90.0229, 0, -0.000976562, -0.000976562, 0.000976562, 0.260742, -9.71191, 1.18.2022 20:51:58.565
830, 1.69157, 0.395956, 90.0229, -0.000976562, -0.000976562, -0.000976562, -0.105469, 0.282227, -9.77637, 1.18.2022 20:51:58.573
831, 1.69157, 0.395956, 90.0229, 0, 0, 0, -0.0546875, 0.317383, -9.75, 1.18.2022 20:51:58.581
832, 1.69157, 0.395956, 90.0229, 0, 0, 0, -0.0527344, 0.28418, -9.77441, 1.18.2022 20:51:58.589
833, 1.69652, 0.391012, 90.0229, -0.000976562, 0, 0.000976562, -0.12793, 0.328125, -9.70605, 1.18.2022 20:51:58.597
834, 1.69652, 0.391012, 90.0229, -0.000976562, 0, 0.000976562, -0.0283203, 0.276367, -9.73242, 1.18.2022 20:51:58.605
835, 1.69676, 0.390922, 90.0229, -0.000976562, -0.000976562, -0.000976562, -0.0576172, 0.254883, -9.75391, 1.18.2022 20:51:58.613
836, 1.69676, 0.390922, 90.0229, -0.000976562, -0.000976562, -0.000976562, -0.0888672, 0.282227, -9.77832, 1.18.2022 20:51:58.621
837, 1.69676, 0.390922, 90.0229, -0.000976562, 0, 0, -0.0117188, 0.304688, -9.74121, 1.18.2022 20:51:58.629
838, 1.69181, 0.385976, 90.0231, -0.000976562, -0.000976562, -0.000976562, -0.130859, 0.327148, -9.75977, 1.18.2022 20:51:58.637
839, 1.69181, 0.385976, 90.0231, -0.000976562, -0.000976562, 0.000976562, -0.0947266, 0.331055, -9.72949, 1.18.2022 20:51:58.645
840, 1.69181, 0.385976, 90.0231, 0, 0, 0.000976562, -0.0351562, 0.273438, -9.73926, 1.18.2022 20:51:58.653
841, 1.69181, 0.385976, 90.0231, 0, -0.000976562, -0.000976562, -0.109375, 0.299805, -9.7373, 1.18.2022 20:51:58.661
842, 1.69181, 0.385976, 90.0231, 0, -0.000976562, -0.000976562, -0.0664062, 0.269531, -9.74902, 1.18.2022 20:51:58.669
843, 1.69181, 0.385976, 90.0231, 0, -0.000976562, -0.00195312, -0.0615234, 0.323242, -9.71387, 1.18.2022 20:51:58.677
844, 1.69181, 0.385976, 90.0231, 0, -0.000976562, -0.00195312, -0.0996094, 0.302734, -9.73047, 1.18.2022 20:51:58.685
845, 1.69181, 0.385976, 90.0231, 0, -0.000976562, 0.000976562, -0.015625, 0.268555, -9.7168, 1.18.2022 20:51:58.693
846, 1.69181, 0.385976, 90.0231, -0.000976562, -0.000976562, 0.000976562, -0.0996094, 0.291016, -9.75, 1.18.2022 20:51:58.701
847, 1.69181, 0.385976, 90.0231, 0, -0.000976562, -0.000976562, -0.0615234, 0.256836, -9.7373, 1.18.2022 20:51:58.709
848, 1.69181, 0.385976, 90.0231, 0, -0.000976562, -0.000976562, -0.0449219, 0.25, -9.74023, 1.18.2022 20:51:58.717
849, 1.69181, 0.385976, 90.0231, -0.000976562, -0.000976562, -0.000976562, -0.121094, 0.304688, -9.72559, 1.18.2022 20:51:58.725
850, 1.69181, 0.385976, 90.0231, -0.000976562, -0.000976562, -0.00195312, -0.0546875, 0.307617, -9.75488, 1.18.2022 20:51:58.733
851, 1.69181, 0.385976, 90.0231, -0.000976562, 0, 0, -0.0664062, 0.27832, -9.72949, 1.18.2022 20:51:58.741
852, 1.69181, 0.385976, 90.0231, -0.000976562, 0, 0, -0.0976562, 0.304688, -9.72168, 1.18.2022 20:51:58.749
853, 1.69181, 0.385976, 90.0231, 0, 0, 0, -0.0214844, 0.259766, -9.75, 1.18.2022 20:51:58.757
854, 1.69181, 0.385976, 90.0231, -0.000976562, 0, 0, -0.124023, 0.258789, -9.72656, 1.18.2022 20:51:58.765
855, 1.69181, 0.385976, 90.0231, -0.000976562, -0.000976562, -0.00195312, -0.0976562, 0.299805, -9.72363, 1.18.2022 20:51:58.773
856, 1.69158, 0.386066, 90.0231, -0.000976562, 0, -0.00195312, -0.0400391, 0.295898, -9.74805, 1.18.2022 20:51:58.781
857, 1.69158, 0.386066, 90.0231, -0.000976562, 0, -0.00195312, -0.123047, 0.301758, -9.71875, 1.18.2022 20:51:58.789
858, 1.69158, 0.386066, 90.0231, -0.000976562, -0.00195312, -0.000976562, -0.0810547, 0.283203, -9.72656, 1.18.2022 20:51:58.797
859, 1.69158, 0.386066, 90.0231, 0, -0.000976562, -0.00195312, -0.0644531, 0.269531, -9.76074, 1.18.2022 20:51:58.805
860, 1.69158, 0.386066, 90.0231, -0.000976562, 0, 0, -0.100586, 0.298828, -9.76172, 1.18.2022 20:51:58.813
861, 1.69158, 0.386066, 90.0231, -0.000976562, 0, 0, -0.0146484, 0.264648, -9.75879, 1.18.2022 20:51:58.821
862, 1.69158, 0.386066, 90.0231, -0.000976562, 0, 0, -0.0957031, 0.320312, -9.76562, 1.18.2022 20:51:58.829
863, 1.69652, 0.391012, 90.0229, -0.000976562, 0, -0.00195312, -0.0712891, 0.297852, -9.72852, 1.18.2022 20:51:58.837
864, 1.69652, 0.391012, 90.0229, -0.000976562, -0.000976562, -0.000976562, -0.015625, 0.303711, -9.70605, 1.18.2022 20:51:58.845
865, 1.69652, 0.391012, 90.0229, -0.000976562, -0.000976562, -0.000976562, -0.121094, 0.293945, -9.75195, 1.18.2022 20:51:58.851
866, 1.69652, 0.391012, 90.0229, -0.000976562, -0.000976562, -0.000976562, -0.0742188, 0.257812, -9.77246, 1.18.2022 20:51:58.859
867, 1.69652, 0.391012, 90.0229, 0, 0, 0, -0.0292969, 0.259766, -9.68066, 1.18.2022 20:51:58.867
868, 1.69652, 0.391012, 90.0229, 0, -0.000976562, -0.000976562, -0.125977, 0.283203, -9.72363, 1.18.2022 20:51:58.875
869, 1.69652, 0.391012, 90.0229, -0.000976562, 0, 0, -0.0351562, 0.28125, -9.74414, 1.18.2022 20:51:58.883
870, 1.69652, 0.391012, 90.0229, -0.000976562, -0.000976562, 0.000976562, -0.0947266, 0.304688, -9.74023, 1.18.2022 20:51:58.891
871, 1.69652, 0.391012, 90.0229, 0, 0, 0, -0.0927734, 0.319336, -9.74414, 1.18.2022 20:51:58.899
872, 1.69652, 0.391012, 90.0229, -0.000976562, 0, 0.000976562, -0.00195312, 0.268555, -9.72363, 1.18.2022 20:51:58.907
873, 1.69652, 0.391012, 90.0229, 0, -0.000976562, -0.000976562, -0.0996094, 0.290039, -9.70508, 1.18.2022 20:51:58.915
874, 1.69652, 0.391012, 90.0229, 0, -0.000976562, -0.000976562, -0.0976562, 0.291992, -9.77148, 1.18.2022 20:51:58.923
875, 1.69652, 0.391012, 90.0229, 0, -0.000976562, -0.00195312, -0.0380859, 0.271484, -9.74707, 1.18.2022 20:51:58.931
876, 1.69652, 0.391012, 90.0229, -0.000976562, -0.000976562, 0.000976562, -0.135742, 0.298828, -9.75586, 1.18.2022 20:51:58.939
877, 1.69652, 0.391012, 90.0229, -0.000976562, 0, 0.000976562, -0.0429688, 0.305664, -9.75293, 1.18.2022 20:51:58.947
878, 1.69652, 0.391012, 90.0229, -0.00195312, 0, 0.000976562, -0.0429688, 0.25293, -9.76367, 1.18.2022 20:51:58.955
879, 1.69676, 0.390922, 90.0229, -0.000976562, 0, 0.000976562, -0.106445, 0.294922, -9.72363, 1.18.2022 20:51:58.963
880, 1.69676, 0.390922, 90.0229, -0.000976562, -0.000976562, -0.000976562, -0.0117188, 0.243164, -9.75488, 1.18.2022 20:51:58.971
881, 1.7017, 0.395867, 90.0227, -0.000976562, -0.000976562, -0.00195312, -0.104492, 0.302734, -9.7334, 1.18.2022 20:51:58.979
882, 1.7017, 0.395867, 90.0227, -0.000976562, -0.000976562, -0.000976562, -0.112305, 0.327148, -9.74902, 1.18.2022 20:51:58.987
883, 1.69675, 0.400811, 90.0227, -0.000976562, -0.000976562, -0.000976562, -0.0332031, 0.288086, -9.72461, 1.18.2022 20:51:58.995
884, 1.69675, 0.400811, 90.0227, 0, 0, 0, -0.124023, 0.297852, -9.73047, 1.18.2022 20:51:59.003
885, 1.69675, 0.400811, 90.0227, -0.000976562, -0.000976562, 0.000976562, -0.0527344, 0.271484, -9.75391, 1.18.2022 20:51:59.011
886, 1.69675, 0.400811, 90.0227, -0.000976562, -0.000976562, 0.000976562, -0.0664062, 0.269531, -9.73926, 1.18.2022 20:51:59.019
887, 1.69675, 0.400811, 90.0227, -0.000976562, -0.000976562, -0.000976562, -0.147461, 0.270508, -9.70508, 1.18.2022 20:51:59.027
888, 1.69675, 0.400811, 90.0227, -0.000976562, -0.000976562, -0.00195312, -0.0185547, 0.260742, -9.71191, 1.18.2022 20:51:59.035
889, 1.69675, 0.400811, 90.0227, 0, 0, -0.000976562, -0.0683594, 0.304688, -9.72168, 1.18.2022 20:51:59.043
890, 1.69675, 0.400811, 90.0227, -0.000976562, 0, -0.000976562, -0.121094, 0.302734, -9.74707, 1.18.2022 20:51:59.051
891, 1.69675, 0.400811, 90.0227, -0.000976562, -0.000976562, 0, -0.00195312, 0.304688, -9.72949, 1.18.2022 20:51:59.059
892, 1.69675, 0.400811, 90.0227, -0.000976562, 0, -0.000976562, -0.102539, 0.277344, -9.76953, 1.18.2022 20:51:59.067
893, 1.69675, 0.400811, 90.0227, -0.000976562, 0, -0.000976562, -0.0751953, 0.301758, -9.71484, 1.18.2022 20:51:59.075
894, 1.69675, 0.400811, 90.0227, -0.000976562, 0, -0.000976562, -0.0322266, 0.268555, -9.71191, 1.18.2022 20:51:59.083
895, 1.69675, 0.400811, 90.0227, -0.000976562, 0, -0.000976562, -0.146484, 0.296875, -9.79199, 1.18.2022 20:51:59.091
896, 1.69675, 0.400811, 90.0227, -0.000976562, 0, -0.000976562, -0.0253906, 0.285156, -9.72266, 1.18.2022 20:51:59.099
897, 1.69675, 0.400811, 90.0227, -0.000976562, -0.000976562, -0.000976562, -0.0556641, 0.270508, -9.7793, 1.18.2022 20:51:59.107
898, 1.69675, 0.400811, 90.0227, -0.000976562, 0, -0.000976562, -0.102539, 0.30957, -9.73047, 1.18.2022 20:51:59.115
899, 1.69675, 0.400811, 90.0227, 0, 0, -0.00195312, -0.0185547, 0.263672, -9.7334, 1.18.2022 20:51:59.123
900, 1.69652, 0.400902, 90.0227, 0, 0, -0.000976562, -0.0986328, 0.305664, -9.69531, 1.18.2022 20:51:59.131
901, 1.69652, 0.400902, 90.0227, -0.000976562, -0.00195312, -0.000976562, -0.0996094, 0.318359, -9.7207, 1.18.2022 20:51:59.139
902, 1.69181, 0.405755, 90.0227, -0.000976562, -0.000976562, 0, -0.0185547, 0.277344, -9.69531, 1.18.2022 20:51:59.147
903, 1.69675, 0.410701, 90.0225, 0, -0.000976562, -0.000976562, -0.118164, 0.294922, -9.71875, 1.18.2022 20:51:59.155
904, 1.69675, 0.410701, 90.0225, 0, -0.000976562, -0.000976562, -0.0498047, 0.280273, -9.7207, 1.18.2022 20:51:59.163
905, 1.69675, 0.410701, 90.0225, 0, -0.000976562, 0, -0.0478516, 0.289062, -9.77246, 1.18.2022 20:51:59.171
906, 1.69675, 0.410701, 90.0225, 0, -0.000976562, -0.000976562, -0.0830078, 0.292969, -9.72461, 1.18.2022 20:51:59.179
907, 1.69675, 0.410701, 90.0225, -0.000976562, -0.000976562, -0.000976562, 0, 0.276367, -9.74023, 1.18.2022 20:51:59.187
908, 1.69675, 0.410701, 90.0225, -0.000976562, 0, -0.000976562, -0.0712891, 0.276367, -9.72754, 1.18.2022 20:51:59.195
909, 1.69675, 0.410701, 90.0225, -0.000976562, -0.000976562, -0.000976562, -0.078125, 0.299805, -9.72656, 1.18.2022 20:51:59.203
910, 1.69675, 0.410701, 90.0225, 0, 0, -0.000976562, -0.0400391, 0.288086, -9.73242, 1.18.2022 20:51:59.211
911, 1.69675, 0.410701, 90.0225, -0.000976562, 0, -0.000976562, -0.107422, 0.289062, -9.76172, 1.18.2022 20:51:59.219
912, 1.69675, 0.410701, 90.0225, -0.000976562, -0.000976562, -0.00195312, -0.046875, 0.283203, -9.72754, 1.18.2022 20:51:59.227
913, 1.69651, 0.410792, 90.0225, 0, -0.000976562, -0.000976562, -0.0595703, 0.274414, -9.75293, 1.18.2022 20:51:59.235
914, 1.69651, 0.410792, 90.0225, -0.000976562, -0.000976562, -0.000976562, -0.116211, 0.311523, -9.71094, 1.18.2022 20:51:59.243
915, 1.69651, 0.410792, 90.0225, -0.000976562, -0.000976562, -0.000976562, -0.0400391, 0.261719, -9.7373, 1.18.2022 20:51:59.251
916, 1.69651, 0.410792, 90.0225, -0.000976562, -0.000976562, -0.000976562, -0.0673828, 0.294922, -9.79297, 1.18.2022 20:51:59.259
917, 1.69651, 0.410792, 90.0225, -0.000976562, -0.000976562, -0.000976562, -0.107422, 0.31543, -9.76074, 1.18.2022 20:51:59.267
918, 1.69651, 0.410792, 90.0225, -0.000976562, -0.000976562, -0.000976562, -0.0234375, 0.267578, -9.75684, 1.18.2022 20:51:59.275
919, 1.69651, 0.410792, 90.0225, 0, 0, -0.000976562, -0.104492, 0.288086, -9.74023, 1.18.2022 20:51:59.283
920, 1.69651, 0.410792, 90.0225, 0, -0.000976562, 0, -0.0527344, 0.291992, -9.77441, 1.18.2022 20:51:59.291
921, 1.69675, 0.410701, 90.0225, 0, -0.000976562, 0, -0.0517578, 0.260742, -9.69922, 1.18.2022 20:51:59.299
922, 1.69675, 0.410701, 90.0225, -0.000976562, -0.000976562, 0, -0.129883, 0.326172, -9.71094, 1.18.2022 20:51:59.307
923, 1.69675, 0.410701, 90.0225, 0, 0, -0.000976562, -0.0205078, 0.28418, -9.70215, 1.18.2022 20:51:59.315
924, 1.69181, 0.405755, 90.0227, -0.000976562, -0.000976562, -0.000976562, -0.046875, 0.280273, -9.69922, 1.18.2022 20:51:59.323
925, 1.69181, 0.405755, 90.0227, 0, -0.000976562, -0.000976562, -0.0908203, 0.286133, -9.76172, 1.18.2022 20:51:59.331
926, 1.69181, 0.405755, 90.0227, 0, -0.000976562, -0.000976562, -0.0166016, 0.25293, -9.75684, 1.18.2022 20:51:59.339
927, 1.69181, 0.405755, 90.0227, 0, 0, -0.000976562, -0.0664062, 0.290039, -9.72168, 1.18.2022 20:51:59.347
928, 1.69181, 0.405755, 90.0227, -0.000976562, 0, -0.000976562, -0.0898438, 0.311523, -9.71875, 1.18.2022 20:51:59.355
929, 1.69181, 0.405755, 90.0227, 0, -0.000976562, -0.000976562, -0.0429688, 0.256836, -9.74023, 1.18.2022 20:51:59.363
930, 1.69181, 0.405755, 90.0227, 0, -0.000976562, -0.000976562, -0.135742, 0.3125, -9.75781, 1.18.2022 20:51:59.371
931, 1.69181, 0.405755, 90.0227, 0, 0, -0.000976562, -0.0625, 0.290039, -9.78809, 1.18.2022 20:51:59.379
932, 1.69181, 0.405755, 90.0227, 0, 0, 0.000976562, -0.0693359, 0.276367, -9.74805, 1.18.2022 20:51:59.387
933, 1.69181, 0.405755, 90.0227, -0.000976562, 0, -0.000976562, -0.141602, 0.275391, -9.80176, 1.18.2022 20:51:59.395
934, 1.69181, 0.405755, 90.0227, -0.000976562, 0, -0.00195312, -0.0166016, 0.261719, -9.73535, 1.18.2022 20:51:59.403
935, 1.69181, 0.405755, 90.0227, -0.000976562, -0.000976562, -0.000976562, -0.0859375, 0.276367, -9.75098, 1.18.2022 20:51:59.411
936, 1.69181, 0.405755, 90.0227, 0, 0, -0.000976562, -0.0761719, 0.329102, -9.74902, 1.18.2022 20:51:59.419
937, 1.69181, 0.405755, 90.0227, -0.000976562, -0.000976562, -0.000976562, -0.00976562, 0.274414, -9.75391, 1.18.2022 20:51:59.427
938, 1.69181, 0.405755, 90.0227, -0.000976562, -0.000976562, 0, -0.119141, 0.291016, -9.73535, 1.18.2022 20:51:59.435
939, 1.69181, 0.405755, 90.0227, -0.000976562, -0.000976562, 0, -0.0634766, 0.324219, -9.7334, 1.18.2022 20:51:59.443
940, 1.69181, 0.405755, 90.0227, 0, 0, -0.000976562, -0.0400391, 0.254883, -9.73535, 1.18.2022 20:51:59.451
941, 1.69181, 0.405755, 90.0227, -0.000976562, -0.000976562, -0.000976562, -0.0878906, 0.297852, -9.72656, 1.18.2022 20:51:59.459
942, 1.69181, 0.405755, 90.0227, -0.000976562, -0.000976562, -0.000976562, -0.0166016, 0.25, -9.75195, 1.18.2022 20:51:59.467
943, 1.69181, 0.405755, 90.0227, -0.000976562, -0.000976562, -0.000976562, -0.0800781, 0.270508, -9.70801, 1.18.2022 20:51:59.475
944, 1.69181, 0.405755, 90.0227, -0.000976562, 0, -0.000976562, -0.108398, 0.303711, -9.70898, 1.18.2022 20:51:59.483
945, 1.69181, 0.405755, 90.0227, -0.000976562, -0.000976562, 0, -0.0380859, 0.259766, -9.76562, 1.18.2022 20:51:59.491
946, 1.69181, 0.405755, 90.0227, -0.000976562, -0.000976562, 0, -0.104492, 0.271484, -9.74121, 1.18.2022 20:51:59.499
947, 1.69181, 0.405755, 90.0227, -0.000976562, -0.000976562, -0.00195312, -0.0478516, 0.277344, -9.76562, 1.18.2022 20:51:59.507
948, 1.69181, 0.405755, 90.0227, 0, -0.000976562, -0.00195312, -0.0117188, 0.28125, -9.73535, 1.18.2022 20:51:59.515
949, 1.69181, 0.405755, 90.0227, 0, -0.000976562, -0.00195312, -0.0771484, 0.301758, -9.79492, 1.18.2022 20:51:59.523
950, 1.69157, 0.405846, 90.0227, 0, -0.000976562, -0.000976562, -0.0498047, 0.291992, -9.71777, 1.18.2022 20:51:59.531
951, 1.68663, 0.4009, 90.0229, -0.000976562, -0.000976562, -0.000976562, -0.0664062, 0.292969, -9.74121, 1.18.2022 20:51:59.539
952, 1.68663, 0.4009, 90.0229, 0, 0, -0.000976562, -0.107422, 0.28418, -9.75195, 1.18.2022 20:51:59.547
953, 1.68663, 0.4009, 90.0229, -0.000976562, -0.000976562, -0.000976562, -0.0214844, 0.254883, -9.7334, 1.18.2022 20:51:59.555
954, 1.68663, 0.4009, 90.0229, -0.00195312, -0.00195312, -0.000976562, -0.12793, 0.307617, -9.73242, 1.18.2022 20:51:59.563
955, 1.68663, 0.4009, 90.0229, -0.000976562, 0, -0.00195312, -0.0927734, 0.292969, -9.74512, 1.18.2022 20:51:59.571
956, 1.68663, 0.4009, 90.0229, -0.000976562, 0, -0.000976562, -0.0263672, 0.295898, -9.7627, 1.18.2022 20:51:59.579
957, 1.68663, 0.4009, 90.0229, 0, -0.000976562, -0.000976562, -0.143555, 0.322266, -9.75977, 1.18.2022 20:51:59.587
958, 1.68663, 0.4009, 90.0229, 0, -0.00195312, -0.000976562, -0.0654297, 0.280273, -9.70117, 1.18.2022 20:51:59.595
959, 1.68663, 0.4009, 90.0229, -0.000976562, -0.000976562, -0.00195312, -0.0380859, 0.266602, -9.72754, 1.18.2022 20:51:59.603
960, 1.68663, 0.4009, 90.0229, -0.000976562, 0, -0.000976562, -0.125977, 0.271484, -9.7334, 1.18.2022 20:51:59.611
961, 1.68663, 0.4009, 90.0229, -0.000976562, 0, -0.000976562, -0.0136719, 0.268555, -9.73047, 1.18.2022 20:51:59.619
962, 1.68663, 0.4009, 90.0229, -0.000976562, -0.000976562, -0.00195312, -0.0947266, 0.276367, -9.74316, 1.18.2022 20:51:59.627
963, 1.68663, 0.4009, 90.0229, 0, -0.000976562, -0.000976562, -0.109375, 0.31543, -9.75586, 1.18.2022 20:51:59.635
964, 1.68663, 0.4009, 90.0229, 0, -0.000976562, -0.000976562, 0, 0.27832, -9.73535, 1.18.2022 20:51:59.643
965, 1.68663, 0.4009, 90.0229, -0.000976562, -0.000976562, -0.000976562, -0.104492, 0.297852, -9.72852, 1.18.2022 20:51:59.651
966, 1.68663, 0.4009, 90.0229, -0.000976562, -0.000976562, -0.000976562, -0.0546875, 0.28418, -9.76758, 1.18.2022 20:51:59.659
967, 1.68663, 0.4009, 90.0229, -0.000976562, -0.000976562, -0.000976562, -0.0507812, 0.262695, -9.76562, 1.18.2022 20:51:59.667
968, 1.68663, 0.4009, 90.0229, 0, 0, -0.00195312, -0.12207, 0.267578, -9.75293, 1.18.2022 20:51:59.675
969, 1.68663, 0.4009, 90.0229, 0, -0.000976562, -0.00195312, -0.0380859, 0.268555, -9.73926, 1.18.2022 20:51:59.683
970, 1.68663, 0.4009, 90.0229, 0, -0.00195312, -0.00195312, -0.0810547, 0.305664, -9.75, 1.18.2022 20:51:59.691
971, 1.68663, 0.4009, 90.0229, -0.000976562, -0.000976562, -0.000976562, -0.128906, 0.286133, -9.74219, 1.18.2022 20:51:59.699
972, 1.68663, 0.4009, 90.0229, -0.000976562, 0, 0.000976562, -0.00488281, 0.263672, -9.73535, 1.18.2022 20:51:59.707
973, 1.68663, 0.4009, 90.0229, -0.000976562, -0.000976562, 0.000976562, -0.0839844, 0.279297, -9.76953, 1.18.2022 20:51:59.715
974, 1.68663, 0.4009, 90.0229, 0, 0, -0.000976562, -0.0712891, 0.283203, -9.74609, 1.18.2022 20:51:59.723
975, 1.68663, 0.4009, 90.0229, -0.000976562, 0, -0.000976562, -0.0234375, 0.286133, -9.74219, 1.18.2022 20:51:59.731
976, 1.68663, 0.4009, 90.0229, -0.000976562, -0.000976562, -0.000976562, -0.111328, 0.311523, -9.7041, 1.18.2022 20:51:59.739
977, 1.68663, 0.4009, 90.0229, -0.000976562, -0.00195312, -0.000976562, -0.0839844, 0.291992, -9.77344, 1.18.2022 20:51:59.747
978, 1.68169, 0.405843, 90.0229, -0.000976562, -0.000976562, 0.000976562, -0.0712891, 0.290039, -9.72168, 1.18.2022 20:51:59.755
979, 1.68169, 0.405843, 90.0229, 0, 0, 0.000976562, -0.111328, 0.303711, -9.70703, 1.18.2022 20:51:59.763
980, 1.68169, 0.405843, 90.0229, -0.000976562, 0.000976562, 0, -0.00488281, 0.254883, -9.76172, 1.18.2022 20:51:59.771
981, 1.68169, 0.405843, 90.0229, -0.000976562, 0, -0.000976562, -0.106445, 0.283203, -9.73145, 1.18.2022 20:51:59.779
982, 1.68169, 0.405843, 90.0229, 0, -0.000976562, -0.000976562, -0.0800781, 0.326172, -9.71582, 1.18.2022 20:51:59.787
983, 1.68169, 0.405843, 90.0229, 0, -0.000976562, -0.000976562, -0.0322266, 0.286133, -9.68262, 1.18.2022 20:51:59.795
984, 1.68169, 0.405843, 90.0229, -0.000976562, 0, -0.000976562, -0.121094, 0.286133, -9.74512, 1.18.2022 20:51:59.803
985, 1.68169, 0.405843, 90.0229, -0.000976562, -0.000976562, 0, -0.0263672, 0.291016, -9.76758, 1.18.2022 20:51:59.811
986, 1.68169, 0.405843, 90.0229, 0, -0.000976562, 0, -0.0380859, 0.28125, -9.73242, 1.18.2022 20:51:59.817
987, 1.68169, 0.405843, 90.0229, -0.000976562, 0, 0, -0.133789, 0.292969, -9.74707, 1.18.2022 20:51:59.827
988, 1.68169, 0.405843, 90.0229, -0.000976562, -0.000976562, 0, -0.0234375, 0.270508, -9.71875, 1.18.2022 20:51:59.833
989, 1.68169, 0.405843, 90.0229, -0.000976562, -0.000976562, 0, -0.0878906, 0.289062, -9.75293, 1.18.2022 20:51:59.841
990, 1.68169, 0.405843, 90.0229, -0.000976562, -0.000976562, 0, -0.0859375, 0.297852, -9.73535, 1.18.2022 20:51:59.849
991, 1.68169, 0.405843, 90.0229, 0, -0.000976562, 0, -0.00390625, 0.268555, -9.71191, 1.18.2022 20:51:59.857
992, 1.68169, 0.405843, 90.0229, 0, -0.000976562, 0, -0.12207, 0.279297, -9.76367, 1.18.2022 20:51:59.865
993, 1.68169, 0.405843, 90.0229, 0, -0.000976562, -0.00195312, -0.0566406, 0.297852, -9.7334, 1.18.2022 20:51:59.873
994, 1.68169, 0.405843, 90.0229, -0.000976562, -0.000976562, 0, -0.0644531, 0.276367, -9.74805, 1.18.2022 20:51:59.881
995, 1.68169, 0.405843, 90.0229, -0.000976562, -0.000976562, 0, -0.119141, 0.295898, -9.75195, 1.18.2022 20:51:59.889
996, 1.68169, 0.405843, 90.0229, 0, -0.000976562, 0, -0.0458984, 0.251953, -9.79395, 1.18.2022 20:51:59.897
997, 1.68169, 0.405843, 90.0229, 0, -0.000976562, 0, -0.0712891, 0.291016, -9.73828, 1.18.2022 20:51:59.905
998, 1.68169, 0.405843, 90.0229, -0.000976562, 0, 0, -0.0742188, 0.307617, -9.75684, 1.18.2022 20:51:59.913
999, 1.68169, 0.405843, 90.0229, -0.000976562, 0, 0, -0.00976562, 0.269531, -9.74219, 1.18.2022 20:51:59.921
1000, 1.68169, 0.405843, 90.0229, 0, -0.000976562, 0, -0.102539, 0.279297, -9.75, 1.18.2022 20:51:59.929
1001, 1.68169, 0.405843, 90.0229, -0.000976562, 0, 0, -0.0615234, 0.311523, -9.7334, 1.18.2022 20:51:59.937
1002, 1.68169, 0.405843, 90.0229, 0, -0.000976562, 0, -0.0683594, 0.27832, -9.71289, 1.18.2022 20:51:59.945
1003, 1.68169, 0.405843, 90.0229, -0.000976562, -0.000976562, 0, -0.106445, 0.3125, -9.73535, 1.18.2022 20:51:59.953
1004, 1.68169, 0.405843, 90.0229, 0, 0, 0, -0.0263672, 0.277344, -9.77051, 1.18.2022 20:51:59.961
1005, 1.68169, 0.405843, 90.0229, -0.000976562, 0, 0, -0.0566406, 0.294922, -9.73828, 1.18.2022 20:51:59.969
1006, 1.68169, 0.405843, 90.0229, -0.000976562, -0.000976562, 0, -0.0888672, 0.311523, -9.80859, 1.18.2022 20:51:59.977
1007, 1.68169, 0.405843, 90.0229, -0.000976562, 0, 0, -0.00488281, 0.279297, -9.78027, 1.18.2022 20:51:59.985
1008, 1.68169, 0.405843, 90.0229, -0.000976562, 0, 0, -0.119141, 0.271484, -9.73145, 1.18.2022 20:51:59.993
1009, 1.68169, 0.405843, 90.0229, 0, -0.000976562, 0, -0.0859375, 0.297852, -9.7334, 1.18.2022 20:52:0.001
1010, 1.68169, 0.405843, 90.0229, 0, -0.000976562, 0, -0.0195312, 0.298828, -9.76562, 1.18.2022 20:52:0.009
1011, 1.68169, 0.405843, 90.0229, 0, -0.000976562, -0.00195312, -0.121094, 0.307617, -9.75391, 1.18.2022 20:52:0.017
1012, 1.68169, 0.405843, 90.0229, -0.000976562, -0.00195312, -0.00195312, -0.0722656, 0.28418, -9.77441, 1.18.2022 20:52:0.025
1013, 1.68169, 0.405843, 90.0229, -0.000976562, -0.000976562, -0.00195312, -0.0615234, 0.291016, -9.74805, 1.18.2022 20:52:0.033
1014, 1.68169, 0.405843, 90.0229, 0, 0, 0, -0.135742, 0.313477, -9.77441, 1.18.2022 20:52:0.041
1015, 1.68169, 0.405843, 90.0229, 0, -0.000976562, 0, -0.0205078, 0.280273, -9.71875, 1.18.2022 20:52:0.049
1016, 1.68169, 0.405843, 90.0229, 0, -0.000976562, 0, -0.0761719, 0.24707, -9.7207, 1.18.2022 20:52:0.057
1017, 1.68169, 0.405843, 90.0229, 0, -0.000976562, 0, -0.0830078, 0.300781, -9.75195, 1.18.2022 20:52:0.065
1018, 1.68169, 0.405843, 90.0229, 0, 0, -0.000976562, -0.0283203, 0.27832, -9.74707, 1.18.2022 20:52:0.073
1019, 1.68169, 0.405843, 90.0229, -0.000976562, 0, 0, -0.125977, 0.310547, -9.75879, 1.18.2022 20:52:0.081
1020, 1.68169, 0.405843, 90.0229, 0, -0.000976562, 0.000976562, -0.0644531, 0.289062, -9.7627, 1.18.2022 20:52:0.089
1021, 1.68169, 0.405843, 90.0229, 0, 0, 0.000976562, -0.0380859, 0.288086, -9.72266, 1.18.2022 20:52:0.097
1022, 1.68663, 0.4009, 90.0229, -0.000976562, 0, 0.000976562, -0.0996094, 0.291016, -9.73828, 1.18.2022 20:52:0.105
1023, 1.68663, 0.4009, 90.0229, -0.000976562, 0, 0, -0.0546875, 0.276367, -9.74121, 1.18.2022 20:52:0.113
1024, 1.68663, 0.4009, 90.0229, -0.000976562, -0.000976562, 0, -0.0751953, 0.272461, -9.67773, 1.18.2022 20:52:0.121
1025, 1.68663, 0.4009, 90.0229, -0.000976562, -0.000976562, -0.000976562, -0.115234, 0.293945, -9.77344, 1.18.2022 20:52:0.129
1026, 1.68663, 0.4009, 90.0229, -0.000976562, -0.000976562, 0, -0.0117188, 0.248047, -9.75488, 1.18.2022 20:52:0.137
1027, 1.68663, 0.4009, 90.0229, -0.00195312, -0.000976562, 0.000976562, -0.116211, 0.290039, -9.71191, 1.18.2022 20:52:0.145
1028, 1.68663, 0.4009, 90.0229, -0.000976562, -0.000976562, 0.000976562, -0.0947266, 0.30957, -9.74023, 1.18.2022 20:52:0.153
1029, 1.68663, 0.4009, 90.0229, -0.000976562, -0.000976562, 0, -0.046875, 0.280273, -9.71289, 1.18.2022 20:52:0.161
1030, 1.68663, 0.4009, 90.0229, -0.000976562, -0.000976562, 0, -0.114258, 0.300781, -9.74512, 1.18.2022 20:52:0.169
1031, 1.69157, 0.405846, 90.0227, -0.000976562, -0.000976562, 0, -0.0380859, 0.302734, -9.75488, 1.18.2022 20:52:0.177
1032, 1.69157, 0.405846, 90.0227, -0.000976562, -0.000976562, 0, -0.0693359, 0.271484, -9.73633, 1.18.2022 20:52:0.185
1033, 1.69157, 0.405846, 90.0227, -0.000976562, 0, 0, -0.0908203, 0.297852, -9.74316, 1.18.2022 20:52:0.193
1034, 1.69157, 0.405846, 90.0227, -0.000976562, -0.000976562, 0, -0.00878906, 0.253906, -9.70703, 1.18.2022 20:52:0.201
1035, 1.69157, 0.405846, 90.0227, 0, 0, 0, -0.0732422, 0.268555, -9.71094, 1.18.2022 20:52:0.209
1036, 1.69157, 0.405846, 90.0227, -0.000976562, 0, 0, -0.0732422, 0.294922, -9.72461, 1.18.2022 20:52:0.217
1037, 1.69157, 0.405846, 90.0227, -0.000976562, -0.000976562, 0, -0.0332031, 0.256836, -9.73047, 1.18.2022 20:52:0.225
1038, 1.69157, 0.405846, 90.0227, -0.000976562, 0, -0.000976562, -0.136719, 0.277344, -9.77344, 1.18.2022 20:52:0.233
1039, 1.69157, 0.405846, 90.0227, -0.000976562, -0.000976562, 0, -0.0751953, 0.300781, -9.68359, 1.18.2022 20:52:0.241
