Seq, Rot x, Rot y, Rot z, Vel x, Vel y, Vel z, Acc x, Acc y, Acc z, Time(m.d.y h:m:s.ms)
0, 1.92827, 359.994, 75.7708, -0.000976562, -0.000976562, 0, -0.0605469, 0.34668, -9.69727, 1.18.2022 20:3:20.416
1, 1.92827, 359.994, 75.7708, -0.000976562, -0.000976562, 0, -0.00878906, 0.331055, -9.74121, 1.18.2022 20:3:20.422
2, 1.92827, 359.994, 75.7708, -0.000976562, -0.000976562, 0, 0.0380859, 0.317383, -9.75879, 1.18.2022 20:3:20.430
3, 1.92827, 359.994, 75.7708, -0.000976562, 0, -0.000976562, -0.0517578, 0.323242, -9.72363, 1.18.2022 20:3:20.438
4, 1.92827, 359.994, 75.7708, 0, 0, 0, 0.0195312, 0.347656, -9.73828, 1.18.2022 20:3:20.446
5, 1.92827, 359.994, 75.7708, 0, -0.000976562, 0, 0.0136719, 0.325195, -9.76953, 1.18.2022 20:3:20.454
6, 1.92827, 359.994, 75.7708, -0.000976562, -0.000976562, 0, -0.0380859, 0.330078, -9.76855, 1.18.2022 20:3:20.462
7, 1.92827, 359.994, 75.7708, -0.000976562, -0.000976562, 0, 0.0830078, 0.297852, -9.75488, 1.18.2022 20:3:20.470
8, 1.92827, 359.994, 75.7708, 0, 0, 0, -0.0185547, 0.296875, -9.72266, 1.18.2022 20:3:20.478
9, 1.92827, 359.994, 75.7708, 0, 0, 0.000976562, -0.00195312, 0.352539, -9.74512, 1.18.2022 20:3:20.486
10, 1.92827, 359.994, 75.7708, -0.000976562, 0, 0, 0.0263672, 0.304688, -9.74414, 1.18.2022 20:3:20.494
11, 1.92827, 359.994, 75.7708, -0.000976562, -0.000976562, 0, -0.0498047, 0.355469, -9.74414, 1.18.2022 20:3:20.502
12, 1.92827, 359.994, 75.7708, 0, -0.000976562, 0, 0.00683594, 0.34082, -9.75, 1.18.2022 20:3:20.510
13, 1.92827, 359.994, 75.7708, -0.000976562, 0, 0, 0.0214844, 0.307617, -9.74414, 1.18.2022 20:3:20.518
14, 1.92827, 359.994, 75.7708, -0.000976562, -0.000976562, -0.00195312, -0.0400391, 0.350586, -9.73535, 1.18.2022 20:3:20.526
15, 1.92827, 359.994, 75.7708, 0, -0.00195312, 0, 0.0410156, 0.331055, -9.72754, 1.18.2022 20:3:20.534
16, 1.92827, 359.994, 75.7708, -0.000976562, -0.00195312, 0, -0.000976562, 0.356445, -9.70703, 1.18.2022 20:3:20.542
17, 1.92827, 359.994, 75.7708, 0, -0.000976562, 0, -0.0136719, 0.342773, -9.71875, 1.18.2022 20:3:20.550
18, 1.92827, 359.994, 75.7708, 0, 0, 0, 0.0507812, 0.314453, -9.7373, 1.18.2022 20:3:20.558
19, 1.92827, 359.994, 75.7708, 0, -0.000976562, 0, -0.0361328, 0.332031, -9.76855, 1.18.2022 20:3:20.566
20, 1.92827, 359.994, 75.7708, 0, 0, 0, 0.0146484, 0.350586, -9.73633, 1.18.2022 20:3:20.574
21, 1.92827, 359.994, 75.7708, 0, -0.000976562, 0, 0.0175781, 0.334961, -9.70312, 1.18.2022 20:3:20.582
22, 1.92275, 359.989, 75.7709, 0, -0.000976562, 0.000976562, -0.0683594, 0.357422, -9.72754, 1.18.2022 20:3:20.590
23, 1.92275, 359.989, 75.7709, 0, -0.000976562, 0, 0.0361328, 0.327148, -9.7627, 1.18.2022 20:3:20.598
24, 1.92275, 359.989, 75.7709, 0, 0, 0.000976562, 0.0234375, 0.310547, -9.76758, 1.18.2022 20:3:20.606
25, 1.92275, 359.989, 75.7709, 0, -0.000976562, -0.000976562, -0.0185547, 0.366211, -9.7207, 1.18.2022 20:3:20.614
26, 1.92275, 359.989, 75.7709, -0.000976562, 0, -0.000976562, 0.0605469, 0.321289, -9.7207, 1.18.2022 20:3:20.622
27, 1.92275, 359.989, 75.7709, -0.000976562, 0, -0.000976562, -0.046875, 0.321289, -9.73145, 1.18.2022 20:3:20.630
28, 1.92275, 359.989, 75.7709, -0.000976562, 0, -0.000976562, -0.00195312, 0.313477, -9.72461, 1.18.2022 20:3:20.638
29, 1.92275, 359.989, 75.7709, -0.000976562, 0, -0.000976562, 0.0166016, 0.314453, -9.74609, 1.18.2022 20:3:20.646
30, 1.92275, 359.989, 75.7709, -0.000976562, 0, -0.000976562, -0.0205078, 0.344727, -9.71387, 1.18.2022 20:3:20.654
31, 1.92275, 359.989, 75.7709, 0, 0, -0.000976562, 0.0117188, 0.316406, -9.74121, 1.18.2022 20:3:20.662
32, 1.92275, 359.989, 75.7709, -0.000976562, 0, -0.000976562, 0.00976562, 0.30957, -9.74902, 1.18.2022 20:3:20.670
33, 1.92704, 359.984, 75.7709, -0.000976562, -0.000976562, -0.000976562, -0.0283203, 0.345703, -9.75195, 1.18.2022 20:3:20.678
34, 1.92704, 359.984, 75.7709, -0.000976562, 0, 0.000976562, 0.0791016, 0.292969, -9.75293, 1.18.2022 20:3:20.686
35, 1.92704, 359.984, 75.7709, -0.000976562, -0.000976562, 0, -0.0332031, 0.349609, -9.72852, 1.18.2022 20:3:20.694
36, 1.92704, 359.984, 75.7709, -0.00195312, -0.000976562, -0.000976562, -0.0273438, 0.344727, -9.71191, 1.18.2022 20:3:20.702
37, 1.92704, 359.984, 75.7709, -0.000976562, -0.000976562, 0, 0.0361328, 0.318359, -9.7207, 1.18.2022 20:3:20.710
38, 1.92704, 359.984, 75.7709, 0, -0.000976562, 0, -0.0585938, 0.344727, -9.70898, 1.18.2022 20:3:20.718
39, 1.92704, 359.984, 75.7709, -0.000976562, 0, -0.000976562, -0.00195312, 0.352539, -9.73047, 1.18.2022 20:3:20.726
40, 1.92726, 359.984, 75.7696, -0.000976562, -0.000976562, -0.00195312, 0.0214844, 0.28418, -9.78027, 1.18.2022 20:3:20.734
41, 1.93278, 359.988, 75.7694, -0.000976562, 0, -0.00195312, -0.0595703, 0.333008, -9.72852, 1.18.2022 20:3:20.742
42, 1.93278, 359.988, 75.7694, -0.000976562, -0.000976562, -0.000976562, 0.0244141, 0.285156, -9.72363, 1.18.2022 20:3:20.750
43, 1.93278, 359.988, 75.7694, -0.00195312, -0.000976562, -0.000976562, -0.00488281, 0.302734, -9.75781, 1.18.2022 20:3:20.758
44, 1.93278, 359.988, 75.7694, -0.000976562, 0, -0.000976562, -0.015625, 0.347656, -9.72559, 1.18.2022 20:3:20.766
45, 1.93278, 359.988, 75.7694, -0.000976562, 0, -0.000976562, 0.0644531, 0.331055, -9.75391, 1.18.2022 20:3:20.774
46, 1.93278, 359.988, 75.7694, 0, -0.000976562, -0.000976562, -0.0644531, 0.345703, -9.73926, 1.18.2022 20:3:20.782
47, 1.93278, 359.988, 75.7694, 0, -0.000976562, 0, 0.0263672, 0.331055, -9.75293, 1.18.2022 20:3:20.790
48, 1.93278, 359.988, 75.7694, 0, 0, -0.000976562, 0.0205078, 0.296875, -9.78516, 1.18.2022 20:3:20.798
49, 1.93278, 359.988, 75.7694, -0.000976562, 0, 0.000976562, -0.0615234, 0.328125, -9.70508, 1.18.2022 20:3:20.806
50, 1.93278, 359.988, 75.7694, -0.000976562, 0, -0.000976562, 0.03125, 0.329102, -9.74414, 1.18.2022 20:3:20.814
51, 1.93278, 359.988, 75.7694, 0, -0.000976562, -0.00195312, -0.00683594, 0.333984, -9.75293, 1.18.2022 20:3:20.822
52, 1.93278, 359.988, 75.7694, -0.000976562, -0.000976562, -0.000976562, -0.0361328, 0.341797, -9.75879, 1.18.2022 20:3:20.830
53, 1.93278, 359.988, 75.7694, -0.000976562, -0.000976562, -0.000976562, 0.0439453, 0.305664, -9.69531, 1.18.2022 20:3:20.838
54, 1.93278, 359.988, 75.7694, -0.00195312, -0.000976562, -0.00195312, -0.0380859, 0.331055, -9.74316, 1.18.2022 20:3:20.846
55, 1.93278, 359.988, 75.7694, -0.000976562, -0.000976562, -0.00195312, -0.015625, 0.326172, -9.7168, 1.18.2022 20:3:20.854
56, 1.93278, 359.988, 75.7694, -0.000976562, -0.000976562, -0.000976562, 0.00488281, 0.30957, -9.74414, 1.18.2022 20:3:20.862
57, 1.93278, 359.988, 75.7694, -0.000976562, -0.000976562, 0.000976562, -0.0351562, 0.339844, -9.71387, 1.18.2022 20:3:20.870
58, 1.93278, 359.988, 75.7694, -0.000976562, -0.000976562, -0.000976562, 0.0351562, 0.310547, -9.76758, 1.18.2022 20:3:20.878
59, 1.93278, 359.988, 75.7694, -0.000976562, -0.000976562, -0.000976562, 0.0214844, 0.319336, -9.74414, 1.18.2022 20:3:20.886
60, 1.93278, 359.988, 75.7694, 0, -0.000976562, 0.000976562, -0.0400391, 0.326172, -9.71875, 1.18.2022 20:3:20.894
61, 1.93278, 359.988, 75.7694, -0.000976562, -0.000976562, -0.000976562, 0.0429688, 0.304688, -9.74512, 1.18.2022 20:3:20.902
62, 1.93278, 359.988, 75.7694, -0.000976562, -0.00195312, -0.000976562, -0.0302734, 0.323242, -9.72461, 1.18.2022 20:3:20.910
63, 1.93278, 359.988, 75.7694, -0.00195312, 0, -0.00195312, -0.0224609, 0.344727, -9.70703, 1.18.2022 20:3:20.918
64, 1.93278, 359.988, 75.7694, -0.000976562, -0.00195312, -0.00195312, 0.0322266, 0.310547, -9.7041, 1.18.2022 20:3:20.926
65, 1.93278, 359.988, 75.7694, -0.000976562, -0.000976562, -0.000976562, -0.0683594, 0.338867, -9.73926, 1.18.2022 20:3:20.934
66, 1.93278, 359.988, 75.7694, -0.000976562, 0, -0.000976562, 0.0126953, 0.336914, -9.70801, 1.18.2022 20:3:20.942
67, 1.93256, 359.988, 75.7708, -0.000976562, -0.000976562, -0.000976562, 0.0175781, 0.299805, -9.73047, 1.18.2022 20:3:20.950
68, 1.93256, 359.988, 75.7708, 0, 0, -0.000976562, -0.046875, 0.321289, -9.71484, 1.18.2022 20:3:20.958
69, 1.93256, 359.988, 75.7708, 0, 0, -0.000976562, 0.0625, 0.299805, -9.74707, 1.18.2022 20:3:20.966
70, 1.93256, 359.988, 75.7708, -0.000976562, -0.000976562, 0.000976562, -0.00488281, 0.327148, -9.77832, 1.18.2022 20:3:20.974
71, 1.93256, 359.988, 75.7708, 0, -0.000976562, -0.000976562, -0.00878906, 0.332031, -9.70312, 1.18.2022 20:3:20.982
72, 1.93256, 359.988, 75.7708, -0.000976562, 0, -0.000976562, 0.0380859, 0.305664, -9.76074, 1.18.2022 20:3:20.990
73, 1.93256, 359.988, 75.7708, -0.000976562, -0.000976562, -0.000976562, -0.0332031, 0.321289, -9.72168, 1.18.2022 20:3:20.998
74, 1.93256, 359.988, 75.7708, -0.00195312, -0.000976562, -0.000976562, -0.00488281, 0.326172, -9.74121, 1.18.2022 20:3:21.006
75, 1.93256, 359.988, 75.7708, -0.000976562, -0.000976562, -0.000976562, 0.0195312, 0.304688, -9.72559, 1.18.2022 20:3:21.014
76, 1.92827, 359.994, 75.7708, -0.000976562, -0.000976562, 0.000976562, -0.0498047, 0.328125, -9.72168, 1.18.2022 20:3:21.022
77, 1.92827, 359.994, 75.7708, 0, -0.00195312, 0, 0.0556641, 0.316406, -9.73047, 1.18.2022 20:3:21.030
78, 1.92827, 359.994, 75.7708, -0.000976562, -0.000976562, -0.000976562, 0.00292969, 0.331055, -9.75293, 1.18.2022 20:3:21.038
79, 1.92827, 359.994, 75.7708, -0.00195312, 0, 0, -0.0185547, 0.329102, -9.75488, 1.18.2022 20:3:21.046
80, 1.92827, 359.994, 75.7708, -0.000976562, 0, -0.000976562, 0.0546875, 0.303711, -9.78516, 1.18.2022 20:3:21.054
81, 1.92827, 359.994, 75.7708, -0.000976562, -0.000976562, 0.000976562, -0.0283203, 0.326172, -9.72852, 1.18.2022 20:3:21.062
82, 1.92827, 359.994, 75.7708, 0, -0.000976562, -0.000976562, -0.00976562, 0.322266, -9.75781, 1.18.2022 20:3:21.070
83, 1.92827, 359.994, 75.7708, -0.000976562, -0.000976562, -0.000976562, 0.0166016, 0.295898, -9.77246, 1.18.2022 20:3:21.078
84, 1.92827, 359.994, 75.7708, -0.000976562, 0, -0.000976562, -0.0546875, 0.335938, -9.72559, 1.18.2022 20:3:21.086
85, 1.92827, 359.994, 75.7708, -0.000976562, 0, -0.000976562, 0.0214844, 0.297852, -9.75391, 1.18.2022 20:3:21.094
86, 1.92827, 359.994, 75.7708, -0.000976562, -0.000976562, -0.000976562, -0.00878906, 0.337891, -9.71484, 1.18.2022 20:3:21.102
87, 1.92827, 359.994, 75.7708, -0.000976562, -0.000976562, -0.000976562, -0.0253906, 0.364258, -9.72266, 1.18.2022 20:3:21.110
88, 1.92827, 359.994, 75.7708, 0, 0, -0.000976562, 0.0673828, 0.325195, -9.71582, 1.18.2022 20:3:21.118
89, 1.92827, 359.994, 75.7708, -0.000976562, 0, -0.00292969, -0.015625, 0.327148, -9.67969, 1.18.2022 20:3:21.126
90, 1.92827, 359.994, 75.7708, -0.000976562, -0.000976562, -0.000976562, -0.00390625, 0.339844, -9.72656, 1.18.2022 20:3:21.134
91, 1.92827, 359.994, 75.7708, -0.00195312, -0.000976562, -0.000976562, 0.0214844, 0.341797, -9.77148, 1.18.2022 20:3:21.142
92, 1.92827, 359.994, 75.7708, -0.000976562, 0, -0.000976562, -0.0478516, 0.333984, -9.76562, 1.18.2022 20:3:21.150
93, 1.92827, 359.994, 75.7708, 0, -0.000976562, -0.000976562, 0.000976562, 0.328125, -9.70801, 1.18.2022 20:3:21.158
94, 1.92827, 359.994, 75.7708, 0, 0, -0.000976562, 0.0263672, 0.322266, -9.75586, 1.18.2022 20:3:21.166
95, 1.92827, 359.994, 75.7708, 0, 0, -0.000976562, -0.0498047, 0.319336, -9.75684, 1.18.2022 20:3:21.174
96, 1.92827, 359.994, 75.7708, -0.000976562, -0.000976562, -0.000976562, 0.0546875, 0.30957, -9.7373, 1.18.2022 20:3:21.182
97, 1.92827, 359.994, 75.7708, -0.000976562, 0, -0.000976562, -0.0214844, 0.30957, -9.74609, 1.18.2022 20:3:21.190
98, 1.92827, 359.994, 75.7708, -0.000976562, 0, -0.000976562, -0.0117188, 0.337891, -9.72363, 1.18.2022 20:3:21.198
99, 1.92827, 359.994, 75.7708, 0, 0, -0.000976562, 0.0332031, 0.302734, -9.75391, 1.18.2022 20:3:21.206
100, 1.92827, 359.994, 75.7708, 0, 0, -0.00195312, -0.0380859, 0.302734, -9.7627, 1.18.2022 20:3:21.214
101, 1.92827, 359.994, 75.7708, -0.000976562, 0, -0.000976562, 0.0166016, 0.348633, -9.76465, 1.18.2022 20:3:21.222
102, 1.92827, 359.994, 75.7708, 0, -0.000976562, -0.000976562, 0.0214844, 0.317383, -9.76562, 1.18.2022 20:3:21.230
103, 1.92827, 359.994, 75.7708, 0, 0, -0.000976562, -0.0351562, 0.336914, -9.69727, 1.18.2022 20:3:21.238
104, 1.92275, 359.989, 75.7709, -0.000976562, 0, -0.000976562, 0.0449219, 0.322266, -9.7793, 1.18.2022 20:3:21.246
105, 1.92275, 359.989, 75.7709, -0.000976562, -0.000976562, -0.000976562, 0.0175781, 0.326172, -9.73438, 1.18.2022 20:3:21.254
106, 1.92275, 359.989, 75.7709, -0.000976562, 0, -0.00195312, -0.00683594, 0.345703, -9.73145, 1.18.2022 20:3:21.262
107, 1.92275, 359.989, 75.7709, -0.000976562, 0, -0.000976562, 0.0410156, 0.326172, -9.7207, 1.18.2022 20:3:21.268
108, 1.92275, 359.989, 75.7709, -0.000976562, -0.000976562, -0.000976562, -0.0302734, 0.336914, -9.7002, 1.18.2022 20:3:21.276
109, 1.92275, 359.989, 75.7709, -0.000976562, -0.000976562, -0.000976562, -0.015625, 0.305664, -9.68945, 1.18.2022 20:3:21.284
110, 1.92275, 359.989, 75.7709, -0.000976562, -0.000976562, -0.000976562, 0.00292969, 0.292969, -9.74414, 1.18.2022 20:3:21.292
111, 1.92275, 359.989, 75.7709, -0.000976562, -0.000976562, -0.000976562, -0.0634766, 0.326172, -9.72852, 1.18.2022 20:3:21.300
112, 1.92275, 359.989, 75.7709, -0.000976562, -0.000976562, -0.000976562, 0.0253906, 0.322266, -9.78223, 1.18.2022 20:3:21.308
113, 1.92275, 359.989, 75.7709, -0.00195312, -0.000976562, -0.000976562, -0.03125, 0.302734, -9.75586, 1.18.2022 20:3:21.316
114, 1.92827, 359.994, 75.7708, -0.000976562, -0.00195312, -0.000976562, -0.0380859, 0.310547, -9.77832, 1.18.2022 20:3:21.324
115, 1.92827, 359.994, 75.7708, 0, -0.000976562, -0.000976562, 0.0390625, 0.301758, -9.71387, 1.18.2022 20:3:21.332
116, 1.92275, 359.989, 75.7709, -0.000976562, 0, -0.000976562, -0.0429688, 0.345703, -9.73535, 1.18.2022 20:3:21.340
117, 1.92275, 359.989, 75.7709, -0.000976562, -0.000976562, -0.000976562, 0.000976562, 0.339844, -9.71191, 1.18.2022 20:3:21.348
118, 1.92275, 359.989, 75.7709, 0, -0.000976562, -0.000976562, 0.03125, 0.304688, -9.73535, 1.18.2022 20:3:21.356
119, 1.92275, 359.989, 75.7709, -0.000976562, -0.000976562, -0.000976562, -0.0683594, 0.353516, -9.69434, 1.18.2022 20:3:21.364
120, 1.92275, 359.989, 75.7709, 0, -0.000976562, 0.000976562, 0.000976562, 0.328125, -9.72656, 1.18.2022 20:3:21.372
121, 1.92275, 359.989, 75.7709, 0, -0.000976562, 0, -0.00683594, 0.347656, -9.74316, 1.18.2022 20:3:21.380
122, 1.92275, 359.989, 75.7709, -0.000976562, -0.000976562, 0, -0.0166016, 0.342773, -9.74316, 1.18.2022 20:3:21.388
123, 1.92275, 359.989, 75.7709, 0, 0, 0, 0.0791016, 0.302734, -9.74512, 1.18.2022 20:3:21.396
124, 1.92275, 359.989, 75.7709, -0.000976562, 0, 0.000976562, -0.0283203, 0.331055, -9.75, 1.18.2022 20:3:21.404
125, 1.92275, 359.989, 75.7709, 0, 0, 0, 0.00292969, 0.337891, -9.71289, 1.18.2022 20:3:21.412
126, 1.92275, 359.989, 75.7709, -0.000976562, -0.000976562, -0.00195312, 0.0605469, 0.305664, -9.70215, 1.18.2022 20:3:21.420
127, 1.92275, 359.989, 75.7709, -0.000976562, -0.000976562, 0, -0.0566406, 0.331055, -9.72852, 1.18.2022 20:3:21.428
128, 1.92303, 359.989, 75.7806, -0.000976562, -0.000976562, 0, 0.00976562, 0.314453, -9.72949, 1.18.2022 20:3:21.436
129, 1.92275, 359.989, 75.7709, 0, 0, 0.000976562, 0.0361328, 0.320312, -9.71387, 1.18.2022 20:3:21.444
130, 1.92275, 359.989, 75.7709, 0, -0.000976562, 0, -0.0273438, 0.34668, -9.71191, 1.18.2022 20:3:21.452
131, 1.92303, 359.989, 75.7806, -0.000976562, -0.000976562, 0, 0.0458984, 0.297852, -9.74219, 1.18.2022 20:3:21.460
132, 1.92303, 359.989, 75.7806, -0.000976562, 0, 0, -0.0117188, 0.326172, -9.73828, 1.18.2022 20:3:21.468
133, 1.92303, 359.989, 75.7806, 0, 0, 0, -0.0253906, 0.333008, -9.73145, 1.18.2022 20:3:21.476
134, 1.92281, 359.989, 75.7819, -0.000976562, 0, 0, 0.0537109, 0.3125, -9.69531, 1.18.2022 20:3:21.484
135, 1.92281, 359.989, 75.7819, -0.000976562, 0, 0, -0.0351562, 0.352539, -9.74414, 1.18.2022 20:3:21.492
136, 1.92281, 359.989, 75.7819, 0, 0, 0.000976562, -0.0117188, 0.30957, -9.74414, 1.18.2022 20:3:21.500
137, 1.92281, 359.989, 75.7819, 0, -0.000976562, 0.000976562, 0.0117188, 0.303711, -9.76758, 1.18.2022 20:3:21.508
138, 1.92281, 359.989, 75.7819, 0, 0, 0, -0.0449219, 0.367188, -9.74902, 1.18.2022 20:3:21.516
139, 1.92281, 359.989, 75.7819, 0, -0.000976562, 0, 0.0175781, 0.314453, -9.72949, 1.18.2022 20:3:21.524
140, 1.92281, 359.989, 75.7819, 0, -0.000976562, -0.00195312, -0.0166016, 0.316406, -9.73633, 1.18.2022 20:3:21.532
141, 1.92281, 359.989, 75.7819, 0.000976562, -0.000976562, 0, -0.0224609, 0.344727, -9.70215, 1.18.2022 20:3:21.540
142, 1.92281, 359.989, 75.7819, 0, 0, 0, 0.0576172, 0.300781, -9.75488, 1.18.2022 20:3:21.548
143, 1.92281, 359.989, 75.7819, -0.000976562, 0, 0, -0.0380859, 0.333008, -9.73047, 1.18.2022 20:3:21.556
144, 1.92281, 359.989, 75.7819, -0.000976562, -0.000976562, 0, 0.0126953, 0.34082, -9.74121, 1.18.2022 20:3:21.564
145, 1.92281, 359.989, 75.7819, -0.000976562, -0.000976562, 0, 0.0351562, 0.307617, -9.67871, 1.18.2022 20:3:21.572
146, 1.92281, 359.989, 75.7819, -0.000976562, -0.000976562, 0, -0.0273438, 0.333008, -9.70508, 1.18.2022 20:3:21.580
147, 1.92281, 359.989, 75.7819, -0.000976562, 0, 0, 0.0332031, 0.297852, -9.74512, 1.18.2022 20:3:21.588
148, 1.92281, 359.989, 75.7819, -0.000976562, -0.000976562, 0, 0.0234375, 0.350586, -9.76172, 1.18.2022 20:3:21.596
149, 1.92281, 359.989, 75.7819, 0, 0, 0, -0.0302734, 0.350586, -9.74023, 1.18.2022 20:3:21.604
150, 1.92281, 359.989, 75.7819, 0, -0.000976562, 0, 0.0527344, 0.328125, -9.73242, 1.18.2022 20:3:21.612
151, 1.92281, 359.989, 75.7819, -0.000976562, -0.000976562, -0.00195312, -0.0205078, 0.30957, -9.72266, 1.18.2022 20:3:21.620
152, 1.92281, 359.989, 75.7819, -0.000976562, -0.000976562, -0.00195312, -0.0234375, 0.350586, -9.73535, 1.18.2022 20:3:21.628
153, 1.92281, 359.989, 75.7819, -0.000976562, -0.000976562, -0.00195312, 0.0498047, 0.333984, -9.75781, 1.18.2022 20:3:21.636
154, 1.92281, 359.989, 75.7819, -0.000976562, -0.000976562, -0.000976562, -0.0576172, 0.341797, -9.78711, 1.18.2022 20:3:21.644
155, 1.92281, 359.989, 75.7819, -0.000976562, 0, 0, 0.0244141, 0.319336, -9.73242, 1.18.2022 20:3:21.652
156, 1.92281, 359.989, 75.7819, -0.000976562, -0.000976562, -0.000976562, 0.0126953, 0.321289, -9.71582, 1.18.2022 20:3:21.660
157, 1.92281, 359.989, 75.7819, 0, -0.000976562, -0.00195312, -0.0351562, 0.337891, -9.71387, 1.18.2022 20:3:21.668
158, 1.92281, 359.989, 75.7819, -0.000976562, -0.000976562, -0.000976562, 0.0595703, 0.30957, -9.75195, 1.18.2022 20:3:21.676
159, 1.92281, 359.989, 75.7819, 0, 0, 0, -0.0166016, 0.293945, -9.77441, 1.18.2022 20:3:21.684
160, 1.92281, 359.989, 75.7819, -0.000976562, 0, 0, 0.00488281, 0.328125, -9.73145, 1.18.2022 20:3:21.692
161, 1.92281, 359.989, 75.7819, -0.000976562, -0.000976562, -0.000976562, 0.0361328, 0.311523, -9.71094, 1.18.2022 20:3:21.700
162, 1.92281, 359.989, 75.7819, -0.000976562, -0.000976562, -0.000976562, -0.0517578, 0.34082, -9.72363, 1.18.2022 20:3:21.708
163, 1.92281, 359.989, 75.7819, 0, 0, 0, -0.00488281, 0.34082, -9.75684, 1.18.2022 20:3:21.716
164, 1.92281, 359.989, 75.7819, 0, 0, 0, 0.0224609, 0.316406, -9.71777, 1.18.2022 20:3:21.724
165, 1.92281, 359.989, 75.7819, 0, 0, -0.00195312, -0.0234375, 0.321289, -9.74121, 1.18.2022 20:3:21.732
166, 1.92281, 359.989, 75.7819, 0, -0.000976562, -0.000976562, 0.0439453, 0.303711, -9.71875, 1.18.2022 20:3:21.740
167, 1.92281, 359.989, 75.7819, -0.000976562, 0, 0, 0.00976562, 0.291016, -9.75684, 1.18.2022 20:3:21.748
168, 1.92281, 359.989, 75.7819, 0, 0, -0.00195312, 0.0146484, 0.333984, -9.75488, 1.18.2022 20:3:21.756
169, 1.92281, 359.989, 75.7819, 0, 0, 0, 0.0742188, 0.311523, -9.71875, 1.18.2022 20:3:21.764
170, 1.92281, 359.989, 75.7819, 0, 0, 0, -0.0419922, 0.337891, -9.71875, 1.18.2022 20:3:21.772
171, 1.92281, 359.989, 75.7819, 0, 0, 0, -0.0136719, 0.353516, -9.70215, 1.18.2022 20:3:21.780
172, 1.92281, 359.989, 75.7819, 0, 0, 0, 0.0175781, 0.298828, -9.70215, 1.18.2022 20:3:21.788
173, 1.92281, 359.989, 75.7819, 0, -0.000976562, 0.000976562, -0.0419922, 0.334961, -9.71387, 1.18.2022 20:3:21.796
174, 1.92281, 359.989, 75.7819, 0, 0, 0, 0.0458984, 0.314453, -9.74414, 1.18.2022 20:3:21.804
175, 1.92281, 359.989, 75.7819, -0.000976562, 0, 0, 0.0292969, 0.299805, -9.73535, 1.18.2022 20:3:21.812
176, 1.92281, 359.989, 75.7819, 0, 0, 0.000976562, -0.0263672, 0.348633, -9.75391, 1.18.2022 20:3:21.820
177, 1.9173, 359.985, 75.7821, 0, -0.000976562, -0.000976562, 0.0644531, 0.301758, -9.7334, 1.18.2022 20:3:21.828
178, 1.9173, 359.985, 75.7821, 0, -0.000976562, -0.000976562, -0.0185547, 0.333008, -9.71191, 1.18.2022 20:3:21.836
179, 1.9173, 359.985, 75.7821, -0.000976562, 0, 0, 0.0107422, 0.313477, -9.69922, 1.18.2022 20:3:21.844
180, 1.9173, 359.985, 75.7821, -0.000976562, -0.000976562, -0.000976562, 0.0429688, 0.306641, -9.72852, 1.18.2022 20:3:21.852
181, 1.92281, 359.989, 75.7819, -0.000976562, -0.000976562, -0.000976562, -0.0927734, 0.328125, -9.72266, 1.18.2022 20:3:21.860
182, 1.92281, 359.989, 75.7819, -0.000976562, 0, 0, 0.0117188, 0.324219, -9.75098, 1.18.2022 20:3:21.868
183, 1.92281, 359.989, 75.7819, -0.000976562, -0.00195312, -0.000976562, 0.00292969, 0.30957, -9.74121, 1.18.2022 20:3:21.876
184, 1.92281, 359.989, 75.7819, 0, -0.000976562, 0.000976562, -0.0751953, 0.337891, -9.71875, 1.18.2022 20:3:21.884
185, 1.92281, 359.989, 75.7819, 0, -0.000976562, 0, 0.0566406, 0.31543, -9.76367, 1.18.2022 20:3:21.892
186, 1.92281, 359.989, 75.7819, -0.000976562, -0.000976562, 0.000976562, -0.0117188, 0.322266, -9.75, 1.18.2022 20:3:21.900
187, 1.92281, 359.989, 75.7819, -0.000976562, -0.000976562, 0, -0.0380859, 0.324219, -9.75, 1.18.2022 20:3:21.908
188, 1.92281, 359.989, 75.7819, -0.000976562, -0.000976562, 0, 0.0722656, 0.291992, -9.71973, 1.18.2022 20:3:21.916
189, 1.92281, 359.989, 75.7819, -0.000976562, 0, 0, -0.0517578, 0.328125, -9.72852, 1.18.2022 20:3:21.924
190, 1.92281, 359.989, 75.7819, -0.00195312, 0, 0, -0.00390625, 0.335938, -9.72656, 1.18.2022 20:3:21.932
191, 1.92281, 359.989, 75.7819, -0.00195312, -0.000976562, -0.00195312, 0.0234375, 0.291016, -9.76855, 1.18.2022 20:3:21.940
192, 1.92281, 359.989, 75.7819, -0.000976562, 0, 0, -0.0527344, 0.332031, -9.75195, 1.18.2022 20:3:21.948
193, 1.92281, 359.989, 75.7819, -0.000976562, -0.000976562, 0, 0.0576172, 0.335938, -9.74609, 1.18.2022 20:3:21.956
194, 1.92281, 359.989, 75.7819, -0.000976562, 0, 0, 0.00683594, 0.292969, -9.74902, 1.18.2022 20:3:21.964
195, 1.92281, 359.989, 75.7819, 0, 0, 0, -0.0566406, 0.347656, -9.7373, 1.18.2022 20:3:21.972
196, 1.92281, 359.989, 75.7819, 0, -0.000976562, 0, 0.0615234, 0.302734, -9.76855, 1.18.2022 20:3:21.980
197, 1.92281, 359.989, 75.7819, 0, -0.000976562, 0, -0.0517578, 0.337891, -9.72363, 1.18.2022 20:3:21.988
198, 1.92281, 359.989, 75.7819, -0.000976562, 0, 0, 0.000976562, 0.320312, -9.68652, 1.18.2022 20:3:21.996
199, 1.92281, 359.989, 75.7819, -0.000976562, 0, 0, 0.0244141, 0.292969, -9.74219, 1.18.2022 20:3:22.004
200, 1.92281, 359.989, 75.7819, -0.000976562, 0, 0, -0.0292969, 0.341797, -9.77539, 1.18.2022 20:3:22.012
201, 1.92281, 359.989, 75.7819, -0.000976562, 0, 0, 0.0410156, 0.319336, -9.73438, 1.18.2022 20:3:22.020
202, 1.92281, 359.989, 75.7819, 0, -0.000976562, -0.00195312, 0.0263672, 0.316406, -9.72754, 1.18.2022 20:3:22.028
203, 1.92281, 359.989, 75.7819, -0.000976562, -0.000976562, 0, -0.0136719, 0.342773, -9.72168, 1.18.2022 20:3:22.036
204, 1.92281, 359.989, 75.7819, -0.000976562, -0.000976562, 0, 0.0498047, 0.327148, -9.76562, 1.18.2022 20:3:22.044
205, 1.92281, 359.989, 75.7819, -0.00195312, -0.000976562, 0, -0.0185547, 0.349609, -9.70215, 1.18.2022 20:3:22.052
206, 1.92281, 359.989, 75.7819, -0.000976562, 0, 0, 0.00488281, 0.331055, -9.72656, 1.18.2022 20:3:22.060
207, 1.92281, 359.989, 75.7819, 0, -0.000976562, 0, 0.0673828, 0.305664, -9.70703, 1.18.2022 20:3:22.068
208, 1.9226, 359.99, 75.7833, -0.000976562, -0.000976562, 0.000976562, -0.0478516, 0.345703, -9.75879, 1.18.2022 20:3:22.076
209, 1.9226, 359.99, 75.7833, -0.000976562, 0, 0, 0.03125, 0.329102, -9.73926, 1.18.2022 20:3:22.084
210, 1.92288, 359.99, 75.7929, -0.000976562, -0.000976562, -0.00195312, 0.0078125, 0.304688, -9.7207, 1.18.2022 20:3:22.092
211, 1.92288, 359.99, 75.7929, -0.000976562, -0.000976562, -0.00195312, -0.0351562, 0.345703, -9.74707, 1.18.2022 20:3:22.100
212, 1.92288, 359.99, 75.7929, -0.000976562, 0, 0, 0.0595703, 0.3125, -9.75684, 1.18.2022 20:3:22.108
213, 1.92288, 359.99, 75.7929, -0.000976562, 0, 0, -0.0283203, 0.317383, -9.74512, 1.18.2022 20:3:22.116
214, 1.92288, 359.99, 75.7929, 0, 0, 0, -0.0351562, 0.334961, -9.69824, 1.18.2022 20:3:22.124
215, 1.92288, 359.99, 75.7929, 0, -0.000976562, 0, 0.0527344, 0.294922, -9.74707, 1.18.2022 20:3:22.132
216, 1.92288, 359.99, 75.7929, -0.000976562, 0, 0, -0.046875, 0.34082, -9.73047, 1.18.2022 20:3:22.140
217, 1.92288, 359.99, 75.7929, 0, -0.000976562, 0, 0.00976562, 0.335938, -9.73633, 1.18.2022 20:3:22.148
218, 1.92288, 359.99, 75.7929, -0.000976562, -0.000976562, 0, 0.00488281, 0.313477, -9.72266, 1.18.2022 20:3:22.156
219, 1.92288, 359.99, 75.7929, -0.000976562, 0, 0, -0.0683594, 0.338867, -9.73926, 1.18.2022 20:3:22.164
220, 1.92288, 359.99, 75.7929, 0, 0, 0, 0.0429688, 0.302734, -9.75195, 1.18.2022 20:3:22.172
221, 1.92288, 359.99, 75.7929, 0, -0.000976562, 0, 0.00488281, 0.304688, -9.73438, 1.18.2022 20:3:22.180
222, 1.92288, 359.99, 75.7929, -0.00195312, -0.000976562, 0, -0.0400391, 0.314453, -9.74805, 1.18.2022 20:3:22.188
223, 1.92288, 359.99, 75.7929, -0.000976562, -0.000976562, 0, 0.0507812, 0.311523, -9.71387, 1.18.2022 20:3:22.196
224, 1.92288, 359.99, 75.7929, -0.000976562, -0.000976562, 0, -0.0595703, 0.34375, -9.74707, 1.18.2022 20:3:22.204
225, 1.9226, 359.99, 75.7833, 0, 0, 0, -0.00585938, 0.337891, -9.70996, 1.18.2022 20:3:22.212
226, 1.9226, 359.99, 75.7833, 0, -0.000976562, 0, 0.0263672, 0.31543, -9.77441, 1.18.2022 20:3:22.220
227, 1.92281, 359.989, 75.7819, -0.000976562, -0.000976562, 0, -0.0517578, 0.328125, -9.71387, 1.18.2022 20:3:22.228
228, 1.92281, 359.989, 75.7819, -0.000976562, 0, -0.00195312, 0.0625, 0.316406, -9.73535, 1.18.2022 20:3:22.234
229, 1.92281, 359.989, 75.7819, -0.000976562, 0, 0, 0.00488281, 0.302734, -9.75586, 1.18.2022 20:3:22.242
230, 1.92281, 359.989, 75.7819, 0, -0.000976562, 0.000976562, -0.00488281, 0.321289, -9.74609, 1.18.2022 20:3:22.250
231, 1.92281, 359.989, 75.7819, -0.000976562, 0, 0, 0.0605469, 0.304688, -9.72656, 1.18.2022 20:3:22.258
232, 1.92281, 359.989, 75.7819, -0.000976562, -0.000976562, 0, -0.03125, 0.333984, -9.76367, 1.18.2022 20:3:22.266
233, 1.92281, 359.989, 75.7819, -0.000976562, -0.000976562, 0, -0.00878906, 0.331055, -9.7334, 1.18.2022 20:3:22.274
234, 1.92281, 359.989, 75.7819, -0.000976562, -0.000976562, 0, 0.0175781, 0.323242, -9.7041, 1.18.2022 20:3:22.282
235, 1.92281, 359.989, 75.7819, -0.000976562, -0.000976562, 0, -0.0830078, 0.335938, -9.72754, 1.18.2022 20:3:22.290
236, 1.92281, 359.989, 75.7819, -0.000976562, -0.000976562, 0, -0.00683594, 0.319336, -9.73145, 1.18.2022 20:3:22.298
237, 1.92281, 359.989, 75.7819, -0.000976562, -0.000976562, 0, 0.0146484, 0.316406, -9.72949, 1.18.2022 20:3:22.306
238, 1.92281, 359.989, 75.7819, -0.000976562, 0, 0, -0.0302734, 0.345703, -9.7334, 1.18.2022 20:3:22.314
239, 1.92281, 359.989, 75.7819, 0, 0, 0, 0.0673828, 0.321289, -9.71875, 1.18.2022 20:3:22.322
240, 1.92281, 359.989, 75.7819, 0, -0.000976562, 0, 0.0078125, 0.329102, -9.73633, 1.18.2022 20:3:22.330
241, 1.92281, 359.989, 75.7819, 0, -0.000976562, 0, 0.0117188, 0.333984, -9.7627, 1.18.2022 20:3:22.338
242, 1.92281, 359.989, 75.7819, 0, -0.00195312, -0.000976562, 0.0527344, 0.307617, -9.74512, 1.18.2022 20:3:22.346
243, 1.92281, 359.989, 75.7819, -0.000976562, -0.000976562, 0, -0.0429688, 0.356445, -9.77539, 1.18.2022 20:3:22.354
244, 1.92281, 359.989, 75.7819, -0.000976562, 0, 0, 0.0478516, 0.333008, -9.73438, 1.18.2022 20:3:22.362
245, 1.92281, 359.989, 75.7819, -0.000976562, -0.000976562, 0, -0.00488281, 0.338867, -9.75488, 1.18.2022 20:3:22.370
246, 1.92281, 359.989, 75.7819, -0.000976562, 0, -0.00195312, -0.0546875, 0.336914, -9.77539, 1.18.2022 20:3:22.378
247, 1.92281, 359.989, 75.7819, -0.000976562, -0.000976562, -0.00195312, 0.0576172, 0.304688, -9.73828, 1.18.2022 20:3:22.386
248, 1.92281, 359.989, 75.7819, -0.000976562, -0.000976562, -0.000976562, 0.0166016, 0.338867, -9.75293, 1.18.2022 20:3:22.394
249, 1.92281, 359.989, 75.7819, 0, -0.000976562, 0.000976562, -0.0166016, 0.348633, -9.76855, 1.18.2022 20:3:22.402
250, 1.92281, 359.989, 75.7819, -0.000976562, -0.000976562, 0, 0.0332031, 0.3125, -9.74902, 1.18.2022 20:3:22.410
251, 1.92281, 359.989, 75.7819, 0, 0, -0.000976562, -0.0302734, 0.326172, -9.73828, 1.18.2022 20:3:22.418
252, 1.92281, 359.989, 75.7819, 0, -0.000976562, 0, 0.00976562, 0.345703, -9.73633, 1.18.2022 20:3:22.426
253, 1.92281, 359.989, 75.7819, 0, 0, 0, 0.0410156, 0.34082, -9.75098, 1.18.2022 20:3:22.434
254, 1.91852, 359.995, 75.7819, 0, -0.000976562, 0, -0.0273438, 0.34668, -9.70508, 1.18.2022 20:3:22.442
255, 1.91852, 359.995, 75.7819, -0.000976562, 0, 0, 0.0380859, 0.329102, -9.76953, 1.18.2022 20:3:22.450
256, 1.92281, 359.989, 75.7819, -0.000976562, -0.000976562, 0, -0.00195312, 0.30957, -9.74121, 1.18.2022 20:3:22.458
257, 1.92281, 359.989, 75.7819, -0.000976562, -0.000976562, 0.000976562, -0.0615234, 0.342773, -9.73242, 1.18.2022 20:3:22.466
258, 1.92281, 359.989, 75.7819, -0.000976562, -0.000976562, 0, 0.0390625, 0.304688, -9.81348, 1.18.2022 20:3:22.474
259, 1.92281, 359.989, 75.7819, -0.000976562, 0, 0, -0.0263672, 0.350586, -9.75879, 1.18.2022 20:3:22.482
260, 1.92281, 359.989, 75.7819, -0.000976562, -0.000976562, 0, -0.00195312, 0.347656, -9.74023, 1.18.2022 20:3:22.490
261, 1.92281, 359.989, 75.7819, -0.000976562, 0, 0, 0.00976562, 0.302734, -9.75879, 1.18.2022 20:3:22.498
262, 1.92281, 359.989, 75.7819, -0.000976562, 0, 0, -0.0556641, 0.325195, -9.78516, 1.18.2022 20:3:22.506
263, 1.92281, 359.989, 75.7819, -0.000976562, -0.00195312, 0, 0.0263672, 0.30957, -9.74219, 1.18.2022 20:3:22.514
264, 1.92281, 359.989, 75.7819, 0, -0.000976562, 0, 0.00292969, 0.300781, -9.74902, 1.18.2022 20:3:22.522
265, 1.92281, 359.989, 75.7819, -0.000976562, -0.000976562, 0, -0.0585938, 0.351562, -9.71387, 1.18.2022 20:3:22.530
266, 1.92281, 359.989, 75.7819, -0.000976562, -0.000976562, -0.000976562, 0.0449219, 0.319336, -9.75098, 1.18.2022 20:3:22.538
267, 1.92281, 359.989, 75.7819, 0, -0.000976562, 0, -0.0136719, 0.318359, -9.71484, 1.18.2022 20:3:22.546
268, 1.92281, 359.989, 75.7819, -0.000976562, -0.000976562, 0.000976562, -0.00683594, 0.356445, -9.7168, 1.18.2022 20:3:22.554
269, 1.92281, 359.989, 75.7819, -0.00195312, -0.000976562, 0.000976562, 0.0458984, 0.299805, -9.72852, 1.18.2022 20:3:22.562
270, 1.92281, 359.989, 75.7819, -0.00195312, -0.000976562, 0, -0.0537109, 0.337891, -9.7207, 1.18.2022 20:3:22.570
271, 1.92281, 359.989, 75.7819, -0.000976562, -0.000976562, 0, 0.0390625, 0.320312, -9.70215, 1.18.2022 20:3:22.578
272, 1.92281, 359.989, 75.7819, -0.000976562, -0.000976562, 0, 0.0136719, 0.289062, -9.77539, 1.18.2022 20:3:22.586
273, 1.92281, 359.989, 75.7819, 0, -0.000976562, 0, -0.0546875, 0.350586, -9.73242, 1.18.2022 20:3:22.594
274, 1.92281, 359.989, 75.7819, -0.000976562, 0, 0, 0.0664062, 0.324219, -9.75684, 1.18.2022 20:3:22.602
275, 1.92281, 359.989, 75.7819, -0.000976562, 0, 0, -0.0234375, 0.342773, -9.71191, 1.18.2022 20:3:22.610
276, 1.92281, 359.989, 75.7819, -0.000976562, -0.000976562, 0, -0.00390625, 0.354492, -9.70508, 1.18.2022 20:3:22.618
277, 1.92281, 359.989, 75.7819, -0.000976562, -0.000976562, 0, 0.0507812, 0.311523, -9.7168, 1.18.2022 20:3:22.626
278, 1.92281, 359.989, 75.7819, -0.000976562, -0.000976562, 0, -0.0615234, 0.342773, -9.7207, 1.18.2022 20:3:22.634
279, 1.92281, 359.989, 75.7819, -0.000976562, -0.000976562, 0, 0.00292969, 0.337891, -9.7334, 1.18.2022 20:3:22.642
280, 1.92281, 359.989, 75.7819, -0.000976562, -0.00195312, -0.000976562, 0.0214844, 0.306641, -9.73047, 1.18.2022 20:3:22.650
281, 1.92281, 359.989, 75.7819, -0.000976562, -0.000976562, -0.000976562, -0.0654297, 0.349609, -9.70117, 1.18.2022 20:3:22.658
282, 1.92303, 359.989, 75.7806, -0.000976562, -0.000976562, -0.000976562, 0.0390625, 0.322266, -9.69238, 1.18.2022 20:3:22.666
283, 1.92303, 359.989, 75.7806, 0, -0.000976562, 0.000976562, 0.00292969, 0.322266, -9.75098, 1.18.2022 20:3:22.674
284, 1.92303, 359.989, 75.7806, -0.00195312, -0.000976562, -0.000976562, -0.0234375, 0.342773, -9.72852, 1.18.2022 20:3:22.682
285, 1.92275, 359.989, 75.7709, -0.000976562, 0, -0.000976562, 0.0537109, 0.313477, -9.7041, 1.18.2022 20:3:22.690
286, 1.92275, 359.989, 75.7709, -0.000976562, -0.000976562, -0.000976562, -0.0234375, 0.335938, -9.73828, 1.18.2022 20:3:22.698
287, 1.92275, 359.989, 75.7709, -0.000976562, -0.000976562, -0.000976562, -0.00683594, 0.342773, -9.72852, 1.18.2022 20:3:22.706
288, 1.92275, 359.989, 75.7709, -0.000976562, -0.000976562, -0.000976562, 0.0507812, 0.323242, -9.71094, 1.18.2022 20:3:22.714
289, 1.92275, 359.989, 75.7709, -0.000976562, -0.000976562, -0.000976562, -0.0664062, 0.338867, -9.74707, 1.18.2022 20:3:22.722
290, 1.92275, 359.989, 75.7709, -0.000976562, -0.00195312, -0.000976562, 0.0166016, 0.317383, -9.75293, 1.18.2022 20:3:22.730
291, 1.92275, 359.989, 75.7709, -0.000976562, -0.000976562, -0.000976562, 0.0175781, 0.330078, -9.71094, 1.18.2022 20:3:22.738
292, 1.92275, 359.989, 75.7709, -0.000976562, -0.000976562, -0.00195312, -0.0234375, 0.338867, -9.75, 1.18.2022 20:3:22.746
293, 1.92275, 359.989, 75.7709, -0.000976562, 0, -0.000976562, 0.0546875, 0.3125, -9.77051, 1.18.2022 20:3:22.754
294, 1.92275, 359.989, 75.7709, 0, 0, -0.00195312, -0.0244141, 0.332031, -9.78027, 1.18.2022 20:3:22.762
295, 1.92275, 359.989, 75.7709, -0.000976562, -0.000976562, -0.000976562, -0.0205078, 0.325195, -9.70801, 1.18.2022 20:3:22.770
296, 1.92275, 359.989, 75.7709, -0.000976562, -0.000976562, -0.000976562, 0.0175781, 0.306641, -9.73047, 1.18.2022 20:3:22.778
297, 1.92275, 359.989, 75.7709, 0, 0, -0.000976562, -0.0595703, 0.335938, -9.74219, 1.18.2022 20:3:22.786
298, 1.92275, 359.989, 75.7709, -0.000976562, 0, -0.000976562, 0.0283203, 0.34082, -9.75293, 1.18.2022 20:3:22.794
299, 1.92275, 359.989, 75.7709, -0.000976562, 0, 0.000976562, 0.00976562, 0.319336, -9.74414, 1.18.2022 20:3:22.802
300, 1.92275, 359.989, 75.7709, -0.000976562, 0, -0.000976562, -0.0283203, 0.347656, -9.74512, 1.18.2022 20:3:22.810
301, 1.92275, 359.989, 75.7709, 0, 0, -0.00195312, 0.0332031, 0.34375, -9.75293, 1.18.2022 20:3:22.818
302, 1.92297, 359.989, 75.7696, 0, 0.000976562, -0.000976562, -0.0117188, 0.305664, -9.75293, 1.18.2022 20:3:22.826
303, 1.92297, 359.989, 75.7696, -0.000976562, 0.000976562, 0.000976562, -0.0283203, 0.336914, -9.7666, 1.18.2022 20:3:22.834
304, 1.92297, 359.989, 75.7696, -0.000976562, 0, -0.000976562, 0.0712891, 0.328125, -9.78906, 1.18.2022 20:3:22.842
305, 1.92297, 359.989, 75.7696, -0.000976562, 0, -0.000976562, -0.0400391, 0.34082, -9.74902, 1.18.2022 20:3:22.850
306, 1.92269, 359.989, 75.7599, -0.000976562, -0.000976562, -0.000976562, 0.0126953, 0.332031, -9.68945, 1.18.2022 20:3:22.858
307, 1.92269, 359.989, 75.7599, -0.000976562, -0.000976562, -0.00195312, 0.0595703, 0.332031, -9.7627, 1.18.2022 20:3:22.866
308, 1.92269, 359.989, 75.7599, -0.000976562, -0.000976562, -0.000976562, -0.0400391, 0.333008, -9.73535, 1.18.2022 20:3:22.874
309, 1.92269, 359.989, 75.7599, -0.000976562, 0, -0.000976562, 0.0595703, 0.30957, -9.74023, 1.18.2022 20:3:22.882
310, 1.92269, 359.989, 75.7599, 0, 0, 0.000976562, 0.00976562, 0.34375, -9.77344, 1.18.2022 20:3:22.890
311, 1.92269, 359.989, 75.7599, 0, 0, -0.000976562, -0.0136719, 0.331055, -9.74805, 1.18.2022 20:3:22.898
312, 1.92269, 359.989, 75.7599, 0, 0, 0, 0.0546875, 0.290039, -9.74023, 1.18.2022 20:3:22.906
313, 1.9229, 359.989, 75.7586, 0, 0, 0, -0.0253906, 0.331055, -9.72852, 1.18.2022 20:3:22.914
314, 1.9229, 359.989, 75.7586, 0, -0.000976562, -0.000976562, -0.0146484, 0.324219, -9.75781, 1.18.2022 20:3:22.922
315, 1.9229, 359.989, 75.7586, -0.000976562, -0.000976562, -0.000976562, 0.0214844, 0.327148, -9.75293, 1.18.2022 20:3:22.930
316, 1.9229, 359.989, 75.7586, 0, 0, 0.000976562, -0.0478516, 0.350586, -9.75879, 1.18.2022 20:3:22.938
317, 1.9229, 359.989, 75.7586, -0.000976562, 0, 0, 0.03125, 0.325195, -9.76758, 1.18.2022 20:3:22.946
318, 1.9229, 359.989, 75.7586, -0.000976562, -0.000976562, -0.000976562, -0.00488281, 0.319336, -9.73926, 1.18.2022 20:3:22.954
319, 1.9229, 359.989, 75.7586, -0.000976562, -0.000976562, -0.000976562, -0.0478516, 0.353516, -9.76758, 1.18.2022 20:3:22.962
320, 1.9229, 359.989, 75.7586, -0.000976562, -0.000976562, -0.00195312, 0.0595703, 0.335938, -9.74609, 1.18.2022 20:3:22.970
321, 1.9229, 359.989, 75.7586, -0.000976562, 0, 0, -0.0458984, 0.3125, -9.7666, 1.18.2022 20:3:22.978
322, 1.9229, 359.989, 75.7586, -0.000976562, 0, 0, 0.0078125, 0.337891, -9.72656, 1.18.2022 20:3:22.986
323, 1.9229, 359.989, 75.7586, -0.000976562, -0.000976562, -0.000976562, 0.0439453, 0.318359, -9.71875, 1.18.2022 20:3:22.994
324, 1.9229, 359.989, 75.7586, -0.000976562, 0, 0, -0.0449219, 0.350586, -9.74414, 1.18.2022 20:3:23.002
325, 1.9229, 359.989, 75.7586, -0.000976562, 0, 0, 0.0292969, 0.337891, -9.74121, 1.18.2022 20:3:23.010
326, 1.9229, 359.989, 75.7586, 0, 0, 0, 0.0429688, 0.319336, -9.76367, 1.18.2022 20:3:23.018
327, 1.9229, 359.989, 75.7586, 0, -0.000976562, -0.000976562, -0.0332031, 0.335938, -9.72656, 1.18.2022 20:3:23.026
328, 1.9229, 359.989, 75.7586, -0.000976562, -0.000976562, -0.000976562, 0.0458984, 0.306641, -9.73242, 1.18.2022 20:3:23.034
329, 1.9229, 359.989, 75.7586, -0.000976562, -0.000976562, -0.000976562, -0.0136719, 0.30957, -9.72754, 1.18.2022 20:3:23.042
330, 1.9229, 359.989, 75.7586, -0.000976562, 0, 0.000976562, -0.00390625, 0.344727, -9.72656, 1.18.2022 20:3:23.050
331, 1.9229, 359.989, 75.7586, 0, -0.000976562, -0.00195312, 0.0498047, 0.322266, -9.75879, 1.18.2022 20:3:23.058
332, 1.9229, 359.989, 75.7586, 0, -0.000976562, -0.000976562, -0.0449219, 0.364258, -9.72266, 1.18.2022 20:3:23.066
333, 1.9229, 359.989, 75.7586, 0, 0, 0, -0.00195312, 0.335938, -9.73828, 1.18.2022 20:3:23.074
334, 1.9229, 359.989, 75.7586, -0.000976562, 0, 0, 0.00976562, 0.316406, -9.72949, 1.18.2022 20:3:23.082
335, 1.9229, 359.989, 75.7586, -0.000976562, 0, 0, -0.0322266, 0.366211, -9.70898, 1.18.2022 20:3:23.090
336, 1.9229, 359.989, 75.7586, -0.000976562, 0, 0, 0.0390625, 0.318359, -9.69922, 1.18.2022 20:3:23.098
337, 1.9229, 359.989, 75.7586, -0.000976562, 0, 0, -0.0244141, 0.3125, -9.7666, 1.18.2022 20:3:23.106
338, 1.9229, 359.989, 75.7586, 0, 0, 0, -0.0214844, 0.337891, -9.7334, 1.18.2022 20:3:23.114
339, 1.9229, 359.989, 75.7586, -0.000976562, 0, 0, 0.0380859, 0.304688, -9.73535, 1.18.2022 20:3:23.122
340, 1.9229, 359.989, 75.7586, -0.000976562, 0, 0.000976562, -0.0400391, 0.331055, -9.73535, 1.18.2022 20:3:23.130
341, 1.91739, 359.985, 75.7587, 0, 0, 0, -0.0214844, 0.324219, -9.74316, 1.18.2022 20:3:23.138
342, 1.91739, 359.985, 75.7587, -0.000976562, 0, -0.00195312, 0.00683594, 0.307617, -9.75586, 1.18.2022 20:3:23.146
343, 1.91739, 359.985, 75.7587, 0, 0, 0, -0.0673828, 0.365234, -9.77246, 1.18.2022 20:3:23.154
344, 1.91711, 359.985, 75.7491, -0.000976562, -0.000976562, -0.000976562, 0.0263672, 0.297852, -9.74219, 1.18.2022 20:3:23.162
345, 1.91711, 359.985, 75.7491, -0.000976562, -0.000976562, -0.00195312, 0.00292969, 0.299805, -9.73047, 1.18.2022 20:3:23.170
346, 1.92263, 359.989, 75.7489, -0.000976562, 0, -0.00195312, -0.0537109, 0.325195, -9.69043, 1.18.2022 20:3:23.178
347, 1.92263, 359.989, 75.7489, 0, -0.000976562, -0.000976562, 0.0341797, 0.314453, -9.73438, 1.18.2022 20:3:23.186
348, 1.92284, 359.989, 75.7476, -0.000976562, -0.000976562, -0.000976562, -0.0136719, 0.338867, -9.75, 1.18.2022 20:3:23.194
349, 1.92284, 359.989, 75.7476, -0.000976562, -0.000976562, -0.000976562, 0.00390625, 0.336914, -9.69824, 1.18.2022 20:3:23.202
350, 1.92284, 359.989, 75.7476, -0.00195312, -0.000976562, -0.000976562, 0.0361328, 0.296875, -9.71191, 1.18.2022 20:3:23.208
351, 1.92284, 359.989, 75.7476, -0.000976562, -0.000976562, -0.00195312, -0.0585938, 0.339844, -9.70898, 1.18.2022 20:3:23.216
352, 1.92284, 359.989, 75.7476, 0, -0.000976562, -0.000976562, 0.0341797, 0.323242, -9.72266, 1.18.2022 20:3:23.224
353, 1.92284, 359.989, 75.7476, 0, 0, 0, -0.00683594, 0.304688, -9.72949, 1.18.2022 20:3:23.232
354, 1.92284, 359.989, 75.7476, -0.000976562, 0, -0.00195312, -0.0283203, 0.342773, -9.73828, 1.18.2022 20:3:23.240
355, 1.92284, 359.989, 75.7476, 0, -0.000976562, -0.000976562, 0.0546875, 0.305664, -9.77051, 1.18.2022 20:3:23.248
356, 1.92284, 359.989, 75.7476, -0.000976562, 0, -0.00195312, -0.0214844, 0.297852, -9.73926, 1.18.2022 20:3:23.256
357, 1.92284, 359.989, 75.7476, 0, 0, 0, -0.0302734, 0.34082, -9.73828, 1.18.2022 20:3:23.264
358, 1.92284, 359.989, 75.7476, -0.000976562, -0.000976562, -0.000976562, 0.0478516, 0.301758, -9.73535, 1.18.2022 20:3:23.272
359, 1.92284, 359.989, 75.7476, -0.000976562, 0, 0, -0.0263672, 0.345703, -9.75391, 1.18.2022 20:3:23.280
360, 1.92284, 359.989, 75.7476, -0.000976562, 0, 0.000976562, 0.0322266, 0.325195, -9.69922, 1.18.2022 20:3:23.288
361, 1.92284, 359.989, 75.7476, -0.000976562, -0.000976562, -0.000976562, 0.0458984, 0.326172, -9.73438, 1.18.2022 20:3:23.296
362, 1.92284, 359.989, 75.7476, -0.000976562, -0.000976562, -0.000976562, -0.0400391, 0.333008, -9.70703, 1.18.2022 20:3:23.304
363, 1.92284, 359.989, 75.7476, 0, -0.000976562, -0.000976562, 0.0361328, 0.333008, -9.73633, 1.18.2022 20:3:23.312
364, 1.92284, 359.989, 75.7476, -0.000976562, -0.000976562, -0.000976562, -0.00292969, 0.308594, -9.79102, 1.18.2022 20:3:23.320
365, 1.92284, 359.989, 75.7476, 0, -0.000976562, -0.000976562, -0.0332031, 0.34375, -9.75391, 1.18.2022 20:3:23.328
366, 1.92284, 359.989, 75.7476, -0.000976562, -0.000976562, -0.000976562, 0.0615234, 0.317383, -9.76562, 1.18.2022 20:3:23.336
367, 1.92284, 359.989, 75.7476, 0, 0, 0, -0.0566406, 0.326172, -9.7334, 1.18.2022 20:3:23.344
368, 1.92284, 359.989, 75.7476, -0.000976562, -0.000976562, -0.000976562, -0.00195312, 0.322266, -9.75098, 1.18.2022 20:3:23.352
369, 1.92284, 359.989, 75.7476, -0.000976562, 0, -0.00195312, 0.0146484, 0.316406, -9.73242, 1.18.2022 20:3:23.360
370, 1.92284, 359.989, 75.7476, -0.000976562, -0.00195312, -0.000976562, -0.0517578, 0.349609, -9.71094, 1.18.2022 20:3:23.368
371, 1.92284, 359.989, 75.7476, -0.000976562, -0.000976562, -0.000976562, 0.0410156, 0.321289, -9.74219, 1.18.2022 20:3:23.376
372, 1.92284, 359.989, 75.7476, -0.000976562, 0, -0.00195312, 0.000976562, 0.328125, -9.72168, 1.18.2022 20:3:23.384
373, 1.92284, 359.989, 75.7476, -0.000976562, 0, -0.00195312, -0.0410156, 0.341797, -9.78516, 1.18.2022 20:3:23.392
374, 1.92284, 359.989, 75.7476, -0.000976562, 0, 0, 0.0410156, 0.339844, -9.71973, 1.18.2022 20:3:23.400
375, 1.92284, 359.989, 75.7476, -0.000976562, -0.000976562, -0.000976562, -0.0351562, 0.329102, -9.74316, 1.18.2022 20:3:23.408
376, 1.92284, 359.989, 75.7476, 0, 0, 0.000976562, 0, 0.352539, -9.73828, 1.18.2022 20:3:23.416
377, 1.92284, 359.989, 75.7476, 0, -0.000976562, 0, 0.0292969, 0.304688, -9.7207, 1.18.2022 20:3:23.424
378, 1.92284, 359.989, 75.7476, -0.000976562, -0.000976562, 0, -0.0878906, 0.319336, -9.74707, 1.18.2022 20:3:23.432
379, 1.92284, 359.989, 75.7476, -0.000976562, -0.000976562, 0, 0.0263672, 0.317383, -9.77051, 1.18.2022 20:3:23.440
380, 1.92284, 359.989, 75.7476, -0.000976562, 0, 0, -0.0263672, 0.327148, -9.75684, 1.18.2022 20:3:23.448
381, 1.92284, 359.989, 75.7476, -0.000976562, -0.000976562, 0, -0.0429688, 0.319336, -9.74805, 1.18.2022 20:3:23.456
382, 1.92263, 359.989, 75.7489, -0.000976562, -0.000976562, 0, 0.0507812, 0.273438, -9.73828, 1.18.2022 20:3:23.464
383, 1.92263, 359.989, 75.7489, -0.000976562, -0.000976562, 0, -0.0166016, 0.321289, -9.74316, 1.18.2022 20:3:23.472
384, 1.92263, 359.989, 75.7489, -0.000976562, 0, 0, -0.00585938, 0.356445, -9.70703, 1.18.2022 20:3:23.480
385, 1.92263, 359.989, 75.7489, -0.000976562, -0.000976562, 0, 0.0322266, 0.310547, -9.69922, 1.18.2022 20:3:23.488
386, 1.92263, 359.989, 75.7489, -0.000976562, -0.000976562, 0, -0.0449219, 0.371094, -9.72754, 1.18.2022 20:3:23.496
387, 1.9229, 359.989, 75.7586, 0, 0, 0, 0.0078125, 0.326172, -9.73926, 1.18.2022 20:3:23.504
388, 1.9229, 359.989, 75.7586, 0, 0.000976562, 0.000976562, 0.0126953, 0.331055, -9.73633, 1.18.2022 20:3:23.512
389, 1.9229, 359.989, 75.7586, -0.000976562, -0.000976562, 0.000976562, -0.0722656, 0.339844, -9.78906, 1.18.2022 20:3:23.520
390, 1.9229, 359.989, 75.7586, -0.00195312, -0.00195312, -0.000976562, 0.0546875, 0.297852, -9.7666, 1.18.2022 20:3:23.528
391, 1.9229, 359.989, 75.7586, -0.000976562, -0.00195312, 0, -0.0117188, 0.333984, -9.74805, 1.18.2022 20:3:23.536
392, 1.9229, 359.989, 75.7586, -0.000976562, -0.000976562, 0, -0.0117188, 0.333008, -9.73633, 1.18.2022 20:3:23.544
393, 1.9229, 359.989, 75.7586, 0, -0.000976562, 0.000976562, 0.0527344, 0.294922, -9.73828, 1.18.2022 20:3:23.552
394, 1.9229, 359.989, 75.7586, 0, -0.000976562, 0, -0.0351562, 0.342773, -9.7334, 1.18.2022 20:3:23.560
395, 1.9229, 359.989, 75.7586, -0.000976562, -0.000976562, -0.000976562, 0.00488281, 0.348633, -9.7666, 1.18.2022 20:3:23.568
396, 1.9229, 359.989, 75.7586, 0, -0.000976562, 0, 0.03125, 0.333984, -9.75098, 1.18.2022 20:3:23.576
397, 1.9229, 359.989, 75.7586, -0.000976562, -0.000976562, -0.000976562, -0.0429688, 0.324219, -9.7334, 1.18.2022 20:3:23.584
398, 1.9229, 359.989, 75.7586, -0.000976562, 0, 0, 0.0410156, 0.314453, -9.75195, 1.18.2022 20:3:23.592
399, 1.9229, 359.989, 75.7586, -0.000976562, -0.000976562, -0.000976562, -0.0146484, 0.322266, -9.75977, 1.18.2022 20:3:23.600
400, 1.9229, 359.989, 75.7586, -0.00195312, -0.000976562, -0.000976562, -0.0351562, 0.331055, -9.71875, 1.18.2022 20:3:23.608
401, 1.9229, 359.989, 75.7586, 0, 0, 0, 0.0527344, 0.292969, -9.75488, 1.18.2022 20:3:23.616
402, 1.9229, 359.989, 75.7586, 0, 0, -0.000976562, -0.0449219, 0.335938, -9.74512, 1.18.2022 20:3:23.624
403, 1.9229, 359.989, 75.7586, -0.000976562, 0.000976562, -0.000976562, 0.000976562, 0.301758, -9.71777, 1.18.2022 20:3:23.632
404, 1.9229, 359.989, 75.7586, 0, 0, 0, 0.0126953, 0.326172, -9.72461, 1.18.2022 20:3:23.640
405, 1.9229, 359.989, 75.7586, -0.000976562, -0.00195312, 0, -0.0644531, 0.367188, -9.75293, 1.18.2022 20:3:23.648
406, 1.9229, 359.989, 75.7586, -0.000976562, -0.000976562, 0, 0.0263672, 0.326172, -9.73438, 1.18.2022 20:3:23.656
407, 1.9229, 359.989, 75.7586, -0.000976562, -0.00195312, 0.000976562, 0, 0.333984, -9.75, 1.18.2022 20:3:23.664
408, 1.9229, 359.989, 75.7586, -0.000976562, -0.000976562, 0, -0.0292969, 0.34668, -9.68555, 1.18.2022 20:3:23.672
409, 1.9229, 359.989, 75.7586, 0, -0.000976562, -0.00195312, 0.0488281, 0.311523, -9.71582, 1.18.2022 20:3:23.680
410, 1.9229, 359.989, 75.7586, 0, 0, -0.000976562, -0.0234375, 0.338867, -9.74512, 1.18.2022 20:3:23.688
411, 1.9229, 359.989, 75.7586, -0.000976562, 0, 0, -0.015625, 0.352539, -9.72363, 1.18.2022 20:3:23.696
412, 1.9229, 359.989, 75.7586, -0.000976562, -0.000976562, 0, 0.0576172, 0.318359, -9.73047, 1.18.2022 20:3:23.704
413, 1.9229, 359.989, 75.7586, 0, 0, -0.000976562, -0.0390625, 0.334961, -9.79199, 1.18.2022 20:3:23.712
414, 1.9229, 359.989, 75.7586, 0, -0.000976562, -0.00195312, 0, 0.337891, -9.74121, 1.18.2022 20:3:23.720
415, 1.9229, 359.989, 75.7586, -0.000976562, -0.000976562, 0, 0.00488281, 0.322266, -9.75781, 1.18.2022 20:3:23.728
416, 1.9229, 359.989, 75.7586, 0, -0.000976562, 0, -0.0498047, 0.331055, -9.75, 1.18.2022 20:3:23.736
417, 1.9229, 359.989, 75.7586, -0.000976562, -0.000976562, -0.000976562, 0.0527344, 0.344727, -9.71973, 1.18.2022 20:3:23.744
418, 1.9229, 359.989, 75.7586, -0.000976562, -0.000976562, 0, 0.0078125, 0.333008, -9.71484, 1.18.2022 20:3:23.752
419, 1.9229, 359.989, 75.7586, -0.00195312, -0.000976562, 0, -0.0136719, 0.318359, -9.70312, 1.18.2022 20:3:23.760
420, 1.9229, 359.989, 75.7586, -0.000976562, -0.000976562, 0, 0.0429688, 0.295898, -9.75488, 1.18.2022 20:3:23.768
421, 1.9229, 359.989, 75.7586, -0.000976562, -0.000976562, 0, -0.0263672, 0.338867, -9.74023, 1.18.2022 20:3:23.776
422, 1.9229, 359.989, 75.7586, 0, -0.000976562, 0, -0.00195312, 0.314453, -9.73145, 1.18.2022 20:3:23.784
423, 1.9229, 359.989, 75.7586, 0, 0, 0, 0.0478516, 0.326172, -9.7373, 1.18.2022 20:3:23.792
424, 1.9229, 359.989, 75.7586, -0.000976562, 0, 0, -0.0332031, 0.333984, -9.74707, 1.18.2022 20:3:23.800
425, 1.9229, 359.989, 75.7586, -0.000976562, -0.000976562, 0, 0.0302734, 0.310547, -9.78027, 1.18.2022 20:3:23.808
426, 1.9229, 359.989, 75.7586, -0.000976562, 0, 0, 0.00585938, 0.321289, -9.71777, 1.18.2022 20:3:23.816
427, 1.9229, 359.989, 75.7586, -0.000976562, 0, 0, -0.00195312, 0.342773, -9.73633, 1.18.2022 20:3:23.824
428, 1.9229, 359.989, 75.7586, -0.000976562, 0, 0, 0.0625, 0.319336, -9.7373, 1.18.2022 20:3:23.832
429, 1.9229, 359.989, 75.7586, -0.000976562, 0, 0, -0.0283203, 0.333984, -9.7666, 1.18.2022 20:3:23.840
430, 1.9229, 359.989, 75.7586, 0, -0.000976562, 0, 0.0195312, 0.335938, -9.72656, 1.18.2022 20:3:23.848
431, 1.92269, 359.989, 75.7599, 0, -0.000976562, -0.00195312, 0.0244141, 0.306641, -9.71387, 1.18.2022 20:3:23.856
432, 1.92269, 359.989, 75.7599, 0, -0.000976562, -0.00195312, -0.0517578, 0.337891, -9.7373, 1.18.2022 20:3:23.864
433, 1.92269, 359.989, 75.7599, -0.000976562, 0, 0, 0.0380859, 0.314453, -9.73535, 1.18.2022 20:3:23.872
434, 1.92269, 359.989, 75.7599, -0.00195312, 0, 0.000976562, 0.0117188, 0.322266, -9.7627, 1.18.2022 20:3:23.880
435, 1.92269, 359.989, 75.7599, 0, 0, 0, -0.0234375, 0.333008, -9.7334, 1.18.2022 20:3:23.888
436, 1.92269, 359.989, 75.7599, -0.000976562, -0.000976562, 0, 0.0390625, 0.308594, -9.71582, 1.18.2022 20:3:23.896
437, 1.92269, 359.989, 75.7599, -0.000976562, -0.000976562, 0, -0.0332031, 0.321289, -9.72656, 1.18.2022 20:3:23.904
438, 1.9229, 359.989, 75.7586, 0, 0, 0, -0.0214844, 0.345703, -9.74023, 1.18.2022 20:3:23.912
439, 1.9229, 359.989, 75.7586, -0.000976562, -0.000976562, 0, 0.0380859, 0.300781, -9.76562, 1.18.2022 20:3:23.920
440, 1.9229, 359.989, 75.7586, -0.000976562, -0.000976562, -0.000976562, -0.0322266, 0.334961, -9.71875, 1.18.2022 20:3:23.928
441, 1.9229, 359.989, 75.7586, -0.000976562, -0.000976562, 0, 0.00976562, 0.342773, -9.72168, 1.18.2022 20:3:23.936
442, 1.9229, 359.989, 75.7586, -0.000976562, -0.000976562, -0.000976562, 0.0078125, 0.316406, -9.73926, 1.18.2022 20:3:23.944
443, 1.9229, 359.989, 75.7586, -0.00195312, 0, -0.000976562, -0.0498047, 0.335938, -9.74707, 1.18.2022 20:3:23.952
444, 1.9229, 359.989, 75.7586, -0.000976562, -0.000976562, 0, 0.0214844, 0.311523, -9.7373, 1.18.2022 20:3:23.960
445, 1.9229, 359.989, 75.7586, -0.000976562, 0, 0.000976562, -0.0400391, 0.322266, -9.74512, 1.18.2022 20:3:23.968
446, 1.9229, 359.989, 75.7586, 0, 0, 0, -0.0117188, 0.353516, -9.75391, 1.18.2022 20:3:23.976
447, 1.9229, 359.989, 75.7586, -0.000976562, 0, 0, 0.0410156, 0.314453, -9.74707, 1.18.2022 20:3:23.984
448, 1.9229, 359.989, 75.7586, -0.000976562, 0, 0.000976562, -0.0517578, 0.331055, -9.7373, 1.18.2022 20:3:23.992
449, 1.92263, 359.989, 75.7489, -0.000976562, 0, 0, 0.0224609, 0.325195, -9.69629, 1.18.2022 20:3:24.000
450, 1.92263, 359.989, 75.7489, -0.000976562, 0, 0, 0.0380859, 0.317383, -9.75391, 1.18.2022 20:3:24.008
451, 1.92263, 359.989, 75.7489, -0.000976562, -0.000976562, 0, -0.0351562, 0.34668, -9.7002, 1.18.2022 20:3:24.016
452, 1.92263, 359.989, 75.7489, -0.000976562, -0.000976562, 0, 0.0361328, 0.34082, -9.74121, 1.18.2022 20:3:24.024
453, 1.92284, 359.989, 75.7476, -0.000976562, -0.000976562, 0, 0.00292969, 0.30957, -9.7373, 1.18.2022 20:3:24.032
454, 1.92284, 359.989, 75.7476, -0.00195312, -0.000976562, 0, -0.00390625, 0.362305, -9.7334, 1.18.2022 20:3:24.040
455, 1.92284, 359.989, 75.7476, -0.000976562, -0.000976562, 0, 0.0625, 0.30957, -9.74707, 1.18.2022 20:3:24.048
456, 1.92284, 359.989, 75.7476, -0.000976562, 0, 0, -0.0185547, 0.323242, -9.72656, 1.18.2022 20:3:24.056
457, 1.92284, 359.989, 75.7476, -0.000976562, -0.000976562, 0, -0.00195312, 0.330078, -9.71484, 1.18.2022 20:3:24.064
458, 1.92284, 359.989, 75.7476, 0, -0.000976562, -0.000976562, 0.0283203, 0.3125, -9.75098, 1.18.2022 20:3:24.072
459, 1.92284, 359.989, 75.7476, 0, -0.000976562, 0, -0.0556641, 0.317383, -9.69043, 1.18.2022 20:3:24.080
460, 1.92284, 359.989, 75.7476, 0, -0.000976562, 0.000976562, 0.0556641, 0.332031, -9.70898, 1.18.2022 20:3:24.088
461, 1.92284, 359.989, 75.7476, -0.000976562, -0.000976562, -0.000976562, 0.0205078, 0.310547, -9.68945, 1.18.2022 20:3:24.096
462, 1.92284, 359.989, 75.7476, -0.000976562, 0, 0, -0.0253906, 0.330078, -9.70996, 1.18.2022 20:3:24.104
463, 1.92284, 359.989, 75.7476, -0.000976562, 0, 0, 0.0498047, 0.329102, -9.75879, 1.18.2022 20:3:24.112
464, 1.92284, 359.989, 75.7476, 0, 0, 0, -0.015625, 0.342773, -9.71484, 1.18.2022 20:3:24.120
465, 1.92263, 359.989, 75.7489, -0.000976562, -0.000976562, 0, 0, 0.345703, -9.73535, 1.18.2022 20:3:24.128
466, 1.92263, 359.989, 75.7489, -0.000976562, -0.000976562, 0, 0.0292969, 0.334961, -9.70605, 1.18.2022 20:3:24.136
467, 1.92263, 359.989, 75.7489, 0, -0.00195312, -0.000976562, -0.046875, 0.339844, -9.72363, 1.18.2022 20:3:24.144
468, 1.92263, 359.989, 75.7489, -0.000976562, -0.000976562, 0, 0.0166016, 0.319336, -9.7373, 1.18.2022 20:3:24.152
469, 1.9229, 359.989, 75.7586, -0.000976562, 0, 0, 0.0175781, 0.30957, -9.73242, 1.18.2022 20:3:24.160
470, 1.9229, 359.989, 75.7586, 0, -0.000976562, 0, -0.0449219, 0.342773, -9.7373, 1.18.2022 20:3:24.168
471, 1.9229, 359.989, 75.7586, -0.000976562, -0.00195312, 0, 0.03125, 0.307617, -9.74902, 1.18.2022 20:3:24.176
472, 1.9229, 359.989, 75.7586, 0, -0.000976562, 0, -0.0185547, 0.321289, -9.71973, 1.18.2022 20:3:24.184
473, 1.9229, 359.989, 75.7586, 0, -0.000976562, 0, -0.00585938, 0.338867, -9.68164, 1.18.2022 20:3:24.190
474, 1.92263, 359.989, 75.7489, -0.000976562, -0.000976562, 0, 0.0673828, 0.321289, -9.72559, 1.18.2022 20:3:24.198
475, 1.92263, 359.989, 75.7489, -0.000976562, -0.000976562, 0, -0.03125, 0.335938, -9.74707, 1.18.2022 20:3:24.208
476, 1.92263, 359.989, 75.7489, 0, -0.000976562, 0, -0.00292969, 0.332031, -9.77637, 1.18.2022 20:3:24.214
477, 1.92263, 359.989, 75.7489, 0, -0.000976562, 0, 0.0332031, 0.3125, -9.75586, 1.18.2022 20:3:24.222
478, 1.92263, 359.989, 75.7489, -0.000976562, -0.00195312, 0, -0.0332031, 0.326172, -9.73145, 1.18.2022 20:3:24.230
479, 1.92263, 359.989, 75.7489, -0.000976562, -0.00195312, 0, 0.0361328, 0.333984, -9.7627, 1.18.2022 20:3:24.238
480, 1.92814, 359.993, 75.7487, -0.000976562, 0, 0, 0.000976562, 0.313477, -9.71094, 1.18.2022 20:3:24.246
481, 1.92263, 359.989, 75.7489, -0.000976562, 0, 0, -0.0302734, 0.349609, -9.71875, 1.18.2022 20:3:24.254
482, 1.92263, 359.989, 75.7489, -0.000976562, 0, 0, 0.0576172, 0.316406, -9.74219, 1.18.2022 20:3:24.262
483, 1.92263, 359.989, 75.7489, 0, 0, 0, -0.0302734, 0.318359, -9.69336, 1.18.2022 20:3:24.270
484, 1.92263, 359.989, 75.7489, -0.000976562, 0, 0, 0.0214844, 0.30957, -9.74414, 1.18.2022 20:3:24.278
485, 1.92284, 359.989, 75.7476, -0.000976562, 0, 0, 0.0380859, 0.332031, -9.76074, 1.18.2022 20:3:24.286
486, 1.92284, 359.989, 75.7476, -0.000976562, -0.000976562, -0.00195312, -0.0419922, 0.316406, -9.72656, 1.18.2022 20:3:24.294
487, 1.92284, 359.989, 75.7476, -0.000976562, -0.000976562, 0, 0.0146484, 0.316406, -9.72266, 1.18.2022 20:3:24.302
488, 1.92284, 359.989, 75.7476, -0.000976562, -0.000976562, 0, 0.0078125, 0.325195, -9.70117, 1.18.2022 20:3:24.310
489, 1.92284, 359.989, 75.7476, -0.000976562, 0, 0.000976562, -0.0283203, 0.342773, -9.72852, 1.18.2022 20:3:24.318
490, 1.92284, 359.989, 75.7476, -0.000976562, -0.000976562, 0, 0.0380859, 0.297852, -9.7334, 1.18.2022 20:3:24.326
491, 1.92284, 359.989, 75.7476, -0.000976562, -0.000976562, 0.000976562, -0.0214844, 0.330078, -9.77832, 1.18.2022 20:3:24.334
492, 1.92284, 359.989, 75.7476, -0.000976562, -0.000976562, 0, -0.0166016, 0.354492, -9.73047, 1.18.2022 20:3:24.342
493, 1.92284, 359.989, 75.7476, -0.000976562, -0.000976562, 0.000976562, 0.0292969, 0.301758, -9.72559, 1.18.2022 20:3:24.350
494, 1.92284, 359.989, 75.7476, -0.000976562, 0, 0, -0.046875, 0.34082, -9.72559, 1.18.2022 20:3:24.358
495, 1.92284, 359.989, 75.7476, -0.000976562, 0, 0, 0.0439453, 0.348633, -9.70312, 1.18.2022 20:3:24.366
496, 1.92284, 359.989, 75.7476, -0.00195312, 0, 0, 0.00976562, 0.30957, -9.72754, 1.18.2022 20:3:24.374
497, 1.92284, 359.989, 75.7476, -0.000976562, -0.000976562, -0.00195312, -0.0332031, 0.327148, -9.7666, 1.18.2022 20:3:24.382
498, 1.92284, 359.989, 75.7476, -0.000976562, 0, 0, 0.0380859, 0.328125, -9.7373, 1.18.2022 20:3:24.390
499, 1.92278, 359.989, 75.7366, 0, -0.000976562, 0, -0.0185547, 0.330078, -9.71484, 1.18.2022 20:3:24.398
500, 1.92278, 359.989, 75.7366, -0.000976562, -0.000976562, 0, -0.015625, 0.339844, -9.7168, 1.18.2022 20:3:24.406
501, 1.92278, 359.989, 75.7366, -0.00195312, -0.000976562, -0.00195312, 0.0380859, 0.289062, -9.75879, 1.18.2022 20:3:24.414
502, 1.92278, 359.989, 75.7366, -0.000976562, 0, 0, -0.046875, 0.3125, -9.68164, 1.18.2022 20:3:24.422
503, 1.92278, 359.989, 75.7366, 0, 0, 0, 0.00488281, 0.329102, -9.73828, 1.18.2022 20:3:24.430
504, 1.92278, 359.989, 75.7366, -0.000976562, 0, -0.00195312, 0.0244141, 0.324219, -9.73926, 1.18.2022 20:3:24.438
505, 1.92278, 359.989, 75.7366, -0.000976562, 0, 0, -0.0332031, 0.360352, -9.76074, 1.18.2022 20:3:24.446
506, 1.92278, 359.989, 75.7366, -0.000976562, 0, 0, 0.0341797, 0.321289, -9.7373, 1.18.2022 20:3:24.454
507, 1.92278, 359.989, 75.7366, -0.000976562, 0, 0, 0, 0.31543, -9.7793, 1.18.2022 20:3:24.462
508, 1.92278, 359.989, 75.7366, -0.000976562, 0, 0, -0.015625, 0.333008, -9.71973, 1.18.2022 20:3:24.470
509, 1.92299, 359.989, 75.7352, -0.000976562, -0.000976562, 0, 0.0380859, 0.314453, -9.73242, 1.18.2022 20:3:24.478
510, 1.92299, 359.989, 75.7352, -0.000976562, 0, 0, -0.0234375, 0.338867, -9.74023, 1.18.2022 20:3:24.486
511, 1.92299, 359.989, 75.7352, -0.000976562, -0.000976562, 0, 0.0146484, 0.351562, -9.71973, 1.18.2022 20:3:24.494
512, 1.92299, 359.989, 75.7352, -0.000976562, 0, 0, 0.0244141, 0.290039, -9.7168, 1.18.2022 20:3:24.502
513, 1.927, 359.983, 75.7256, -0.000976562, -0.000976562, 0.000976562, -0.0498047, 0.360352, -9.73926, 1.18.2022 20:3:24.510
514, 1.92272, 359.989, 75.7255, -0.000976562, -0.000976562, 0, 0.0429688, 0.314453, -9.73926, 1.18.2022 20:3:24.518
515, 1.92272, 359.989, 75.7255, -0.000976562, -0.000976562, 0, 0.00390625, 0.341797, -9.69629, 1.18.2022 20:3:24.526
516, 1.92272, 359.989, 75.7255, 0, -0.000976562, 0, -0.0322266, 0.349609, -9.71875, 1.18.2022 20:3:24.534
517, 1.92272, 359.989, 75.7255, 0, 0, 0, 0.0644531, 0.326172, -9.74902, 1.18.2022 20:3:24.542
518, 1.92272, 359.989, 75.7255, 0, -0.000976562, 0, -0.0195312, 0.338867, -9.77344, 1.18.2022 20:3:24.550
519, 1.92272, 359.989, 75.7255, 0, -0.000976562, 0.000976562, 0.00976562, 0.359375, -9.73828, 1.18.2022 20:3:24.558
520, 1.92272, 359.989, 75.7255, 0, 0, 0, 0.0410156, 0.342773, -9.73633, 1.18.2022 20:3:24.566
521, 1.92293, 359.988, 75.7242, -0.000976562, -0.000976562, 0, -0.03125, 0.365234, -9.76074, 1.18.2022 20:3:24.574
522, 1.92293, 359.988, 75.7242, -0.000976562, -0.000976562, 0, 0.0351562, 0.329102, -9.76758, 1.18.2022 20:3:24.582
523, 1.92293, 359.988, 75.7242, -0.000976562, -0.000976562, 0.000976562, 0.0693359, 0.314453, -9.73828, 1.18.2022 20:3:24.590
524, 1.92293, 359.988, 75.7242, 0, 0, 0, -0.0224609, 0.338867, -9.68848, 1.18.2022 20:3:24.598
525, 1.92293, 359.988, 75.7242, 0, -0.000976562, -0.00195312, 0.0410156, 0.331055, -9.74902, 1.18.2022 20:3:24.606
526, 1.92265, 359.988, 75.7145, 0, -0.000976562, 0, -0.0283203, 0.335938, -9.75488, 1.18.2022 20:3:24.614
527, 1.92265, 359.988, 75.7145, 0, 0, 0, -0.0263672, 0.338867, -9.74023, 1.18.2022 20:3:24.622
528, 1.92265, 359.988, 75.7145, -0.000976562, 0, 0, 0.0595703, 0.319336, -9.76562, 1.18.2022 20:3:24.630
529, 1.92287, 359.988, 75.7132, 0, 0, 0, -0.0400391, 0.342773, -9.71875, 1.18.2022 20:3:24.638
530, 1.92287, 359.988, 75.7132, -0.000976562, -0.000976562, 0.000976562, 0.0175781, 0.334961, -9.71484, 1.18.2022 20:3:24.646
531, 1.92287, 359.988, 75.7132, -0.000976562, -0.000976562, 0, 0.00488281, 0.307617, -9.75098, 1.18.2022 20:3:24.654
532, 1.92287, 359.988, 75.7132, -0.000976562, 0, 0, -0.0380859, 0.332031, -9.75488, 1.18.2022 20:3:24.662
533, 1.92287, 359.988, 75.7132, -0.000976562, 0, 0, 0.0380859, 0.311523, -9.73242, 1.18.2022 20:3:24.670
534, 1.92287, 359.988, 75.7132, -0.000976562, 0, 0, -0.0146484, 0.332031, -9.75977, 1.18.2022 20:3:24.678
535, 1.92287, 359.988, 75.7132, -0.000976562, 0, 0, -0.0371094, 0.339844, -9.72363, 1.18.2022 20:3:24.686
536, 1.92259, 359.988, 75.7035, 0, -0.000976562, -0.000976562, 0.0595703, 0.297852, -9.75195, 1.18.2022 20:3:24.694
537, 1.9228, 359.988, 75.7022, -0.000976562, -0.000976562, -0.000976562, -0.0429688, 0.331055, -9.7334, 1.18.2022 20:3:24.702
538, 1.9228, 359.988, 75.7022, -0.00195312, -0.000976562, -0.000976562, -0.00292969, 0.348633, -9.76367, 1.18.2022 20:3:24.710
539, 1.9228, 359.988, 75.7022, -0.000976562, -0.000976562, -0.000976562, 0.0449219, 0.335938, -9.75586, 1.18.2022 20:3:24.718
540, 1.9228, 359.988, 75.7022, -0.000976562, -0.000976562, -0.000976562, -0.0664062, 0.347656, -9.72559, 1.18.2022 20:3:24.726
541, 1.9228, 359.988, 75.7022, 0, -0.000976562, -0.000976562, 0.0478516, 0.296875, -9.72168, 1.18.2022 20:3:24.734
542, 1.9228, 359.988, 75.7022, -0.000976562, -0.000976562, -0.000976562, 0.0078125, 0.326172, -9.72949, 1.18.2022 20:3:24.742
543, 1.9228, 359.988, 75.7022, 0, -0.000976562, -0.000976562, -0.0351562, 0.333008, -9.72168, 1.18.2022 20:3:24.750
544, 1.9228, 359.988, 75.7022, 0, 0, -0.000976562, 0.0664062, 0.317383, -9.75195, 1.18.2022 20:3:24.758
545, 1.9228, 359.988, 75.7022, -0.00195312, 0, -0.000976562, -0.0244141, 0.336914, -9.76855, 1.18.2022 20:3:24.766
546, 1.9228, 359.988, 75.7022, -0.00195312, 0, -0.000976562, 0.0244141, 0.329102, -9.74609, 1.18.2022 20:3:24.774
547, 1.92709, 359.983, 75.7022, -0.000976562, -0.000976562, -0.000976562, 0.0224609, 0.318359, -9.7207, 1.18.2022 20:3:24.782
548, 1.92709, 359.983, 75.7022, -0.000976562, -0.000976562, -0.000976562, -0.0566406, 0.357422, -9.74121, 1.18.2022 20:3:24.790
549, 1.92709, 359.983, 75.7022, -0.000976562, 0, -0.000976562, 0.00488281, 0.324219, -9.75098, 1.18.2022 20:3:24.798
550, 1.92709, 359.983, 75.7022, -0.000976562, -0.000976562, -0.000976562, 0.0292969, 0.333008, -9.72461, 1.18.2022 20:3:24.806
551, 1.92709, 359.983, 75.7022, -0.000976562, 0, -0.00195312, -0.0351562, 0.355469, -9.7373, 1.18.2022 20:3:24.814
552, 1.92688, 359.983, 75.7036, -0.00195312, 0, -0.000976562, 0.0673828, 0.320312, -9.70898, 1.18.2022 20:3:24.822
553, 1.92688, 359.983, 75.7036, 0, -0.000976562, -0.000976562, -0.0224609, 0.34668, -9.69531, 1.18.2022 20:3:24.830
554, 1.92688, 359.983, 75.7036, -0.000976562, -0.000976562, -0.000976562, -0.0224609, 0.333984, -9.68848, 1.18.2022 20:3:24.838
555, 1.92688, 359.983, 75.7036, -0.000976562, -0.000976562, -0.000976562, 0.0507812, 0.319336, -9.73535, 1.18.2022 20:3:24.846
556, 1.92688, 359.983, 75.7036, -0.000976562, -0.000976562, -0.000976562, -0.0488281, 0.334961, -9.71387, 1.18.2022 20:3:24.854
557, 1.92688, 359.983, 75.7036, 0, -0.000976562, -0.000976562, 0.0166016, 0.30957, -9.75098, 1.18.2022 20:3:24.862
558, 1.92688, 359.983, 75.7036, 0, -0.000976562, -0.000976562, 0.00488281, 0.345703, -9.7334, 1.18.2022 20:3:24.870
559, 1.92709, 359.983, 75.7022, 0, 0, 0.000976562, -0.015625, 0.351562, -9.69043, 1.18.2022 20:3:24.878
560, 1.92709, 359.983, 75.7022, -0.000976562, -0.000976562, -0.000976562, 0.0595703, 0.314453, -9.7373, 1.18.2022 20:3:24.886
561, 1.92709, 359.983, 75.7022, -0.000976562, 0, -0.000976562, 0.00292969, 0.337891, -9.72461, 1.18.2022 20:3:24.894
562, 1.92709, 359.983, 75.7022, -0.000976562, -0.000976562, -0.000976562, -0.00878906, 0.345703, -9.73047, 1.18.2022 20:3:24.902
563, 1.92709, 359.983, 75.7022, -0.000976562, 0, -0.000976562, 0.0595703, 0.331055, -9.74219, 1.18.2022 20:3:24.910
564, 1.92709, 359.983, 75.7022, -0.000976562, -0.000976562, 0, -0.0517578, 0.325195, -9.71191, 1.18.2022 20:3:24.918
565, 1.93261, 359.987, 75.702, -0.000976562, -0.000976562, 0, 0.0224609, 0.332031, -9.70312, 1.18.2022 20:3:24.926
566, 1.93261, 359.987, 75.702, -0.000976562, -0.000976562, -0.000976562, 0.0224609, 0.331055, -9.72461, 1.18.2022 20:3:24.934
567, 1.93261, 359.987, 75.702, 0, -0.000976562, -0.000976562, -0.0546875, 0.34082, -9.74219, 1.18.2022 20:3:24.942
568, 1.93261, 359.987, 75.702, -0.000976562, -0.000976562, -0.000976562, 0.0478516, 0.328125, -9.72559, 1.18.2022 20:3:24.950
569, 1.93261, 359.987, 75.702, 0, -0.000976562, -0.000976562, 0.00488281, 0.301758, -9.72754, 1.18.2022 20:3:24.958
570, 1.93261, 359.987, 75.702, 0, 0, -0.000976562, -0.0302734, 0.347656, -9.72559, 1.18.2022 20:3:24.966
571, 1.93261, 359.987, 75.702, -0.000976562, -0.000976562, -0.00195312, 0.0576172, 0.311523, -9.7373, 1.18.2022 20:3:24.974
572, 1.93261, 359.987, 75.702, -0.000976562, -0.000976562, -0.000976562, -0.0234375, 0.347656, -9.74219, 1.18.2022 20:3:24.982
573, 1.93261, 359.987, 75.702, 0, 0, 0.000976562, 0.00390625, 0.339844, -9.78613, 1.18.2022 20:3:24.990
574, 1.92709, 359.983, 75.7022, 0, 0, -0.000976562, 0.0449219, 0.302734, -9.75879, 1.18.2022 20:3:24.998
575, 1.92709, 359.983, 75.7022, -0.000976562, 0, -0.00195312, -0.0488281, 0.336914, -9.68555, 1.18.2022 20:3:25.006
576, 1.92709, 359.983, 75.7022, -0.00195312, -0.000976562, -0.00195312, 0.0292969, 0.337891, -9.71484, 1.18.2022 20:3:25.014
577, 1.92709, 359.983, 75.7022, 0, -0.000976562, -0.000976562, 0.0126953, 0.316406, -9.7207, 1.18.2022 20:3:25.022
578, 1.92709, 359.983, 75.7022, -0.000976562, 0, -0.000976562, -0.0351562, 0.347656, -9.73535, 1.18.2022 20:3:25.030
579, 1.92709, 359.983, 75.7022, -0.000976562, 0, -0.000976562, 0.0556641, 0.313477, -9.7002, 1.18.2022 20:3:25.038
580, 1.92709, 359.983, 75.7022, 0, -0.000976562, -0.000976562, -0.0234375, 0.342773, -9.73535, 1.18.2022 20:3:25.046
581, 1.92709, 359.983, 75.7022, 0, 0, 0.000976562, 0.00488281, 0.352539, -9.75, 1.18.2022 20:3:25.054
582, 1.92709, 359.983, 75.7022, -0.000976562, -0.000976562, -0.000976562, 0.0478516, 0.292969, -9.73828, 1.18.2022 20:3:25.062
583, 1.92709, 359.983, 75.7022, -0.000976562, -0.000976562, -0.000976562, -0.0605469, 0.334961, -9.78906, 1.18.2022 20:3:25.070
584, 1.92709, 359.983, 75.7022, -0.000976562, -0.000976562, -0.000976562, 0, 0.317383, -9.76953, 1.18.2022 20:3:25.078
585, 1.92709, 359.983, 75.7022, -0.000976562, -0.000976562, -0.00195312, 0.00976562, 0.319336, -9.73926, 1.18.2022 20:3:25.086
586, 1.92709, 359.983, 75.7022, -0.000976562, 0, -0.000976562, -0.0371094, 0.333008, -9.71191, 1.18.2022 20:3:25.094
587, 1.92709, 359.983, 75.7022, 0, 0, -0.000976562, 0.0361328, 0.327148, -9.7627, 1.18.2022 20:3:25.102
588, 1.92709, 359.983, 75.7022, -0.000976562, -0.000976562, -0.00195312, -0.0273438, 0.300781, -9.69141, 1.18.2022 20:3:25.110
589, 1.92709, 359.983, 75.7022, -0.000976562, -0.000976562, -0.000976562, -0.00878906, 0.333008, -9.72461, 1.18.2022 20:3:25.118
590, 1.92709, 359.983, 75.7022, -0.00195312, -0.000976562, -0.000976562, 0.0703125, 0.296875, -9.71484, 1.18.2022 20:3:25.126
591, 1.92709, 359.983, 75.7022, -0.00195312, -0.00195312, -0.00195312, -0.0429688, 0.337891, -9.73535, 1.18.2022 20:3:25.134
592, 1.93261, 359.987, 75.702, -0.00195312, -0.000976562, -0.000976562, -0.03125, 0.325195, -9.76465, 1.18.2022 20:3:25.142
593, 1.93261, 359.987, 75.702, -0.000976562, -0.000976562, 0.000976562, 0.0263672, 0.30957, -9.75391, 1.18.2022 20:3:25.148
594, 1.93261, 359.987, 75.702, -0.000976562, -0.000976562, 0.000976562, -0.0498047, 0.333984, -9.75, 1.18.2022 20:3:25.156
595, 1.93261, 359.987, 75.702, 0, -0.000976562, -0.000976562, 0.0332031, 0.319336, -9.74609, 1.18.2022 20:3:25.164
596, 1.93261, 359.987, 75.702, -0.000976562, -0.000976562, -0.000976562, -0.0185547, 0.321289, -9.71484, 1.18.2022 20:3:25.172
597, 1.93261, 359.987, 75.702, 0, -0.000976562, -0.00195312, -0.0253906, 0.347656, -9.7168, 1.18.2022 20:3:25.180
598, 1.93261, 359.987, 75.702, -0.000976562, -0.000976562, -0.000976562, 0.0546875, 0.283203, -9.75488, 1.18.2022 20:3:25.188
599, 1.93261, 359.987, 75.702, -0.000976562, -0.000976562, -0.000976562, -0.0205078, 0.323242, -9.72461, 1.18.2022 20:3:25.196
600, 1.93261, 359.987, 75.702, -0.000976562, 0, 0, -0.0166016, 0.350586, -9.75684, 1.18.2022 20:3:25.206
601, 1.93261, 359.987, 75.702, -0.000976562, -0.000976562, 0, 0.0527344, 0.307617, -9.75, 1.18.2022 20:3:25.212
602, 1.93261, 359.987, 75.702, -0.00195312, -0.000976562, 0, -0.0449219, 0.333984, -9.7373, 1.18.2022 20:3:25.220
603, 1.9324, 359.987, 75.7034, -0.000976562, -0.000976562, 0, 0.0283203, 0.3125, -9.77539, 1.18.2022 20:3:25.228
604, 1.93268, 359.987, 75.713, -0.000976562, -0.000976562, 0, -0.0136719, 0.301758, -9.72754, 1.18.2022 20:3:25.236
605, 1.93268, 359.987, 75.713, -0.000976562, -0.000976562, 0, -0.0634766, 0.347656, -9.71094, 1.18.2022 20:3:25.244
606, 1.93268, 359.987, 75.713, 0, 0, 0, 0.0673828, 0.301758, -9.7168, 1.18.2022 20:3:25.252
607, 1.93268, 359.987, 75.713, -0.000976562, -0.000976562, 0, -0.00878906, 0.291992, -9.72266, 1.18.2022 20:3:25.260
608, 1.93268, 359.987, 75.713, -0.000976562, 0, 0, -0.0302734, 0.347656, -9.72363, 1.18.2022 20:3:25.268
609, 1.93268, 359.987, 75.713, -0.000976562, 0, 0, 0.03125, 0.318359, -9.72266, 1.18.2022 20:3:25.276
610, 1.93268, 359.987, 75.713, -0.000976562, -0.000976562, 0, -0.0693359, 0.334961, -9.77051, 1.18.2022 20:3:25.284
611, 1.93268, 359.987, 75.713, -0.000976562, -0.000976562, 0, 0.0214844, 0.326172, -9.74121, 1.18.2022 20:3:25.292
612, 1.93268, 359.987, 75.713, 0, -0.00195312, 0, 0.0283203, 0.310547, -9.76367, 1.18.2022 20:3:25.300
613, 1.93268, 359.987, 75.713, -0.000976562, 0, -0.000976562, -0.0263672, 0.350586, -9.76074, 1.18.2022 20:3:25.308
614, 1.93268, 359.987, 75.713, -0.000976562, 0, 0, 0.0488281, 0.310547, -9.70898, 1.18.2022 20:3:25.316
615, 1.93268, 359.987, 75.713, 0, 0, 0, -0.0136719, 0.337891, -9.71973, 1.18.2022 20:3:25.324
616, 1.93268, 359.987, 75.713, 0, -0.000976562, 0, -0.0205078, 0.336914, -9.70312, 1.18.2022 20:3:25.332
617, 1.93268, 359.987, 75.713, -0.000976562, -0.000976562, 0, 0.03125, 0.338867, -9.75098, 1.18.2022 20:3:25.340
618, 1.93268, 359.987, 75.713, -0.000976562, -0.000976562, 0, -0.00878906, 0.325195, -9.69629, 1.18.2022 20:3:25.348
619, 1.93268, 359.987, 75.713, -0.000976562, -0.000976562, 0, -0.000976562, 0.330078, -9.69629, 1.18.2022 20:3:25.356
620, 1.93268, 359.987, 75.713, 0, -0.000976562, 0.000976562, 0.0175781, 0.311523, -9.72754, 1.18.2022 20:3:25.364
621, 1.93268, 359.987, 75.713, 0, -0.000976562, 0, -0.0527344, 0.358398, -9.75391, 1.18.2022 20:3:25.372
622, 1.93268, 359.987, 75.713, -0.000976562, -0.00195312, 0, 0.0576172, 0.333984, -9.74414, 1.18.2022 20:3:25.380
623, 1.93268, 359.987, 75.713, -0.000976562, 0, 0, -0.0166016, 0.327148, -9.75, 1.18.2022 20:3:25.388
624, 1.92716, 359.983, 75.7132, 0, 0, 0, -0.0410156, 0.348633, -9.76855, 1.18.2022 20:3:25.396
625, 1.92716, 359.983, 75.7132, 0, -0.000976562, 0, 0.0615234, 0.317383, -9.76074, 1.18.2022 20:3:25.404
626, 1.92716, 359.983, 75.7132, -0.000976562, -0.000976562, 0, -0.0244141, 0.320312, -9.77637, 1.18.2022 20:3:25.412
627, 1.92716, 359.983, 75.7132, 0, -0.000976562, 0, 0.00683594, 0.365234, -9.75879, 1.18.2022 20:3:25.420
628, 1.92716, 359.983, 75.7132, 0, -0.000976562, 0, 0.0361328, 0.318359, -9.71582, 1.18.2022 20:3:25.428
629, 1.92716, 359.983, 75.7132, -0.000976562, -0.000976562, 0, -0.0351562, 0.335938, -9.7334, 1.18.2022 20:3:25.436
630, 1.92716, 359.983, 75.7132, -0.000976562, 0, 0, 0.0283203, 0.323242, -9.79102, 1.18.2022 20:3:25.444
631, 1.92688, 359.983, 75.7036, 0, -0.000976562, 0, 0.0078125, 0.294922, -9.73047, 1.18.2022 20:3:25.452
632, 1.92709, 359.983, 75.7022, -0.000976562, -0.000976562, -0.000976562, -0.0371094, 0.349609, -9.71387, 1.18.2022 20:3:25.460
633, 1.92709, 359.983, 75.7022, -0.000976562, -0.000976562, -0.000976562, 0.0888672, 0.308594, -9.70801, 1.18.2022 20:3:25.468
634, 1.92709, 359.983, 75.7022, -0.000976562, -0.000976562, -0.000976562, -0.0185547, 0.331055, -9.72656, 1.18.2022 20:3:25.476
635, 1.9228, 359.988, 75.7022, 0, -0.000976562, -0.000976562, -0.00195312, 0.330078, -9.71973, 1.18.2022 20:3:25.484
636, 1.9228, 359.988, 75.7022, 0, -0.000976562, -0.000976562, 0.0380859, 0.3125, -9.74707, 1.18.2022 20:3:25.492
637, 1.9228, 359.988, 75.7022, -0.000976562, 0, 0, -0.046875, 0.333008, -9.7168, 1.18.2022 20:3:25.500
638, 1.9228, 359.988, 75.7022, -0.000976562, -0.000976562, -0.000976562, 0.0195312, 0.316406, -9.73438, 1.18.2022 20:3:25.508
639, 1.9228, 359.988, 75.7022, -0.000976562, -0.00195312, -0.000976562, 0.0166016, 0.317383, -9.74609, 1.18.2022 20:3:25.516
640, 1.9228, 359.988, 75.7022, 0, -0.000976562, -0.00195312, -0.0234375, 0.347656, -9.7334, 1.18.2022 20:3:25.524
641, 1.9228, 359.988, 75.7022, 0, 0, 0, 0.0380859, 0.330078, -9.78906, 1.18.2022 20:3:25.532
642, 1.9228, 359.988, 75.7022, 0, -0.000976562, -0.000976562, 0.00292969, 0.34375, -9.74805, 1.18.2022 20:3:25.540
643, 1.9228, 359.988, 75.7022, -0.00195312, -0.000976562, 0, -0.00683594, 0.34082, -9.74805, 1.18.2022 20:3:25.548
644, 1.9228, 359.988, 75.7022, -0.000976562, -0.000976562, -0.000976562, 0.0380859, 0.313477, -9.77734, 1.18.2022 20:3:25.556
645, 1.9228, 359.988, 75.7022, 0, 0, 0, -0.046875, 0.333008, -9.7334, 1.18.2022 20:3:25.564
646, 1.9228, 359.988, 75.7022, -0.000976562, -0.000976562, -0.000976562, 0.0341797, 0.355469, -9.69141, 1.18.2022 20:3:25.572
647, 1.9228, 359.988, 75.7022, -0.000976562, 0, -0.00195312, -0.00195312, 0.30957, -9.73633, 1.18.2022 20:3:25.580
648, 1.92709, 359.983, 75.7022, 0, 0, -0.00195312, -0.0419922, 0.325195, -9.69336, 1.18.2022 20:3:25.588
649, 1.9228, 359.988, 75.7022, 0, -0.000976562, -0.000976562, 0.0449219, 0.300781, -9.76172, 1.18.2022 20:3:25.596
650, 1.9228, 359.988, 75.7022, -0.000976562, -0.000976562, -0.000976562, -0.0234375, 0.30957, -9.72266, 1.18.2022 20:3:25.604
651, 1.9228, 359.988, 75.7022, 0, -0.000976562, -0.000976562, -0.0273438, 0.325195, -9.70996, 1.18.2022 20:3:25.612
652, 1.9228, 359.988, 75.7022, -0.000976562, 0, 0, 0.0546875, 0.310547, -9.78516, 1.18.2022 20:3:25.620
653, 1.92709, 359.983, 75.7022, -0.000976562, 0, 0, -0.0351562, 0.334961, -9.70508, 1.18.2022 20:3:25.628
654, 1.92709, 359.983, 75.7022, -0.000976562, 0, 0, 0.0341797, 0.327148, -9.69434, 1.18.2022 20:3:25.636
655, 1.92709, 359.983, 75.7022, -0.000976562, -0.000976562, -0.000976562, 0.0458984, 0.304688, -9.72852, 1.18.2022 20:3:25.644
656, 1.92709, 359.983, 75.7022, -0.000976562, -0.000976562, -0.000976562, -0.0419922, 0.328125, -9.70703, 1.18.2022 20:3:25.652
657, 1.92709, 359.983, 75.7022, 0, 0, 0, 0.0332031, 0.321289, -9.73926, 1.18.2022 20:3:25.660
658, 1.92709, 359.983, 75.7022, -0.000976562, 0, 0, 0.0175781, 0.328125, -9.71289, 1.18.2022 20:3:25.668
659, 1.92709, 359.983, 75.7022, -0.000976562, 0, 0, -0.0253906, 0.341797, -9.68848, 1.18.2022 20:3:25.676
660, 1.92709, 359.983, 75.7022, -0.000976562, -0.000976562, -0.000976562, 0.0673828, 0.326172, -9.7373, 1.18.2022 20:3:25.684
661, 1.92709, 359.983, 75.7022, -0.000976562, -0.000976562, -0.000976562, -0.0283203, 0.333984, -9.74512, 1.18.2022 20:3:25.692
662, 1.92709, 359.983, 75.7022, -0.000976562, -0.000976562, -0.000976562, -0.0117188, 0.318359, -9.72266, 1.18.2022 20:3:25.700
663, 1.92688, 359.983, 75.7036, -0.000976562, -0.000976562, 0.000976562, 0.0429688, 0.292969, -9.74707, 1.18.2022 20:3:25.708
664, 1.92688, 359.983, 75.7036, -0.000976562, -0.000976562, -0.00195312, -0.0185547, 0.362305, -9.72754, 1.18.2022 20:3:25.716
665, 1.92688, 359.983, 75.7036, 0, -0.000976562, 0, 0.0595703, 0.326172, -9.74707, 1.18.2022 20:3:25.724
666, 1.92716, 359.983, 75.7132, -0.000976562, 0, 0, 0.0146484, 0.296875, -9.71094, 1.18.2022 20:3:25.732
667, 1.92716, 359.983, 75.7132, -0.000976562, 0, 0, -0.0253906, 0.342773, -9.71387, 1.18.2022 20:3:25.740
668, 1.92716, 359.983, 75.7132, -0.000976562, -0.000976562, 0, 0.0576172, 0.304688, -9.74023, 1.18.2022 20:3:25.748
669, 1.92688, 359.983, 75.7036, -0.000976562, -0.000976562, 0, -0.0253906, 0.31543, -9.69141, 1.18.2022 20:3:25.756
670, 1.92688, 359.983, 75.7036, -0.000976562, 0, 0.000976562, -0.0234375, 0.369141, -9.72754, 1.18.2022 20:3:25.764
671, 1.92688, 359.983, 75.7036, -0.00195312, -0.000976562, 0, 0.0410156, 0.316406, -9.73047, 1.18.2022 20:3:25.772
672, 1.92709, 359.983, 75.7022, -0.000976562, 0, 0, -0.0498047, 0.338867, -9.76074, 1.18.2022 20:3:25.780
673, 1.92709, 359.983, 75.7022, -0.000976562, -0.000976562, 0, 0.0146484, 0.333008, -9.71289, 1.18.2022 20:3:25.788
674, 1.92709, 359.983, 75.7022, -0.00195312, 0, 0, 0.0175781, 0.288086, -9.72852, 1.18.2022 20:3:25.796
675, 1.92709, 359.983, 75.7022, 0, 0, 0, -0.0322266, 0.325195, -9.69336, 1.18.2022 20:3:25.804
676, 1.92709, 359.983, 75.7022, 0, 0, 0, 0.0634766, 0.286133, -9.66992, 1.18.2022 20:3:25.812
677, 1.92709, 359.983, 75.7022, -0.000976562, -0.000976562, 0, 0.0175781, 0.296875, -9.71875, 1.18.2022 20:3:25.820
678, 1.92709, 359.983, 75.7022, -0.000976562, -0.000976562, 0, -0.0273438, 0.334961, -9.70508, 1.18.2022 20:3:25.828
679, 1.92709, 359.983, 75.7022, -0.000976562, -0.000976562, 0, 0.0576172, 0.30957, -9.75879, 1.18.2022 20:3:25.836
680, 1.92709, 359.983, 75.7022, -0.000976562, 0, 0, -0.0263672, 0.317383, -9.75293, 1.18.2022 20:3:25.844
681, 1.92709, 359.983, 75.7022, -0.000976562, -0.000976562, 0, 0.0146484, 0.337891, -9.73828, 1.18.2022 20:3:25.852
682, 1.92709, 359.983, 75.7022, -0.000976562, 0, 0, 0.000976562, 0.322266, -9.68652, 1.18.2022 20:3:25.860
683, 1.92709, 359.983, 75.7022, -0.000976562, -0.000976562, 0, -0.0332031, 0.335938, -9.73535, 1.18.2022 20:3:25.868
684, 1.92709, 359.983, 75.7022, -0.000976562, 0, 0, 0.0625, 0.308594, -9.7168, 1.18.2022 20:3:25.876
685, 1.92709, 359.983, 75.7022, 0, -0.000976562, 0, -0.0146484, 0.28418, -9.76562, 1.18.2022 20:3:25.884
686, 1.92709, 359.983, 75.7022, -0.000976562, 0, 0, -0.03125, 0.326172, -9.74805, 1.18.2022 20:3:25.892
687, 1.92709, 359.983, 75.7022, -0.000976562, 0, 0, 0.0791016, 0.304688, -9.74512, 1.18.2022 20:3:25.900
688, 1.92709, 359.983, 75.7022, -0.00195312, 0, -0.000976562, -0.00878906, 0.350586, -9.74023, 1.18.2022 20:3:25.908
689, 1.92709, 359.983, 75.7022, -0.00195312, -0.00195312, 0, 0.0078125, 0.356445, -9.72168, 1.18.2022 20:3:25.916
690, 1.92709, 359.983, 75.7022, -0.000976562, 0, 0, 0.0390625, 0.304688, -9.73047, 1.18.2022 20:3:25.924
691, 1.93138, 359.977, 75.7022, -0.000976562, 0, 0, -0.0419922, 0.359375, -9.72754, 1.18.2022 20:3:25.932
692, 1.93138, 359.977, 75.7022, -0.000976562, 0, 0, 0.0166016, 0.321289, -9.74121, 1.18.2022 20:3:25.940
693, 1.93138, 359.977, 75.7022, -0.000976562, -0.000976562, 0.000976562, 0.0117188, 0.286133, -9.74512, 1.18.2022 20:3:25.948
694, 1.93138, 359.977, 75.7022, -0.000976562, 0, 0, -0.0625, 0.328125, -9.78027, 1.18.2022 20:3:25.956
695, 1.93138, 359.977, 75.7022, -0.000976562, -0.000976562, 0, 0.0556641, 0.30957, -9.72559, 1.18.2022 20:3:25.964
696, 1.93138, 359.977, 75.7022, 0.000976562, -0.00195312, -0.000976562, -0.0253906, 0.296875, -9.72754, 1.18.2022 20:3:25.972
697, 1.93138, 359.977, 75.7022, 0.000976562, -0.000976562, -0.000976562, -0.0244141, 0.317383, -9.76465, 1.18.2022 20:3:25.980
698, 1.92709, 359.983, 75.7022, 0.000976562, -0.00195312, -0.000976562, 0.0136719, 0.317383, -9.77246, 1.18.2022 20:3:25.988
699, 1.92709, 359.983, 75.7022, 0.000976562, -0.000976562, -0.000976562, -0.0449219, 0.357422, -9.75098, 1.18.2022 20:3:25.996
700, 1.92709, 359.983, 75.7022, 0.000976562, -0.000976562, -0.000976562, 0.00195312, 0.300781, -9.75391, 1.18.2022 20:3:26.004
701, 1.92688, 359.983, 75.7036, -0.000976562, -0.000976562, -0.000976562, 0.0234375, 0.322266, -9.75586, 1.18.2022 20:3:26.012
702, 1.92716, 359.983, 75.7132, -0.000976562, -0.000976562, -0.000976562, -0.0517578, 0.333984, -9.73535, 1.18.2022 20:3:26.020
703, 1.92716, 359.983, 75.7132, -0.000976562, -0.000976562, -0.000976562, 0.0712891, 0.322266, -9.75391, 1.18.2022 20:3:26.028
704, 1.92716, 359.983, 75.7132, -0.000976562, 0, -0.000976562, -0.0234375, 0.330078, -9.7168, 1.18.2022 20:3:26.036
705, 1.92716, 359.983, 75.7132, -0.000976562, -0.00195312, -0.000976562, -0.0351562, 0.337891, -9.73047, 1.18.2022 20:3:26.044
706, 1.92716, 359.983, 75.7132, -0.000976562, -0.000976562, -0.000976562, 0.0341797, 0.321289, -9.72266, 1.18.2022 20:3:26.052
707, 1.92716, 359.983, 75.7132, -0.000976562, -0.000976562, -0.000976562, -0.0166016, 0.336914, -9.75977, 1.18.2022 20:3:26.060
708, 1.92716, 359.983, 75.7132, -0.000976562, -0.000976562, -0.000976562, 0.0146484, 0.329102, -9.73633, 1.18.2022 20:3:26.068
709, 1.92694, 359.983, 75.7146, -0.000976562, -0.000976562, -0.000976562, 0.0527344, 0.319336, -9.74707, 1.18.2022 20:3:26.076
710, 1.92694, 359.983, 75.7146, -0.000976562, 0, -0.000976562, -0.03125, 0.333984, -9.74512, 1.18.2022 20:3:26.084
711, 1.92694, 359.983, 75.7146, -0.000976562, 0, -0.00195312, 0.0644531, 0.333008, -9.7373, 1.18.2022 20:3:26.092
712, 1.92722, 359.983, 75.7242, 0.000976562, -0.000976562, -0.000976562, -0.0146484, 0.298828, -9.76562, 1.18.2022 20:3:26.100
713, 1.92722, 359.983, 75.7242, 0.000976562, -0.000976562, 0.000976562, -0.0185547, 0.333008, -9.7334, 1.18.2022 20:3:26.108
714, 1.92722, 359.983, 75.7242, -0.00195312, 0, 0, 0.0429688, 0.301758, -9.72852, 1.18.2022 20:3:26.116
715, 1.92722, 359.983, 75.7242, -0.000976562, -0.000976562, 0.000976562, -0.0273438, 0.330078, -9.69824, 1.18.2022 20:3:26.124
716, 1.92722, 359.983, 75.7242, 0.000976562, -0.000976562, -0.000976562, -0.0273438, 0.349609, -9.70703, 1.18.2022 20:3:26.132
717, 1.92722, 359.983, 75.7242, -0.000976562, -0.000976562, -0.00195312, 0.0390625, 0.306641, -9.71582, 1.18.2022 20:3:26.138
718, 1.927, 359.983, 75.7256, -0.000976562, 0, -0.000976562, -0.0712891, 0.316406, -9.72852, 1.18.2022 20:3:26.146
719, 1.927, 359.983, 75.7256, -0.00195312, -0.000976562, -0.000976562, 0.0078125, 0.304688, -9.7207, 1.18.2022 20:3:26.154
720, 1.927, 359.983, 75.7256, -0.000976562, -0.000976562, -0.000976562, 0.0126953, 0.313477, -9.70605, 1.18.2022 20:3:26.162
721, 1.927, 359.983, 75.7256, -0.000976562, 0, -0.000976562, -0.0449219, 0.350586, -9.73535, 1.18.2022 20:3:26.170
722, 1.927, 359.983, 75.7256, -0.000976562, -0.000976562, -0.000976562, 0.0371094, 0.310547, -9.70215, 1.18.2022 20:3:26.178
723, 1.927, 359.983, 75.7256, -0.000976562, -0.000976562, -0.000976562, -0.0205078, 0.334961, -9.69531, 1.18.2022 20:3:26.186
724, 1.927, 359.983, 75.7256, 0.000976562, -0.00195312, -0.000976562, 0.0175781, 0.325195, -9.69434, 1.18.2022 20:3:26.194
725, 1.927, 359.983, 75.7256, -0.000976562, -0.00195312, -0.000976562, 0.0263672, 0.311523, -9.7373, 1.18.2022 20:3:26.202
726, 1.92728, 359.983, 75.7352, -0.000976562, -0.000976562, -0.000976562, -0.0732422, 0.326172, -9.74414, 1.18.2022 20:3:26.210
727, 1.92728, 359.983, 75.7352, -0.000976562, -0.000976562, -0.000976562, 0.0224609, 0.323242, -9.72461, 1.18.2022 20:3:26.218
728, 1.92728, 359.983, 75.7352, -0.000976562, -0.000976562, 0, 0.0078125, 0.311523, -9.71094, 1.18.2022 20:3:26.226
729, 1.92728, 359.983, 75.7352, 0, 0.000976562, -0.00195312, -0.0449219, 0.367188, -9.73438, 1.18.2022 20:3:26.234
730, 1.92728, 359.983, 75.7352, -0.000976562, 0.000976562, -0.00195312, 0.0449219, 0.31543, -9.77734, 1.18.2022 20:3:26.242
731, 1.92728, 359.983, 75.7352, -0.000976562, -0.000976562, 0, -0.00488281, 0.324219, -9.74121, 1.18.2022 20:3:26.250
732, 1.92728, 359.983, 75.7352, 0, -0.000976562, -0.00195312, -0.0253906, 0.350586, -9.7373, 1.18.2022 20:3:26.258
733, 1.92707, 359.983, 75.7366, 0, -0.000976562, -0.00195312, 0.0449219, 0.298828, -9.78027, 1.18.2022 20:3:26.266
734, 1.92707, 359.983, 75.7366, -0.000976562, 0.000976562, 0, -0.0400391, 0.344727, -9.71191, 1.18.2022 20:3:26.274
735, 1.92707, 359.983, 75.7366, -0.000976562, 0.000976562, 0, -0.00390625, 0.337891, -9.72852, 1.18.2022 20:3:26.282
736, 1.92707, 359.983, 75.7366, -0.000976562, 0.000976562, 0.000976562, 0.0429688, 0.317383, -9.74902, 1.18.2022 20:3:26.290
737, 1.92707, 359.983, 75.7366, -0.000976562, -0.000976562, 0, -0.0429688, 0.335938, -9.74023, 1.18.2022 20:3:26.298
738, 1.92707, 359.983, 75.7366, -0.000976562, 0.000976562, 0, 0.0410156, 0.323242, -9.72266, 1.18.2022 20:3:26.306
739, 1.92707, 359.983, 75.7366, 0, -0.00195312, 0.000976562, -0.0117188, 0.292969, -9.74902, 1.18.2022 20:3:26.314
740, 1.92707, 359.983, 75.7366, 0, -0.000976562, 0.00195312, -0.0302734, 0.307617, -9.74121, 1.18.2022 20:3:26.322
741, 1.92707, 359.983, 75.7366, -0.000976562, 0.000976562, 0, 0.0458984, 0.280273, -9.71973, 1.18.2022 20:3:26.330
742, 1.92707, 359.983, 75.7366, -0.000976562, 0.000976562, 0, -0.0400391, 0.318359, -9.71484, 1.18.2022 20:3:26.338
743, 1.92155, 359.979, 75.7367, -0.000976562, 0.000976562, 0.000976562, -0.00195312, 0.325195, -9.71289, 1.18.2022 20:3:26.346
744, 1.92155, 359.979, 75.7367, -0.000976562, -0.000976562, -0.00195312, 0.00683594, 0.322266, -9.75781, 1.18.2022 20:3:26.354
745, 1.92155, 359.979, 75.7367, -0.000976562, -0.000976562, 0, -0.0449219, 0.345703, -9.74707, 1.18.2022 20:3:26.362
746, 1.92155, 359.979, 75.7367, -0.000976562, 0.000976562, 0, 0.0410156, 0.347656, -9.74316, 1.18.2022 20:3:26.370
747, 1.92155, 359.979, 75.7367, -0.000976562, -0.000976562, 0, 0.0126953, 0.313477, -9.72266, 1.18.2022 20:3:26.378
748, 1.92155, 359.979, 75.7367, 0, 0.000976562, -0.00195312, -0.0332031, 0.335938, -9.74512, 1.18.2022 20:3:26.386
749, 1.92155, 359.979, 75.7367, 0, 0.000976562, -0.00195312, 0.0664062, 0.300781, -9.75977, 1.18.2022 20:3:26.394
750, 1.92155, 359.979, 75.7367, 0, 0.000976562, 0, -0.0146484, 0.322266, -9.77441, 1.18.2022 20:3:26.402
751, 1.92155, 359.979, 75.7367, -0.000976562, 0.000976562, 0, -0.00878906, 0.324219, -9.73633, 1.18.2022 20:3:26.410
752, 1.92155, 359.979, 75.7367, 0, 0.000976562, 0, 0.0458984, 0.30957, -9.74707, 1.18.2022 20:3:26.418
753, 1.92155, 359.979, 75.7367, -0.000976562, -0.000976562, -0.00195312, -0.046875, 0.364258, -9.72266, 1.18.2022 20:3:26.426
754, 1.92155, 359.979, 75.7367, -0.000976562, -0.000976562, 0, 0.00878906, 0.360352, -9.68359, 1.18.2022 20:3:26.434
755, 1.92155, 359.979, 75.7367, -0.000976562, -0.000976562, 0, -0.00195312, 0.314453, -9.74609, 1.18.2022 20:3:26.442
756, 1.92155, 359.979, 75.7367, -0.000976562, -0.000976562, -0.00195312, -0.0429688, 0.359375, -9.7373, 1.18.2022 20:3:26.450
757, 1.92155, 359.979, 75.7367, 0, 0.000976562, 0, 0.0458984, 0.323242, -9.71582, 1.18.2022 20:3:26.458
758, 1.92155, 359.979, 75.7367, -0.000976562, 0.000976562, 0.000976562, -0.0185547, 0.308594, -9.71777, 1.18.2022 20:3:26.466
759, 1.92155, 359.979, 75.7367, -0.00195312, -0.000976562, 0.000976562, -0.0185547, 0.357422, -9.7373, 1.18.2022 20:3:26.474
760, 1.92155, 359.979, 75.7367, -0.00195312, 0, -0.000976562, 0.0244141, 0.306641, -9.72266, 1.18.2022 20:3:26.482
761, 1.92155, 359.979, 75.7367, 0, -0.000976562, 0, -0.0664062, 0.352539, -9.71582, 1.18.2022 20:3:26.490
762, 1.92155, 359.979, 75.7367, 0, -0.000976562, 0, 0.0175781, 0.325195, -9.69629, 1.18.2022 20:3:26.498
763, 1.92161, 359.979, 75.7477, 0, -0.000976562, 0, 0.0429688, 0.322266, -9.75391, 1.18.2022 20:3:26.506
764, 1.92161, 359.979, 75.7477, -0.000976562, 0, 0, -0.03125, 0.365234, -9.75098, 1.18.2022 20:3:26.514
765, 1.92161, 359.979, 75.7477, 0, 0, 0, 0.0195312, 0.335938, -9.75488, 1.18.2022 20:3:26.522
766, 1.92161, 359.979, 75.7477, -0.000976562, 0, -0.000976562, 0.0126953, 0.321289, -9.72949, 1.18.2022 20:3:26.530
767, 1.92161, 359.979, 75.7477, -0.000976562, -0.000976562, 0.000976562, -0.00683594, 0.332031, -9.75977, 1.18.2022 20:3:26.538
768, 1.92161, 359.979, 75.7477, 0, -0.000976562, 0.000976562, 0.0546875, 0.300781, -9.76172, 1.18.2022 20:3:26.546
769, 1.92161, 359.979, 75.7477, -0.000976562, -0.000976562, 0.000976562, -0.0332031, 0.319336, -9.75, 1.18.2022 20:3:26.554
770, 1.92161, 359.979, 75.7477, -0.000976562, 0, -0.000976562, 0.0078125, 0.308594, -9.71777, 1.18.2022 20:3:26.562
771, 1.92161, 359.979, 75.7477, 0, -0.000976562, 0, 0.0361328, 0.314453, -9.7373, 1.18.2022 20:3:26.570
772, 1.92161, 359.979, 75.7477, 0, -0.000976562, 0, -0.0546875, 0.375, -9.75098, 1.18.2022 20:3:26.578
773, 1.92161, 359.979, 75.7477, -0.000976562, -0.000976562, 0, 0.0166016, 0.336914, -9.7666, 1.18.2022 20:3:26.586
774, 1.92161, 359.979, 75.7477, -0.000976562, 0, 0, 0, 0.332031, -9.75488, 1.18.2022 20:3:26.594
775, 1.92161, 359.979, 75.7477, -0.000976562, -0.000976562, 0.000976562, -0.0361328, 0.355469, -9.76562, 1.18.2022 20:3:26.602
776, 1.92161, 359.979, 75.7477, -0.000976562, -0.000976562, 0, 0.0634766, 0.322266, -9.69043, 1.18.2022 20:3:26.610
777, 1.92161, 359.979, 75.7477, -0.000976562, 0, 0, -0.0234375, 0.345703, -9.7334, 1.18.2022 20:3:26.618
778, 1.92161, 359.979, 75.7477, 0, 0, 0, -0.0283203, 0.323242, -9.71484, 1.18.2022 20:3:26.626
779, 1.92161, 359.979, 75.7477, -0.000976562, 0, 0, 0.00976562, 0.292969, -9.74902, 1.18.2022 20:3:26.634
780, 1.92161, 359.979, 75.7477, -0.000976562, -0.000976562, -0.00195312, -0.0517578, 0.347656, -9.73535, 1.18.2022 20:3:26.642
781, 1.92161, 359.979, 75.7477, -0.000976562, -0.00195312, 0, 0.00292969, 0.34082, -9.73145, 1.18.2022 20:3:26.650
782, 1.92161, 359.979, 75.7477, -0.000976562, -0.000976562, 0, 0.0263672, 0.329102, -9.74609, 1.18.2022 20:3:26.658
783, 1.92161, 359.979, 75.7477, 0, -0.000976562, 0, -0.0292969, 0.341797, -9.77539, 1.18.2022 20:3:26.666
784, 1.92161, 359.979, 75.7477, -0.00195312, -0.000976562, 0, 0.0498047, 0.31543, -9.76367, 1.18.2022 20:3:26.674
785, 1.92161, 359.979, 75.7477, -0.000976562, -0.000976562, -0.00195312, 0.00292969, 0.304688, -9.72949, 1.18.2022 20:3:26.682
786, 1.92161, 359.979, 75.7477, -0.000976562, -0.000976562, 0, -0.0117188, 0.316406, -9.72461, 1.18.2022 20:3:26.690
787, 1.92155, 359.979, 75.7367, -0.00195312, -0.000976562, 0, 0.0488281, 0.305664, -9.70215, 1.18.2022 20:3:26.698
788, 1.92707, 359.983, 75.7366, -0.000976562, -0.000976562, 0.000976562, -0.0107422, 0.344727, -9.70703, 1.18.2022 20:3:26.706
789, 1.92707, 359.983, 75.7366, -0.000976562, -0.000976562, 0, -0.00195312, 0.327148, -9.75488, 1.18.2022 20:3:26.714
790, 1.92707, 359.983, 75.7366, 0, 0, 0, 0.0332031, 0.300781, -9.76855, 1.18.2022 20:3:26.722
791, 1.92707, 359.983, 75.7366, 0, -0.000976562, 0, -0.0546875, 0.363281, -9.75781, 1.18.2022 20:3:26.730
792, 1.92278, 359.989, 75.7366, 0, -0.000976562, 0.000976562, 0.0761719, 0.311523, -9.74023, 1.18.2022 20:3:26.738
793, 1.92278, 359.989, 75.7366, 0, -0.000976562, -0.000976562, 0.0126953, 0.329102, -9.74121, 1.18.2022 20:3:26.746
794, 1.92278, 359.989, 75.7366, 0, -0.000976562, 0.000976562, -0.0283203, 0.364258, -9.73926, 1.18.2022 20:3:26.754
795, 1.91726, 359.984, 75.7367, 0, -0.000976562, -0.000976562, 0.0693359, 0.313477, -9.72168, 1.18.2022 20:3:26.762
796, 1.91726, 359.984, 75.7367, 0, -0.000976562, -0.000976562, -0.00976562, 0.324219, -9.74316, 1.18.2022 20:3:26.770
797, 1.91726, 359.984, 75.7367, -0.000976562, 0, -0.000976562, 0.00292969, 0.333008, -9.71289, 1.18.2022 20:3:26.778
798, 1.91726, 359.984, 75.7367, -0.000976562, -0.000976562, -0.000976562, 0.0244141, 0.301758, -9.72363, 1.18.2022 20:3:26.786
799, 1.91726, 359.984, 75.7367, 0, 0, -0.000976562, -0.0429688, 0.338867, -9.76855, 1.18.2022 20:3:26.794
800, 1.91747, 359.984, 75.7354, 0, -0.000976562, -0.000976562, 0.03125, 0.327148, -9.75781, 1.18.2022 20:3:26.802
801, 1.91747, 359.984, 75.7354, -0.000976562, -0.000976562, -0.000976562, 0.00878906, 0.303711, -9.78418, 1.18.2022 20:3:26.810
802, 1.91747, 359.984, 75.7354, -0.000976562, 0, -0.000976562, -0.00390625, 0.351562, -9.7168, 1.18.2022 20:3:26.818
803, 1.91747, 359.984, 75.7354, -0.000976562, -0.000976562, -0.000976562, 0.0625, 0.318359, -9.73242, 1.18.2022 20:3:26.826
804, 1.91747, 359.984, 75.7354, 0, -0.000976562, 0.000976562, -0.015625, 0.323242, -9.70801, 1.18.2022 20:3:26.834
805, 1.9172, 359.984, 75.7257, 0, 0, -0.000976562, 0.00292969, 0.331055, -9.74609, 1.18.2022 20:3:26.842
806, 1.9172, 359.984, 75.7257, 0, -0.000976562, -0.000976562, 0.0380859, 0.329102, -9.7627, 1.18.2022 20:3:26.850
807, 1.9172, 359.984, 75.7257, -0.000976562, -0.000976562, -0.000976562, -0.0478516, 0.314453, -9.74023, 1.18.2022 20:3:26.858
808, 1.9172, 359.984, 75.7257, -0.000976562, -0.000976562, -0.000976562, 0.0146484, 0.313477, -9.71289, 1.18.2022 20:3:26.866
809, 1.9172, 359.984, 75.7257, 0, 0, -0.000976562, -0.00195312, 0.303711, -9.71777, 1.18.2022 20:3:26.874
810, 1.9172, 359.984, 75.7257, 0, 0, -0.000976562, -0.0302734, 0.344727, -9.72363, 1.18.2022 20:3:26.882
811, 1.91747, 359.984, 75.7354, 0, 0, -0.000976562, 0.0498047, 0.326172, -9.75098, 1.18.2022 20:3:26.890
812, 1.91747, 359.984, 75.7354, -0.000976562, -0.000976562, -0.000976562, -0.00878906, 0.297852, -9.7373, 1.18.2022 20:3:26.898
813, 1.91747, 359.984, 75.7354, -0.000976562, -0.000976562, -0.000976562, -0.0263672, 0.34668, -9.76562, 1.18.2022 20:3:26.906
814, 1.91747, 359.984, 75.7354, -0.000976562, 0, -0.000976562, 0.0244141, 0.330078, -9.69922, 1.18.2022 20:3:26.914
815, 1.91747, 359.984, 75.7354, -0.000976562, -0.000976562, -0.00195312, -0.0283203, 0.333008, -9.71875, 1.18.2022 20:3:26.922
816, 1.91726, 359.984, 75.7367, -0.000976562, -0.000976562, -0.000976562, 0.00878906, 0.305664, -9.67773, 1.18.2022 20:3:26.930
817, 1.91726, 359.984, 75.7367, 0, 0, -0.000976562, 0.0185547, 0.302734, -9.75879, 1.18.2022 20:3:26.938
818, 1.92155, 359.979, 75.7367, -0.000976562, 0, -0.000976562, -0.0683594, 0.342773, -9.72754, 1.18.2022 20:3:26.946
819, 1.92155, 359.979, 75.7367, 0, -0.000976562, -0.000976562, 0.0410156, 0.337891, -9.74414, 1.18.2022 20:3:26.954
820, 1.92155, 359.979, 75.7367, -0.000976562, -0.000976562, 0.000976562, -0.00683594, 0.321289, -9.71777, 1.18.2022 20:3:26.962
821, 1.92155, 359.979, 75.7367, -0.000976562, -0.000976562, -0.000976562, -0.0449219, 0.324219, -9.75684, 1.18.2022 20:3:26.970
822, 1.92155, 359.979, 75.7367, -0.000976562, -0.000976562, -0.000976562, 0.0693359, 0.3125, -9.75684, 1.18.2022 20:3:26.978
823, 1.92155, 359.979, 75.7367, -0.000976562, -0.000976562, -0.000976562, -0.0380859, 0.324219, -9.75488, 1.18.2022 20:3:26.986
824, 1.92155, 359.979, 75.7367, -0.000976562, -0.000976562, -0.000976562, 0.0126953, 0.339844, -9.71484, 1.18.2022 20:3:26.994
825, 1.92155, 359.979, 75.7367, 0, -0.000976562, 0.000976562, 0.0263672, 0.331055, -9.72754, 1.18.2022 20:3:27.002
826, 1.91726, 359.984, 75.7367, 0.000976562, -0.000976562, -0.00195312, -0.0371094, 0.337891, -9.72559, 1.18.2022 20:3:27.010
827, 1.91726, 359.984, 75.7367, -0.000976562, 0, -0.00195312, 0.0224609, 0.328125, -9.72266, 1.18.2022 20:3:27.018
828, 1.91726, 359.984, 75.7367, -0.000976562, -0.000976562, -0.000976562, 0.0195312, 0.322266, -9.75781, 1.18.2022 20:3:27.026
829, 1.91726, 359.984, 75.7367, -0.000976562, -0.000976562, -0.000976562, -0.0214844, 0.34082, -9.75195, 1.18.2022 20:3:27.034
830, 1.91726, 359.984, 75.7367, -0.000976562, -0.000976562, -0.000976562, 0.0576172, 0.318359, -9.70898, 1.18.2022 20:3:27.042
831, 1.91726, 359.984, 75.7367, 0, -0.000976562, -0.000976562, -0.00390625, 0.30957, -9.72949, 1.18.2022 20:3:27.050
832, 1.91726, 359.984, 75.7367, 0, -0.000976562, -0.000976562, -0.0205078, 0.328125, -9.71191, 1.18.2022 20:3:27.058
833, 1.91726, 359.984, 75.7367, 0, 0, -0.000976562, 0.0507812, 0.298828, -9.71387, 1.18.2022 20:3:27.066
834, 1.91726, 359.984, 75.7367, -0.000976562, -0.000976562, -0.000976562, -0.0498047, 0.344727, -9.72559, 1.18.2022 20:3:27.074
835, 1.91726, 359.984, 75.7367, -0.000976562, -0.000976562, -0.000976562, 0.0263672, 0.34082, -9.73145, 1.18.2022 20:3:27.082
836, 1.91726, 359.984, 75.7367, -0.000976562, 0, -0.000976562, 0.0224609, 0.344727, -9.72168, 1.18.2022 20:3:27.090
837, 1.92155, 359.979, 75.7367, -0.000976562, 0, -0.000976562, -0.0419922, 0.352539, -9.72754, 1.18.2022 20:3:27.098
838, 1.92155, 359.979, 75.7367, 0, -0.000976562, -0.000976562, 0.0498047, 0.31543, -9.76855, 1.18.2022 20:3:27.104
839, 1.92155, 359.979, 75.7367, -0.000976562, -0.000976562, -0.000976562, 0.00488281, 0.333008, -9.73145, 1.18.2022 20:3:27.114
840, 1.92155, 359.979, 75.7367, -0.000976562, -0.000976562, -0.000976562, -0.00390625, 0.334961, -9.72168, 1.18.2022 20:3:27.120
841, 1.92155, 359.979, 75.7367, -0.000976562, -0.000976562, -0.000976562, 0.0410156, 0.313477, -9.7207, 1.18.2022 20:3:27.128
842, 1.92155, 359.979, 75.7367, -0.000976562, -0.000976562, -0.00195312, -0.0400391, 0.353516, -9.74902, 1.18.2022 20:3:27.136
843, 1.92155, 359.979, 75.7367, 0, -0.000976562, -0.000976562, 0.0078125, 0.34668, -9.71191, 1.18.2022 20:3:27.144
844, 1.92155, 359.979, 75.7367, -0.000976562, 0, -0.000976562, 0.0341797, 0.296875, -9.73047, 1.18.2022 20:3:27.152
845, 1.92155, 359.979, 75.7367, -0.000976562, -0.000976562, -0.000976562, -0.00390625, 0.352539, -9.73828, 1.18.2022 20:3:27.160
846, 1.92155, 359.979, 75.7367, -0.000976562, -0.000976562, -0.000976562, 0.0830078, 0.295898, -9.76953, 1.18.2022 20:3:27.168
847, 1.92155, 359.979, 75.7367, -0.000976562, -0.000976562, -0.000976562, 0, 0.319336, -9.73926, 1.18.2022 20:3:27.176
848, 1.92155, 359.979, 75.7367, -0.000976562, -0.000976562, -0.000976562, -0.0214844, 0.332031, -9.75195, 1.18.2022 20:3:27.184
849, 1.92155, 359.979, 75.7367, 0, -0.000976562, 0.000976562, 0.0449219, 0.303711, -9.77051, 1.18.2022 20:3:27.192
850, 1.92155, 359.979, 75.7367, 0, 0, -0.000976562, -0.0615234, 0.34375, -9.74219, 1.18.2022 20:3:27.200
851, 1.92155, 359.979, 75.7367, -0.000976562, -0.000976562, -0.000976562, -0.00878906, 0.349609, -9.70703, 1.18.2022 20:3:27.208
852, 1.92155, 359.979, 75.7367, -0.000976562, 0, -0.000976562, 0.0244141, 0.307617, -9.73926, 1.18.2022 20:3:27.216
853, 1.92155, 359.979, 75.7367, -0.000976562, 0, -0.000976562, -0.0234375, 0.329102, -9.75488, 1.18.2022 20:3:27.224
854, 1.92155, 359.979, 75.7367, -0.000976562, -0.000976562, -0.000976562, 0.0283203, 0.34375, -9.75977, 1.18.2022 20:3:27.232
855, 1.92155, 359.979, 75.7367, -0.000976562, -0.000976562, -0.000976562, -0.00390625, 0.31543, -9.70312, 1.18.2022 20:3:27.240
856, 1.92155, 359.979, 75.7367, -0.000976562, -0.000976562, 0, -0.0351562, 0.335938, -9.72852, 1.18.2022 20:3:27.248
857, 1.92177, 359.979, 75.7354, -0.000976562, 0, -0.00195312, 0.0712891, 0.299805, -9.75, 1.18.2022 20:3:27.256
858, 1.92177, 359.979, 75.7354, -0.000976562, -0.000976562, 0, -0.0214844, 0.30957, -9.72949, 1.18.2022 20:3:27.264
859, 1.92728, 359.983, 75.7352, -0.000976562, -0.000976562, 0.000976562, 0.00976562, 0.322266, -9.75098, 1.18.2022 20:3:27.272
860, 1.92728, 359.983, 75.7352, -0.000976562, 0, 0, 0.0263672, 0.328125, -9.72949, 1.18.2022 20:3:27.280
861, 1.92177, 359.979, 75.7354, 0, -0.000976562, 0, -0.0498047, 0.321289, -9.73145, 1.18.2022 20:3:27.288
862, 1.92177, 359.979, 75.7354, 0, -0.000976562, 0.000976562, 0.0195312, 0.333008, -9.71484, 1.18.2022 20:3:27.296
863, 1.92177, 359.979, 75.7354, -0.000976562, 0, 0, 0.00488281, 0.322266, -9.76953, 1.18.2022 20:3:27.304
864, 1.92149, 359.979, 75.7257, -0.000976562, -0.000976562, 0, -0.0351562, 0.337891, -9.71875, 1.18.2022 20:3:27.312
865, 1.92177, 359.979, 75.7354, -0.000976562, -0.00195312, -0.00195312, 0.0527344, 0.299805, -9.74023, 1.18.2022 20:3:27.320
866, 1.92728, 359.983, 75.7352, 0, -0.000976562, -0.00195312, -0.00488281, 0.324219, -9.74609, 1.18.2022 20:3:27.328
867, 1.92177, 359.979, 75.7354, 0, -0.00195312, -0.000976562, -0.0185547, 0.317383, -9.74316, 1.18.2022 20:3:27.336
868, 1.92177, 359.979, 75.7354, 0, -0.000976562, 0, 0.0351562, 0.298828, -9.77344, 1.18.2022 20:3:27.344
869, 1.92177, 359.979, 75.7354, -0.000976562, -0.000976562, -0.00195312, -0.0253906, 0.34082, -9.7334, 1.18.2022 20:3:27.352
870, 1.92177, 359.979, 75.7354, -0.000976562, 0, 0, 0.0292969, 0.335938, -9.72949, 1.18.2022 20:3:27.360
871, 1.92177, 359.979, 75.7354, -0.000976562, 0, 0, 0.0166016, 0.302734, -9.74219, 1.18.2022 20:3:27.368
872, 1.92177, 359.979, 75.7354, 0, -0.000976562, 0, -0.046875, 0.344727, -9.69531, 1.18.2022 20:3:27.376
873, 1.92177, 359.979, 75.7354, 0, -0.000976562, 0, 0.0361328, 0.296875, -9.70703, 1.18.2022 20:3:27.384
874, 1.92177, 359.979, 75.7354, 0, -0.000976562, -0.00195312, -0.00878906, 0.34668, -9.70996, 1.18.2022 20:3:27.392
875, 1.92177, 359.979, 75.7354, -0.000976562, -0.000976562, 0, -0.0283203, 0.337891, -9.71875, 1.18.2022 20:3:27.400
876, 1.92177, 359.979, 75.7354, -0.00195312, 0, 0, 0.0527344, 0.303711, -9.71875, 1.18.2022 20:3:27.408
877, 1.92177, 359.979, 75.7354, -0.000976562, -0.000976562, 0, -0.0566406, 0.34082, -9.73535, 1.18.2022 20:3:27.416
878, 1.92155, 359.979, 75.7367, 0, 0, 0, 0.00585938, 0.347656, -9.71973, 1.18.2022 20:3:27.424
879, 1.92155, 359.979, 75.7367, 0, 0, 0, 0.0380859, 0.30957, -9.74902, 1.18.2022 20:3:27.432
880, 1.92155, 359.979, 75.7367, 0, -0.000976562, 0, -0.0546875, 0.355469, -9.74219, 1.18.2022 20:3:27.440
881, 1.92155, 359.979, 75.7367, -0.000976562, -0.000976562, -0.00195312, 0.0341797, 0.333008, -9.72461, 1.18.2022 20:3:27.448
882, 1.92155, 359.979, 75.7367, -0.000976562, -0.000976562, 0, 0.00585938, 0.339844, -9.69824, 1.18.2022 20:3:27.456
883, 1.92155, 359.979, 75.7367, -0.000976562, 0, -0.00195312, -0.0253906, 0.352539, -9.73242, 1.18.2022 20:3:27.464
884, 1.92155, 359.979, 75.7367, -0.000976562, 0, 0, 0.0527344, 0.311523, -9.71875, 1.18.2022 20:3:27.472
885, 1.92155, 359.979, 75.7367, 0, 0, 0.000976562, -0.0234375, 0.319336, -9.75781, 1.18.2022 20:3:27.480
886, 1.92155, 359.979, 75.7367, 0, 0, 0, -0.00195312, 0.331055, -9.74316, 1.18.2022 20:3:27.488
887, 1.92155, 359.979, 75.7367, -0.000976562, 0, 0, 0.0488281, 0.303711, -9.71387, 1.18.2022 20:3:27.496
888, 1.92155, 359.979, 75.7367, 0, -0.000976562, 0, -0.0478516, 0.34668, -9.76367, 1.18.2022 20:3:27.504
889, 1.92161, 359.979, 75.7477, 0, -0.000976562, 0, 0.0292969, 0.321289, -9.73926, 1.18.2022 20:3:27.512
890, 1.92161, 359.979, 75.7477, 0, 0, 0.000976562, 0.000976562, 0.308594, -9.7207, 1.18.2022 20:3:27.520
891, 1.92161, 359.979, 75.7477, 0, 0, 0.000976562, -0.0273438, 0.332031, -9.68848, 1.18.2022 20:3:27.528
892, 1.92161, 359.979, 75.7477, -0.000976562, 0, 0, 0.0410156, 0.297852, -9.7334, 1.18.2022 20:3:27.536
893, 1.92161, 359.979, 75.7477, -0.000976562, -0.000976562, 0, 0.0078125, 0.306641, -9.72266, 1.18.2022 20:3:27.544
894, 1.92161, 359.979, 75.7477, -0.000976562, -0.000976562, 0, -0.0253906, 0.333008, -9.70996, 1.18.2022 20:3:27.552
895, 1.92161, 359.979, 75.7477, -0.000976562, -0.000976562, -0.000976562, 0.0429688, 0.322266, -9.75098, 1.18.2022 20:3:27.560
896, 1.92161, 359.979, 75.7477, -0.000976562, 0, 0, -0.0546875, 0.345703, -9.73926, 1.18.2022 20:3:27.568
897, 1.92161, 359.979, 75.7477, -0.000976562, 0, -0.000976562, 0.0263672, 0.337891, -9.73438, 1.18.2022 20:3:27.576
898, 1.92161, 359.979, 75.7477, -0.000976562, -0.000976562, 0, 0.0195312, 0.326172, -9.73633, 1.18.2022 20:3:27.584
899, 1.92161, 359.979, 75.7477, -0.000976562, -0.000976562, 0, -0.0429688, 0.334961, -9.78223, 1.18.2022 20:3:27.592
900, 1.92161, 359.979, 75.7477, 0, 0, 0, 0.0361328, 0.316406, -9.73242, 1.18.2022 20:3:27.600
901, 1.92161, 359.979, 75.7477, -0.000976562, 0, -0.000976562, 0.00488281, 0.321289, -9.74121, 1.18.2022 20:3:27.608
902, 1.92161, 359.979, 75.7477, -0.000976562, 0, 0, -0.0175781, 0.341797, -9.68164, 1.18.2022 20:3:27.616
903, 1.9214, 359.979, 75.7491, -0.000976562, -0.000976562, 0, 0.0498047, 0.3125, -9.74707, 1.18.2022 20:3:27.624
904, 1.9214, 359.979, 75.7491, 0, 0, 0, -0.0644531, 0.338867, -9.76367, 1.18.2022 20:3:27.632
905, 1.9214, 359.979, 75.7491, -0.000976562, -0.000976562, 0, 0, 0.338867, -9.74805, 1.18.2022 20:3:27.640
906, 1.9214, 359.979, 75.7491, -0.000976562, 0, 0, 0.0263672, 0.301758, -9.73535, 1.18.2022 20:3:27.648
907, 1.9214, 359.979, 75.7491, -0.000976562, 0, 0, -0.0253906, 0.344727, -9.7168, 1.18.2022 20:3:27.656
908, 1.9214, 359.979, 75.7491, -0.000976562, -0.000976562, 0, 0.0283203, 0.300781, -9.75195, 1.18.2022 20:3:27.664
909, 1.9214, 359.979, 75.7491, -0.000976562, -0.000976562, -0.000976562, 0.000976562, 0.330078, -9.70312, 1.18.2022 20:3:27.672
910, 1.9214, 359.979, 75.7491, 0, -0.000976562, 0, -0.0146484, 0.353516, -9.76855, 1.18.2022 20:3:27.680
911, 1.9214, 359.979, 75.7491, 0, 0, -0.000976562, 0.0605469, 0.291992, -9.72656, 1.18.2022 20:3:27.688
912, 1.9214, 359.979, 75.7491, -0.000976562, 0, -0.000976562, -0.0263672, 0.350586, -9.74219, 1.18.2022 20:3:27.696
913, 1.92168, 359.979, 75.7588, -0.00195312, 0, 0, -0.00390625, 0.337891, -9.71484, 1.18.2022 20:3:27.704
914, 1.92168, 359.979, 75.7588, -0.000976562, -0.000976562, 0, 0.0410156, 0.294922, -9.72559, 1.18.2022 20:3:27.712
915, 1.92168, 359.979, 75.7588, -0.000976562, -0.000976562, 0, -0.0429688, 0.333984, -9.73828, 1.18.2022 20:3:27.720
916, 1.92168, 359.979, 75.7588, 0, -0.000976562, 0, 0.0263672, 0.338867, -9.75781, 1.18.2022 20:3:27.728
917, 1.92168, 359.979, 75.7588, -0.000976562, -0.000976562, 0, 0.0361328, 0.332031, -9.7627, 1.18.2022 20:3:27.736
918, 1.92168, 359.979, 75.7588, 0, -0.000976562, 0, -0.0322266, 0.334961, -9.69336, 1.18.2022 20:3:27.744
919, 1.92168, 359.979, 75.7588, 0, -0.000976562, -0.000976562, 0.0576172, 0.319336, -9.74023, 1.18.2022 20:3:27.752
920, 1.92168, 359.979, 75.7588, -0.000976562, 0, 0, -0.00195312, 0.337891, -9.70996, 1.18.2022 20:3:27.760
921, 1.92168, 359.979, 75.7588, 0, 0, 0, -0.0117188, 0.323242, -9.72656, 1.18.2022 20:3:27.768
922, 1.92168, 359.979, 75.7588, -0.000976562, 0, -0.000976562, 0.0527344, 0.311523, -9.72559, 1.18.2022 20:3:27.776
923, 1.92168, 359.979, 75.7588, 0, -0.000976562, 0, -0.0615234, 0.337891, -9.71191, 1.18.2022 20:3:27.784
924, 1.92168, 359.979, 75.7588, -0.000976562, -0.000976562, -0.000976562, 0.0244141, 0.354492, -9.73145, 1.18.2022 20:3:27.792
925, 1.92168, 359.979, 75.7588, -0.000976562, -0.000976562, -0.000976562, 0.0107422, 0.311523, -9.70898, 1.18.2022 20:3:27.800
926, 1.92168, 359.979, 75.7588, 0, -0.000976562, 0, -0.0634766, 0.349609, -9.69727, 1.18.2022 20:3:27.808
927, 1.92168, 359.979, 75.7588, -0.000976562, -0.000976562, 0, 0.0410156, 0.299805, -9.75, 1.18.2022 20:3:27.816
928, 1.92168, 359.979, 75.7588, -0.000976562, 0, -0.000976562, -0.0117188, 0.326172, -9.73145, 1.18.2022 20:3:27.824
929, 1.92168, 359.979, 75.7588, -0.000976562, 0, 0, -0.00683594, 0.34375, -9.75195, 1.18.2022 20:3:27.832
930, 1.92146, 359.979, 75.7601, -0.00195312, 0, 0, 0.0693359, 0.294922, -9.72168, 1.18.2022 20:3:27.840
931, 1.92575, 359.974, 75.7601, -0.000976562, 0, 0, -0.0517578, 0.334961, -9.7002, 1.18.2022 20:3:27.848
932, 1.92575, 359.974, 75.7601, -0.000976562, 0, 0, -0.0117188, 0.319336, -9.75488, 1.18.2022 20:3:27.856
933, 1.92575, 359.974, 75.7601, -0.000976562, -0.000976562, 0.000976562, 0.00976562, 0.297852, -9.74707, 1.18.2022 20:3:27.864
934, 1.92575, 359.974, 75.7601, 0, -0.000976562, 0, -0.0546875, 0.350586, -9.74219, 1.18.2022 20:3:27.872
935, 1.92146, 359.979, 75.7601, -0.000976562, -0.000976562, -0.000976562, 0.0390625, 0.323242, -9.71777, 1.18.2022 20:3:27.880
936, 1.92146, 359.979, 75.7601, -0.000976562, -0.000976562, 0, -0.00683594, 0.295898, -9.75098, 1.18.2022 20:3:27.888
937, 1.92146, 359.979, 75.7601, -0.000976562, -0.000976562, 0, -0.0234375, 0.331055, -9.72656, 1.18.2022 20:3:27.896
938, 1.92146, 359.979, 75.7601, -0.000976562, -0.000976562, 0, 0.0703125, 0.320312, -9.7041, 1.18.2022 20:3:27.904
939, 1.92146, 359.979, 75.7601, -0.000976562, -0.000976562, 0, -0.0517578, 0.331055, -9.7334, 1.18.2022 20:3:27.912
940, 1.92146, 359.979, 75.7601, -0.000976562, -0.000976562, -0.000976562, -0.0234375, 0.357422, -9.72852, 1.18.2022 20:3:27.920
941, 1.92174, 359.979, 75.7697, -0.000976562, 0, -0.000976562, 0.0175781, 0.316406, -9.73242, 1.18.2022 20:3:27.928
942, 1.92174, 359.979, 75.7697, 0, 0, -0.000976562, -0.0449219, 0.367188, -9.74902, 1.18.2022 20:3:27.936
943, 1.92174, 359.979, 75.7697, 0, 0, 0, 0.0214844, 0.320312, -9.7793, 1.18.2022 20:3:27.944
944, 1.92174, 359.979, 75.7697, 0, 0, 0, 0, 0.327148, -9.75781, 1.18.2022 20:3:27.952
945, 1.92174, 359.979, 75.7697, -0.000976562, -0.000976562, 0, -0.0449219, 0.342773, -9.72363, 1.18.2022 20:3:27.960
946, 1.92174, 359.979, 75.7697, -0.000976562, -0.000976562, 0, 0.0527344, 0.301758, -9.71191, 1.18.2022 20:3:27.968
947, 1.92174, 359.979, 75.7697, -0.000976562, 0, 0, -0.0166016, 0.295898, -9.74902, 1.18.2022 20:3:27.976
948, 1.92174, 359.979, 75.7697, -0.000976562, 0, 0, -0.0166016, 0.323242, -9.72949, 1.18.2022 20:3:27.984
949, 1.92603, 359.974, 75.7698, -0.000976562, 0, 0, 0.0224609, 0.298828, -9.7041, 1.18.2022 20:3:27.992
950, 1.92603, 359.974, 75.7698, -0.000976562, -0.000976562, 0.000976562, -0.0517578, 0.342773, -9.73047, 1.18.2022 20:3:28.000
951, 1.92603, 359.974, 75.7698, -0.000976562, 0, 0, 0, 0.31543, -9.78125, 1.18.2022 20:3:28.008
952, 1.92582, 359.974, 75.7711, -0.000976562, 0, 0, 0.03125, 0.319336, -9.7373, 1.18.2022 20:3:28.016
953, 1.92582, 359.974, 75.7711, -0.000976562, 0, 0.000976562, -0.0439453, 0.34668, -9.70703, 1.18.2022 20:3:28.024
954, 1.92582, 359.974, 75.7711, -0.000976562, -0.000976562, -0.000976562, 0.0546875, 0.295898, -9.77344, 1.18.2022 20:3:28.032
955, 1.92582, 359.974, 75.7711, 0, -0.000976562, -0.000976562, -0.00976562, 0.313477, -9.7793, 1.18.2022 20:3:28.040
956, 1.92582, 359.974, 75.7711, -0.000976562, -0.000976562, 0, -0.0146484, 0.310547, -9.77637, 1.18.2022 20:3:28.048
957, 1.92153, 359.979, 75.7711, -0.000976562, -0.000976562, 0, 0.0283203, 0.3125, -9.7627, 1.18.2022 20:3:28.056
958, 1.92153, 359.979, 75.7711, -0.000976562, -0.000976562, 0, -0.0712891, 0.335938, -9.74707, 1.18.2022 20:3:28.064
959, 1.92153, 359.979, 75.7711, -0.000976562, 0, 0, 0.0117188, 0.34375, -9.75, 1.18.2022 20:3:28.072
960, 1.92153, 359.979, 75.7711, -0.000976562, -0.000976562, 0, 0.0175781, 0.328125, -9.73145, 1.18.2022 20:3:28.080
961, 1.92153, 359.979, 75.7711, -0.000976562, -0.000976562, 0, -0.0253906, 0.34082, -9.73828, 1.18.2022 20:3:28.086
962, 1.92153, 359.979, 75.7711, -0.00195312, 0, 0, 0.0166016, 0.324219, -9.74414, 1.18.2022 20:3:28.094
963, 1.92153, 359.979, 75.7711, -0.000976562, -0.000976562, 0, -0.00683594, 0.334961, -9.71191, 1.18.2022 20:3:28.102
964, 1.92153, 359.979, 75.7711, -0.000976562, -0.000976562, -0.000976562, -0.0400391, 0.354492, -9.71094, 1.18.2022 20:3:28.110
965, 1.92704, 359.984, 75.7709, -0.000976562, -0.000976562, 0, 0.0439453, 0.325195, -9.70605, 1.18.2022 20:3:28.118
966, 1.92732, 359.984, 75.7806, -0.00195312, -0.000976562, 0, -0.0302734, 0.324219, -9.74023, 1.18.2022 20:3:28.126
967, 1.92732, 359.984, 75.7806, -0.000976562, 0, 0, 0.0126953, 0.362305, -9.72852, 1.18.2022 20:3:28.134
968, 1.92732, 359.984, 75.7806, -0.000976562, 0, 0, 0.0458984, 0.296875, -9.70215, 1.18.2022 20:3:28.142
969, 1.92711, 359.984, 75.7819, 0, 0, 0, -0.0400391, 0.335938, -9.74512, 1.18.2022 20:3:28.150
970, 1.92711, 359.984, 75.7819, -0.000976562, -0.000976562, 0, 0.0195312, 0.303711, -9.71387, 1.18.2022 20:3:28.158
971, 1.92711, 359.984, 75.7819, -0.000976562, 0, 0.000976562, 0, 0.321289, -9.72949, 1.18.2022 20:3:28.166
972, 1.92711, 359.984, 75.7819, -0.000976562, 0, 0.000976562, -0.0234375, 0.347656, -9.74023, 1.18.2022 20:3:28.174
973, 1.92711, 359.984, 75.7819, -0.000976562, 0, 0.000976562, 0.0478516, 0.301758, -9.72363, 1.18.2022 20:3:28.182
974, 1.9314, 359.978, 75.782, -0.000976562, 0, 0, 0.00488281, 0.318359, -9.72754, 1.18.2022 20:3:28.190
975, 1.9314, 359.978, 75.782, -0.000976562, 0, 0, -0.00390625, 0.349609, -9.72168, 1.18.2022 20:3:28.198
976, 1.9314, 359.978, 75.782, -0.000976562, -0.000976562, 0.000976562, 0.0527344, 0.319336, -9.76367, 1.18.2022 20:3:28.206
977, 1.9314, 359.978, 75.782, -0.00195312, -0.000976562, -0.000976562, -0.0400391, 0.34082, -9.74512, 1.18.2022 20:3:28.214
978, 1.9314, 359.978, 75.782, -0.00195312, -0.00195312, -0.000976562, 0.0273438, 0.316406, -9.71582, 1.18.2022 20:3:28.222
979, 1.9314, 359.978, 75.782, 0, 0, 0, 0.0195312, 0.326172, -9.74414, 1.18.2022 20:3:28.230
980, 1.92711, 359.984, 75.7819, -0.000976562, -0.000976562, 0, -0.0644531, 0.31543, -9.76855, 1.18.2022 20:3:28.238
981, 1.92711, 359.984, 75.7819, -0.000976562, -0.000976562, 0, 0.0576172, 0.331055, -9.74414, 1.18.2022 20:3:28.246
982, 1.92711, 359.984, 75.7819, -0.000976562, 0, -0.000976562, -0.00488281, 0.316406, -9.73926, 1.18.2022 20:3:28.254
983, 1.9314, 359.978, 75.782, -0.000976562, 0, -0.000976562, -0.0205078, 0.367188, -9.73242, 1.18.2022 20:3:28.262
984, 1.92711, 359.984, 75.7819, 0.000976562, -0.000976562, 0, 0.0507812, 0.313477, -9.71582, 1.18.2022 20:3:28.270
985, 1.92711, 359.984, 75.7819, 0.000976562, -0.000976562, 0, -0.0224609, 0.323242, -9.69824, 1.18.2022 20:3:28.278
986, 1.92711, 359.984, 75.7819, 0, 0, 0, 0.015625, 0.320312, -9.6875, 1.18.2022 20:3:28.286
987, 1.92711, 359.984, 75.7819, 0, -0.000976562, 0, 0.0214844, 0.297852, -9.76074, 1.18.2022 20:3:28.294
988, 1.92711, 359.984, 75.7819, 0, 0, 0, -0.0683594, 0.34082, -9.73438, 1.18.2022 20:3:28.302
989, 1.92711, 359.984, 75.7819, 0.000976562, -0.000976562, 0.000976562, 0.0527344, 0.323242, -9.73047, 1.18.2022 20:3:28.310
990, 1.92711, 359.984, 75.7819, 0.000976562, 0, 0.000976562, 0.00195312, 0.322266, -9.76758, 1.18.2022 20:3:28.318
991, 1.92711, 359.984, 75.7819, 0.000976562, -0.000976562, 0.000976562, -0.0400391, 0.348633, -9.75391, 1.18.2022 20:3:28.326
992, 1.92711, 359.984, 75.7819, 0, 0, 0.000976562, 0.0664062, 0.304688, -9.75, 1.18.2022 20:3:28.334
993, 1.92159, 359.98, 75.7821, 0, 0, 0.000976562, -0.0380859, 0.304688, -9.73828, 1.18.2022 20:3:28.342
994, 1.9218, 359.98, 75.7808, -0.00195312, 0, -0.000976562, -0.00683594, 0.331055, -9.74316, 1.18.2022 20:3:28.350
995, 1.9218, 359.98, 75.7808, 0, 0, 0, 0.0273438, 0.301758, -9.71875, 1.18.2022 20:3:28.358
996, 1.9218, 359.98, 75.7808, 0, -0.000976562, 0, -0.0214844, 0.350586, -9.74902, 1.18.2022 20:3:28.366
997, 1.92732, 359.984, 75.7806, -0.000976562, -0.00195312, 0, 0.0351562, 0.310547, -9.78711, 1.18.2022 20:3:28.374
998, 1.92153, 359.979, 75.7711, 0.000976562, 0, 0, 0.0185547, 0.295898, -9.77539, 1.18.2022 20:3:28.382
999, 1.92153, 359.979, 75.7711, 0, 0, 0.000976562, -0.0283203, 0.34668, -9.76855, 1.18.2022 20:3:28.390
1000, 1.92153, 359.979, 75.7711, 0, 0, 0, 0.0507812, 0.342773, -9.74414, 1.18.2022 20:3:28.398
1001, 1.92153, 359.979, 75.7711, 0.000976562, 0, 0, -0.0107422, 0.356445, -9.7168, 1.18.2022 20:3:28.406
1002, 1.92153, 359.979, 75.7711, -0.00195312, 0, -0.000976562, -0.0253906, 0.336914, -9.70215, 1.18.2022 20:3:28.414
1003, 1.92153, 359.979, 75.7711, 0.000976562, 0, 0, 0.0507812, 0.306641, -9.7373, 1.18.2022 20:3:28.422
1004, 1.92153, 359.979, 75.7711, 0.000976562, -0.000976562, 0, -0.0419922, 0.348633, -9.69531, 1.18.2022 20:3:28.430
1005, 1.92153, 359.979, 75.7711, 0.000976562, -0.000976562, -0.00195312, 0.0126953, 0.313477, -9.70898, 1.18.2022 20:3:28.438
1006, 1.92153, 359.979, 75.7711, 0.000976562, 0, 0, 0.000976562, 0.313477, -9.71973, 1.18.2022 20:3:28.446
1007, 1.92174, 359.979, 75.7697, 0, -0.000976562, 0, -0.0449219, 0.337891, -9.73047, 1.18.2022 20:3:28.454
1008, 1.92174, 359.979, 75.7697, 0, 0, 0, 0.0419922, 0.302734, -9.68848, 1.18.2022 20:3:28.462
1009, 1.92174, 359.979, 75.7697, 0.000976562, 0, 0, -0.0322266, 0.330078, -9.70703, 1.18.2022 20:3:28.470
1010, 1.92174, 359.979, 75.7697, 0.000976562, -0.000976562, 0.000976562, -0.015625, 0.34668, -9.68848, 1.18.2022 20:3:28.478
1011, 1.92146, 359.979, 75.7601, -0.000976562, -0.000976562, 0, 0.0175781, 0.296875, -9.71387, 1.18.2022 20:3:28.486
1012, 1.92146, 359.979, 75.7601, -0.000976562, -0.000976562, 0, -0.0439453, 0.330078, -9.70215, 1.18.2022 20:3:28.494
1013, 1.92146, 359.979, 75.7601, 0, 0, 0, 0.000976562, 0.341797, -9.69336, 1.18.2022 20:3:28.502
1014, 1.92146, 359.979, 75.7601, -0.000976562, 0, -0.00195312, 0.0175781, 0.321289, -9.72754, 1.18.2022 20:3:28.510
1015, 1.92146, 359.979, 75.7601, 0.000976562, 0, -0.00195312, -0.046875, 0.326172, -9.71875, 1.18.2022 20:3:28.518
1016, 1.92146, 359.979, 75.7601, 0, -0.000976562, -0.000976562, 0.0458984, 0.333984, -9.74902, 1.18.2022 20:3:28.526
1017, 1.92146, 359.979, 75.7601, -0.000976562, -0.000976562, -0.000976562, -0.015625, 0.301758, -9.7207, 1.18.2022 20:3:28.534
1018, 1.92146, 359.979, 75.7601, -0.000976562, -0.000976562, -0.000976562, -0.0449219, 0.362305, -9.73926, 1.18.2022 20:3:28.542
1019, 1.92146, 359.979, 75.7601, 0, 0, -0.000976562, 0.0546875, 0.317383, -9.75879, 1.18.2022 20:3:28.550
1020, 1.92146, 359.979, 75.7601, -0.000976562, 0, -0.000976562, -0.0322266, 0.330078, -9.7168, 1.18.2022 20:3:28.558
1021, 1.92146, 359.979, 75.7601, -0.000976562, -0.000976562, -0.000976562, -0.0205078, 0.303711, -9.70801, 1.18.2022 20:3:28.566
1022, 1.92146, 359.979, 75.7601, -0.000976562, 0, -0.000976562, 0.0400391, 0.300781, -9.78223, 1.18.2022 20:3:28.574
1023, 1.92146, 359.979, 75.7601, 0, -0.000976562, -0.000976562, -0.0302734, 0.347656, -9.73535, 1.18.2022 20:3:28.582
1024, 1.92146, 359.979, 75.7601, 0, -0.000976562, -0.000976562, 0.0410156, 0.34082, -9.74121, 1.18.2022 20:3:28.590
1025, 1.92174, 359.979, 75.7697, 0.000976562, 0, -0.000976562, 0.0224609, 0.326172, -9.71973, 1.18.2022 20:3:28.598
1026, 1.92174, 359.979, 75.7697, 0, -0.000976562, -0.000976562, -0.0566406, 0.364258, -9.70801, 1.18.2022 20:3:28.606
1027, 1.92174, 359.979, 75.7697, -0.000976562, -0.000976562, -0.000976562, 0.0595703, 0.326172, -9.73535, 1.18.2022 20:3:28.614
1028, 1.92174, 359.979, 75.7697, 0, -0.000976562, -0.000976562, -0.0195312, 0.333984, -9.76855, 1.18.2022 20:3:28.622
1029, 1.92174, 359.979, 75.7697, -0.000976562, 0, -0.00195312, -0.0146484, 0.334961, -9.77637, 1.18.2022 20:3:28.630
1030, 1.92153, 359.979, 75.7711, -0.000976562, -0.000976562, -0.00195312, 0.00292969, 0.330078, -9.71777, 1.18.2022 20:3:28.638
1031, 1.92153, 359.979, 75.7711, -0.000976562, -0.000976562, -0.00195312, -0.0664062, 0.326172, -9.71387, 1.18.2022 20:3:28.646
1032, 1.92153, 359.979, 75.7711, -0.000976562, -0.000976562, -0.000976562, 0.0195312, 0.367188, -9.74219, 1.18.2022 20:3:28.654
1033, 1.92153, 359.979, 75.7711, -0.000976562, 0, -0.000976562, 0, 0.310547, -9.77246, 1.18.2022 20:3:28.662
1034, 1.92153, 359.979, 75.7711, 0, 0, -0.000976562, -0.0185547, 0.333008, -9.72363, 1.18.2022 20:3:28.670
1035, 1.92153, 359.979, 75.7711, 0, 0, -0.000976562, 0.0546875, 0.300781, -9.75488, 1.18.2022 20:3:28.678
1036, 1.92153, 359.979, 75.7711, 0, 0, -0.000976562, -0.0263672, 0.333984, -9.76172, 1.18.2022 20:3:28.686
1037, 1.92153, 359.979, 75.7711, -0.00195312, 0, -0.000976562, -0.0273438, 0.351562, -9.69043, 1.18.2022 20:3:28.694
1038, 1.9218, 359.98, 75.7808, 0, -0.000976562, -0.00195312, 0.0449219, 0.307617, -9.75195, 1.18.2022 20:3:28.702
1039, 1.92159, 359.98, 75.7821, -0.000976562, 0, -0.000976562, -0.046875, 0.333008, -9.70898, 1.18.2022 20:3:28.710
1040, 1.92159, 359.98, 75.7821, -0.000976562, 0, -0.000976562, 0.00488281, 0.306641, -9.73438, 1.18.2022 20:3:28.718
1041, 1.92159, 359.98, 75.7821, 0, 0, -0.00195312, 0.03125, 0.290039, -9.73535, 1.18.2022 20:3:28.726
1042, 1.92159, 359.98, 75.7821, -0.000976562, -0.000976562, -0.000976562, -0.03125, 0.34082, -9.75391, 1.18.2022 20:3:28.734
1043, 1.92159, 359.98, 75.7821, -0.000976562, 0, 0.000976562, 0.0478516, 0.333008, -9.72754, 1.18.2022 20:3:28.742
1044, 1.92159, 359.98, 75.7821, 0, 0.000976562, -0.000976562, -0.00488281, 0.3125, -9.74609, 1.18.2022 20:3:28.750
1045, 1.92159, 359.98, 75.7821, -0.000976562, -0.000976562, 0.000976562, -0.0166016, 0.347656, -9.7334, 1.18.2022 20:3:28.758
1046, 1.92159, 359.98, 75.7821, 0, 0, -0.000976562, 0.0527344, 0.31543, -9.71387, 1.18.2022 20:3:28.766
1047, 1.92159, 359.98, 75.7821, -0.000976562, 0, 0.000976562, -0.0224609, 0.341797, -9.70703, 1.18.2022 20:3:28.774
1048, 1.92159, 359.98, 75.7821, -0.000976562, -0.000976562, 0, 0.00488281, 0.316406, -9.73242, 1.18.2022 20:3:28.782
1049, 1.92159, 359.98, 75.7821, 0, -0.000976562, 0, 0.0166016, 0.303711, -9.7793, 1.18.2022 20:3:28.790
1050, 1.92159, 359.98, 75.7821, -0.000976562, -0.000976562, 0, -0.0683594, 0.360352, -9.73633, 1.18.2022 20:3:28.798
1051, 1.92159, 359.98, 75.7821, -0.000976562, 0, -0.00195312, 0.0390625, 0.328125, -9.72266, 1.18.2022 20:3:28.806
1052, 1.92159, 359.98, 75.7821, -0.000976562, -0.000976562, -0.00195312, 0.03125, 0.314453, -9.74707, 1.18.2022 20:3:28.814
