Seq, Rot x, Rot y, Rot z, Vel x, Vel y, Vel z, Acc x, Acc y, Acc z, Time(m.d.y h:m:s.ms)
0, 1.65668, 0.0855776, 140.788, -0.000976562, 0.000976562, -0.00390625, -0.0166016, 0.280273, -9.72754, 1.18.2022 18:20:49.409
1, 1.65668, 0.0855776, 140.788, -0.000976562, 0.000976562, -0.00390625, -0.0888672, 0.320312, -9.78027, 1.18.2022 18:20:49.417
2, 1.65668, 0.0855776, 140.788, -0.000976562, 0.000976562, -0.00390625, -0.0332031, 0.295898, -9.7627, 1.18.2022 18:20:49.425
3, 1.65677, 0.0856711, 140.796, -0.000976562, 0.000976562, -0.00390625, -0.0664062, 0.280273, -9.72949, 1.18.2022 18:20:49.433
4, 1.65677, 0.0856711, 140.796, -0.000976562, 0, -0.00488281, -0.107422, 0.304688, -9.74219, 1.18.2022 18:20:49.441
5, 1.65677, 0.0856711, 140.796, -0.000976562, 0.000976562, -0.00292969, 0.00195312, 0.267578, -9.7832, 1.18.2022 18:20:49.449
6, 1.65677, 0.0856711, 140.796, -0.000976562, 0.000976562, -0.00292969, -0.0693359, 0.264648, -9.7373, 1.18.2022 18:20:49.457
7, 1.65687, 0.0857646, 140.804, -0.00195312, 0, -0.00292969, -0.0761719, 0.30957, -9.72168, 1.18.2022 18:20:49.465
8, 1.65687, 0.0857646, 140.804, -0.000976562, 0.000976562, -0.00292969, -0.0332031, 0.283203, -9.73242, 1.18.2022 18:20:49.473
9, 1.65687, 0.0857646, 140.804, -0.000976562, 0, -0.00292969, -0.100586, 0.310547, -9.75391, 1.18.2022 18:20:49.481
10, 1.65658, 0.0858034, 140.803, -0.000976562, 0.000976562, -0.00390625, -0.015625, 0.306641, -9.71777, 1.18.2022 18:20:49.489
11, 1.65424, 0.0792153, 140.803, -0.000976562, 0.00195312, -0.00292969, -0.0566406, 0.27832, -9.73633, 1.18.2022 18:20:49.497
12, 1.66082, 0.0768695, 140.803, -0.00195312, 0.000976562, -0.00292969, -0.0859375, 0.300781, -9.75488, 1.18.2022 18:20:49.505
13, 1.66092, 0.0769634, 140.811, -0.00195312, 0, -0.00390625, -0.00292969, 0.274414, -9.76367, 1.18.2022 18:20:49.513
14, 1.66092, 0.0769634, 140.811, -0.00195312, 0.000976562, -0.00390625, -0.0693359, 0.295898, -9.75, 1.18.2022 18:20:49.521
15, 1.66092, 0.0769634, 140.811, -0.00195312, 0, -0.00292969, -0.0576172, 0.300781, -9.75488, 1.18.2022 18:20:49.529
16, 1.66092, 0.0769634, 140.811, -0.00195312, 0, -0.00292969, -0.00683594, 0.297852, -9.7373, 1.18.2022 18:20:49.537
17, 1.66092, 0.0769634, 140.811, -0.00195312, 0, -0.00292969, -0.0791016, 0.325195, -9.77051, 1.18.2022 18:20:49.545
18, 1.66102, 0.0770574, 140.819, -0.000976562, 0, -0.00488281, -0.0380859, 0.277344, -9.77051, 1.18.2022 18:20:49.553
19, 1.66102, 0.0770574, 140.819, -0.00195312, 0, -0.00390625, -0.0595703, 0.290039, -9.73633, 1.18.2022 18:20:49.561
20, 1.66102, 0.0770574, 140.819, -0.000976562, 0.000976562, -0.00292969, -0.0761719, 0.286133, -9.75, 1.18.2022 18:20:49.569
21, 1.66102, 0.0770574, 140.819, -0.000976562, 0, -0.00292969, -0.00878906, 0.253906, -9.72852, 1.18.2022 18:20:49.577
22, 1.66102, 0.0770574, 140.819, -0.000976562, -0.000976562, -0.00292969, -0.0712891, 0.291016, -9.75781, 1.18.2022 18:20:49.585
23, 1.66112, 0.0771513, 140.827, -0.000976562, -0.000976562, -0.00488281, -0.0449219, 0.300781, -9.75781, 1.18.2022 18:20:49.593
24, 1.66083, 0.0771897, 140.825, -0.00195312, 0.000976562, -0.00292969, -0.0195312, 0.257812, -9.76172, 1.18.2022 18:20:49.601
25, 1.66083, 0.0771897, 140.825, -0.000976562, 0, -0.00488281, -0.123047, 0.296875, -9.70898, 1.18.2022 18:20:49.609
26, 1.66083, 0.0771897, 140.825, -0.00195312, 0, -0.00390625, -0.03125, 0.27832, -9.74414, 1.18.2022 18:20:49.617
27, 1.66751, 0.0749396, 140.833, -0.00195312, 0, -0.00390625, -0.0449219, 0.3125, -9.73828, 1.18.2022 18:20:49.625
28, 1.66751, 0.0749396, 140.833, -0.00195312, 0, -0.00390625, -0.0947266, 0.295898, -9.73828, 1.18.2022 18:20:49.633
29, 1.66751, 0.0749396, 140.833, -0.000976562, 0, -0.00488281, -0.00292969, 0.313477, -9.77441, 1.18.2022 18:20:49.641
30, 1.66751, 0.0749396, 140.833, -0.000976562, 0, -0.00292969, -0.0791016, 0.293945, -9.75488, 1.18.2022 18:20:49.649
31, 1.71111, 0.259957, 140.838, -0.000976562, -0.00195312, -0.000976562, -0.0693359, 0.289062, -9.75293, 1.18.2022 18:20:49.657
32, 1.71858, 0.301833, 140.837, -0.000976562, -0.000976562, 0, -0.0146484, 0.269531, -9.74512, 1.18.2022 18:20:49.665
33, 1.72093, 0.308421, 140.837, 0, -0.00195312, -0.000976562, -0.102539, 0.292969, -9.73535, 1.18.2022 18:20:49.673
34, 1.72093, 0.308421, 140.837, -0.000976562, 0, 0, -0.046875, 0.285156, -9.73242, 1.18.2022 18:20:49.681
35, 1.72093, 0.308421, 140.837, -0.000976562, -0.000976562, 0, -0.0615234, 0.291016, -9.75098, 1.18.2022 18:20:49.689
36, 1.72093, 0.308421, 140.837, -0.000976562, -0.000976562, -0.000976562, -0.0947266, 0.322266, -9.74414, 1.18.2022 18:20:49.697
37, 1.72093, 0.308421, 140.837, 0, 0, -0.00195312, -0.0136719, 0.268555, -9.74023, 1.18.2022 18:20:49.705
38, 1.71434, 0.310765, 140.837, 0, -0.000976562, -0.000976562, -0.0878906, 0.279297, -9.75293, 1.18.2022 18:20:49.713
39, 1.71434, 0.310765, 140.837, -0.000976562, -0.000976562, -0.000976562, -0.0673828, 0.293945, -9.77637, 1.18.2022 18:20:49.721
40, 1.71668, 0.317354, 140.837, -0.000976562, 0, 0, -0.0332031, 0.269531, -9.74707, 1.18.2022 18:20:49.729
41, 1.71668, 0.317354, 140.837, -0.000976562, -0.000976562, 0.000976562, -0.0996094, 0.287109, -9.70508, 1.18.2022 18:20:49.737
42, 1.71668, 0.317354, 140.837, -0.000976562, -0.000976562, 0, -0.0302734, 0.285156, -9.72949, 1.18.2022 18:20:49.745
43, 1.71668, 0.317354, 140.837, -0.000976562, 0, -0.000976562, -0.03125, 0.298828, -9.76758, 1.18.2022 18:20:49.753
44, 1.71668, 0.317354, 140.837, 0, 0, -0.000976562, -0.0917969, 0.330078, -9.7041, 1.18.2022 18:20:49.761
45, 1.71668, 0.317354, 140.837, -0.000976562, 0, -0.000976562, -0.0117188, 0.292969, -9.74609, 1.18.2022 18:20:49.769
46, 1.71668, 0.317354, 140.837, 0, 0, 0, -0.0615234, 0.295898, -9.75293, 1.18.2022 18:20:49.777
47, 1.71668, 0.317354, 140.837, -0.000976562, -0.000976562, -0.000976562, -0.0673828, 0.301758, -9.77832, 1.18.2022 18:20:49.785
48, 1.71668, 0.317354, 140.837, -0.000976562, 0, -0.000976562, -0.0117188, 0.279297, -9.75879, 1.18.2022 18:20:49.793
49, 1.71668, 0.317354, 140.837, 0, 0, 0, -0.0878906, 0.328125, -9.72754, 1.18.2022 18:20:49.801
50, 1.72327, 0.31501, 140.837, 0, 0, -0.000976562, -0.0380859, 0.289062, -9.76465, 1.18.2022 18:20:49.809
51, 1.72327, 0.31501, 140.837, 0, -0.000976562, -0.000976562, -0.0302734, 0.275391, -9.7207, 1.18.2022 18:20:49.817
52, 1.72327, 0.31501, 140.837, 0, 0, -0.000976562, -0.0849609, 0.299805, -9.72168, 1.18.2022 18:20:49.825
53, 1.72327, 0.31501, 140.837, -0.000976562, -0.000976562, -0.000976562, -0.0234375, 0.253906, -9.70215, 1.18.2022 18:20:49.833
54, 1.72093, 0.308421, 140.837, 0, -0.000976562, 0, -0.0693359, 0.297852, -9.75488, 1.18.2022 18:20:49.841
55, 1.72093, 0.308421, 140.837, -0.000976562, 0, 0, -0.0410156, 0.291992, -9.78906, 1.18.2022 18:20:49.849
56, 1.72093, 0.308421, 140.837, 0, 0, 0, 0.00488281, 0.256836, -9.75, 1.18.2022 18:20:49.857
57, 1.72093, 0.308421, 140.837, 0, 0, 0, -0.0976562, 0.304688, -9.72363, 1.18.2022 18:20:49.863
58, 1.72093, 0.308421, 140.837, 0, -0.000976562, -0.000976562, -0.0517578, 0.313477, -9.7168, 1.18.2022 18:20:49.871
59, 1.72093, 0.308421, 140.837, 0, -0.000976562, -0.000976562, -0.0478516, 0.289062, -9.76758, 1.18.2022 18:20:49.879
60, 1.72093, 0.308421, 140.837, -0.000976562, -0.000976562, 0, -0.0927734, 0.333984, -9.73926, 1.18.2022 18:20:49.887
61, 1.72093, 0.308421, 140.837, -0.00195312, -0.000976562, -0.000976562, -0.0166016, 0.290039, -9.73438, 1.18.2022 18:20:49.895
62, 1.72093, 0.308421, 140.837, -0.000976562, 0, -0.000976562, -0.0693359, 0.296875, -9.77637, 1.18.2022 18:20:49.903
63, 1.72093, 0.308421, 140.837, -0.000976562, 0, -0.000976562, -0.0576172, 0.28418, -9.76953, 1.18.2022 18:20:49.913
64, 1.72093, 0.308421, 140.837, 0, 0, -0.000976562, 0.00488281, 0.262695, -9.75684, 1.18.2022 18:20:49.919
65, 1.72093, 0.308421, 140.837, 0, 0, -0.000976562, -0.0908203, 0.320312, -9.76074, 1.18.2022 18:20:49.927
66, 1.72093, 0.308421, 140.837, 0, -0.000976562, 0, -0.0380859, 0.283203, -9.74414, 1.18.2022 18:20:49.935
67, 1.71858, 0.301833, 140.837, 0, 0, 0, -0.03125, 0.295898, -9.74414, 1.18.2022 18:20:49.943
68, 1.71858, 0.301833, 140.837, -0.000976562, -0.000976562, 0, -0.117188, 0.3125, -9.75391, 1.18.2022 18:20:49.951
69, 1.72517, 0.299489, 140.837, -0.000976562, -0.000976562, -0.000976562, -0.0078125, 0.279297, -9.76855, 1.18.2022 18:20:49.959
70, 1.72751, 0.306078, 140.837, -0.000976562, -0.000976562, -0.000976562, -0.0859375, 0.307617, -9.73828, 1.18.2022 18:20:49.967
71, 1.72751, 0.306078, 140.837, 0, 0, -0.000976562, -0.0859375, 0.288086, -9.7334, 1.18.2022 18:20:49.975
72, 1.72751, 0.306078, 140.837, -0.000976562, 0, -0.000976562, -0.00878906, 0.263672, -9.7334, 1.18.2022 18:20:49.983
73, 1.72751, 0.306078, 140.837, 0, -0.000976562, -0.000976562, -0.0927734, 0.28125, -9.75977, 1.18.2022 18:20:49.991
74, 1.72093, 0.308421, 140.837, -0.000976562, -0.000976562, 0, -0.0478516, 0.275391, -9.78418, 1.18.2022 18:20:49.999
75, 1.72093, 0.308421, 140.837, 0, -0.000976562, -0.000976562, -0.0449219, 0.283203, -9.73438, 1.18.2022 18:20:50.007
76, 1.72093, 0.308421, 140.837, 0, -0.000976562, 0, -0.104492, 0.302734, -9.74023, 1.18.2022 18:20:50.015
77, 1.72093, 0.308421, 140.837, -0.000976562, 0, 0, -0.0283203, 0.276367, -9.73535, 1.18.2022 18:20:50.023
78, 1.72093, 0.308421, 140.837, 0, -0.000976562, 0, -0.0732422, 0.273438, -9.73926, 1.18.2022 18:20:50.031
79, 1.72093, 0.308421, 140.837, -0.000976562, -0.000976562, -0.000976562, -0.0947266, 0.311523, -9.72363, 1.18.2022 18:20:50.039
80, 1.71434, 0.310765, 140.837, -0.000976562, -0.00195312, -0.000976562, -0.0117188, 0.271484, -9.74023, 1.18.2022 18:20:50.047
81, 1.71668, 0.317354, 140.837, -0.000976562, -0.000976562, 0, -0.0791016, 0.274414, -9.75293, 1.18.2022 18:20:50.055
82, 1.71668, 0.317354, 140.837, -0.000976562, -0.000976562, 0, -0.0761719, 0.286133, -9.74609, 1.18.2022 18:20:50.063
83, 1.71668, 0.317354, 140.837, 0, 0, -0.000976562, -0.0117188, 0.268555, -9.73535, 1.18.2022 18:20:50.071
84, 1.71668, 0.317354, 140.837, -0.000976562, -0.000976562, -0.000976562, -0.0996094, 0.294922, -9.72852, 1.18.2022 18:20:50.079
85, 1.71009, 0.319697, 140.837, -0.000976562, 0, -0.000976562, -0.00488281, 0.293945, -9.77539, 1.18.2022 18:20:50.087
86, 1.71009, 0.319697, 140.837, -0.000976562, 0, -0.000976562, -0.0263672, 0.310547, -9.75781, 1.18.2022 18:20:50.095
87, 1.71668, 0.317354, 140.837, -0.000976562, 0, -0.000976562, -0.0546875, 0.317383, -9.74023, 1.18.2022 18:20:50.103
88, 1.71434, 0.310765, 140.837, 0, -0.000976562, -0.000976562, 0.00292969, 0.294922, -9.7207, 1.18.2022 18:20:50.111
89, 1.71434, 0.310765, 140.837, 0, -0.000976562, 0, -0.117188, 0.298828, -9.78516, 1.18.2022 18:20:50.119
90, 1.71434, 0.310765, 140.837, -0.000976562, 0, -0.000976562, -0.0644531, 0.291016, -9.7666, 1.18.2022 18:20:50.127
91, 1.71434, 0.310765, 140.837, -0.000976562, 0, -0.000976562, -0.0332031, 0.288086, -9.74121, 1.18.2022 18:20:50.135
92, 1.71434, 0.310765, 140.837, 0, 0, 0, -0.102539, 0.27832, -9.73145, 1.18.2022 18:20:50.143
93, 1.71434, 0.310765, 140.837, 0, -0.000976562, -0.000976562, -0.0322266, 0.306641, -9.70312, 1.18.2022 18:20:50.151
94, 1.71434, 0.310765, 140.837, 0.000976562, 0, 0, -0.0380859, 0.276367, -9.75391, 1.18.2022 18:20:50.159
95, 1.71434, 0.310765, 140.837, -0.000976562, 0, -0.000976562, -0.0810547, 0.289062, -9.77148, 1.18.2022 18:20:50.167
96, 1.71434, 0.310765, 140.837, -0.000976562, -0.000976562, -0.000976562, -0.0166016, 0.279297, -9.76074, 1.18.2022 18:20:50.175
97, 1.71434, 0.310765, 140.837, 0, 0, -0.000976562, -0.0976562, 0.263672, -9.72754, 1.18.2022 18:20:50.183
98, 1.70775, 0.313109, 140.837, -0.000976562, -0.000976562, -0.000976562, -0.0498047, 0.256836, -9.74414, 1.18.2022 18:20:50.191
99, 1.70775, 0.313109, 140.837, 0, -0.000976562, -0.000976562, -0.0302734, 0.280273, -9.73242, 1.18.2022 18:20:50.199
100, 1.70775, 0.313109, 140.837, 0, 0, 0, -0.0947266, 0.294922, -9.72168, 1.18.2022 18:20:50.207
101, 1.70775, 0.313109, 140.837, 0, -0.000976562, -0.000976562, -0.0146484, 0.276367, -9.74902, 1.18.2022 18:20:50.215
102, 1.70775, 0.313109, 140.837, 0, -0.000976562, -0.000976562, -0.0810547, 0.27832, -9.72461, 1.18.2022 18:20:50.223
103, 1.70116, 0.315452, 140.837, 0, 0, -0.000976562, -0.0664062, 0.287109, -9.71777, 1.18.2022 18:20:50.231
104, 1.70116, 0.315452, 140.837, 0, -0.000976562, -0.000976562, -0.0195312, 0.272461, -9.76855, 1.18.2022 18:20:50.239
105, 1.70116, 0.315452, 140.837, 0, 0, -0.000976562, -0.0810547, 0.283203, -9.74316, 1.18.2022 18:20:50.247
106, 1.70116, 0.315452, 140.837, 0, 0, -0.000976562, -0.0830078, 0.27832, -9.73828, 1.18.2022 18:20:50.255
107, 1.69458, 0.317796, 140.837, -0.000976562, 0, -0.000976562, -0.0380859, 0.273438, -9.73926, 1.18.2022 18:20:50.263
108, 1.69458, 0.317796, 140.837, 0, 0, -0.000976562, -0.121094, 0.304688, -9.73242, 1.18.2022 18:20:50.271
109, 1.69458, 0.317796, 140.837, 0, -0.000976562, 0, -0.0361328, 0.276367, -9.74902, 1.18.2022 18:20:50.279
110, 1.69458, 0.317796, 140.837, -0.000976562, -0.00195312, -0.000976562, -0.0527344, 0.277344, -9.7793, 1.18.2022 18:20:50.287
111, 1.69458, 0.317796, 140.837, 0, -0.000976562, -0.000976562, -0.0712891, 0.301758, -9.72363, 1.18.2022 18:20:50.295
112, 1.68799, 0.320139, 140.837, 0, 0, -0.000976562, -0.00488281, 0.271484, -9.75879, 1.18.2022 18:20:50.303
113, 1.68799, 0.320139, 140.837, 0, 0, 0, -0.0654297, 0.290039, -9.7998, 1.18.2022 18:20:50.311
114, 1.68799, 0.320139, 140.837, -0.000976562, 0, -0.000976562, -0.0673828, 0.277344, -9.7627, 1.18.2022 18:20:50.319
115, 1.68799, 0.320139, 140.837, -0.000976562, 0, -0.000976562, -0.0429688, 0.259766, -9.75195, 1.18.2022 18:20:50.327
116, 1.68799, 0.320139, 140.837, 0, 0, -0.00195312, -0.112305, 0.283203, -9.74316, 1.18.2022 18:20:50.335
117, 1.68799, 0.320139, 140.837, 0, -0.000976562, -0.000976562, -0.0449219, 0.301758, -9.71484, 1.18.2022 18:20:50.343
118, 1.68149, 0.322573, 140.845, -0.000976562, -0.000976562, -0.000976562, -0.0400391, 0.283203, -9.74609, 1.18.2022 18:20:50.351
119, 1.68149, 0.322573, 140.845, -0.000976562, -0.000976562, -0.000976562, -0.0732422, 0.298828, -9.70801, 1.18.2022 18:20:50.359
120, 1.68149, 0.322573, 140.845, -0.000976562, -0.00195312, -0.000976562, -0.0117188, 0.279297, -9.76855, 1.18.2022 18:20:50.367
121, 1.68149, 0.322573, 140.845, -0.000976562, -0.000976562, -0.000976562, -0.0791016, 0.285156, -9.7998, 1.18.2022 18:20:50.375
122, 1.68383, 0.329162, 140.845, 0, -0.000976562, 0, -0.0644531, 0.273438, -9.72949, 1.18.2022 18:20:50.383
123, 1.68149, 0.322573, 140.845, -0.000976562, -0.000976562, -0.000976562, -0.00292969, 0.259766, -9.76367, 1.18.2022 18:20:50.391
124, 1.68149, 0.322573, 140.845, -0.000976562, 0, -0.000976562, -0.0976562, 0.286133, -9.74023, 1.18.2022 18:20:50.399
125, 1.68149, 0.322573, 140.845, -0.000976562, -0.000976562, 0, -0.0380859, 0.264648, -9.75879, 1.18.2022 18:20:50.407
126, 1.68149, 0.322573, 140.845, -0.000976562, -0.000976562, -0.000976562, -0.0146484, 0.277344, -9.76855, 1.18.2022 18:20:50.415
127, 1.68149, 0.322573, 140.845, -0.000976562, -0.000976562, 0, -0.0810547, 0.279297, -9.75293, 1.18.2022 18:20:50.423
128, 1.68149, 0.322573, 140.845, 0, 0, 0, 0, 0.294922, -9.73926, 1.18.2022 18:20:50.431
129, 1.67482, 0.324827, 140.837, 0, 0, 0, -0.078125, 0.306641, -9.71484, 1.18.2022 18:20:50.439
130, 1.67906, 0.315894, 140.837, 0, 0, 0, -0.0332031, 0.324219, -9.73633, 1.18.2022 18:20:50.447
131, 1.67906, 0.315894, 140.837, -0.000976562, -0.000976562, 0, -0.000976562, 0.267578, -9.78027, 1.18.2022 18:20:50.455
132, 1.67906, 0.315894, 140.837, 0, -0.000976562, -0.000976562, -0.0927734, 0.291992, -9.76855, 1.18.2022 18:20:50.463
133, 1.67906, 0.315894, 140.837, 0, -0.000976562, -0.000976562, -0.0517578, 0.27832, -9.72949, 1.18.2022 18:20:50.471
134, 1.67906, 0.315894, 140.837, -0.000976562, 0, -0.000976562, -0.0546875, 0.286133, -9.73633, 1.18.2022 18:20:50.479
135, 1.67906, 0.315894, 140.837, 0, -0.000976562, -0.000976562, -0.0800781, 0.306641, -9.71875, 1.18.2022 18:20:50.487
136, 1.67672, 0.309306, 140.837, 0, -0.000976562, 0, -0.00683594, 0.271484, -9.74512, 1.18.2022 18:20:50.495
137, 1.67672, 0.309306, 140.837, -0.000976562, -0.000976562, 0, -0.0439453, 0.299805, -9.80273, 1.18.2022 18:20:50.503
138, 1.67672, 0.309306, 140.837, 0, -0.000976562, -0.000976562, -0.0712891, 0.28418, -9.75098, 1.18.2022 18:20:50.511
139, 1.67672, 0.309306, 140.837, 0, 0, 0, -0.00585938, 0.260742, -9.69824, 1.18.2022 18:20:50.519
140, 1.67672, 0.309306, 140.837, 0, -0.000976562, 0, -0.102539, 0.288086, -9.73535, 1.18.2022 18:20:50.527
141, 1.67672, 0.309306, 140.837, -0.000976562, -0.000976562, 0, -0.0615234, 0.276367, -9.74609, 1.18.2022 18:20:50.535
142, 1.67672, 0.309306, 140.837, -0.000976562, -0.000976562, 0, -0.0625, 0.289062, -9.7627, 1.18.2022 18:20:50.543
143, 1.67672, 0.309306, 140.837, 0, -0.000976562, 0, -0.107422, 0.295898, -9.76172, 1.18.2022 18:20:50.551
144, 1.67672, 0.309306, 140.837, -0.000976562, 0, 0, -0.0292969, 0.291992, -9.7959, 1.18.2022 18:20:50.559
145, 1.67672, 0.309306, 140.837, -0.000976562, -0.000976562, 0, -0.0810547, 0.272461, -9.7793, 1.18.2022 18:20:50.567
146, 1.67672, 0.309306, 140.837, 0, -0.00195312, 0, -0.0585938, 0.265625, -9.71582, 1.18.2022 18:20:50.575
147, 1.67672, 0.309306, 140.837, -0.000976562, 0, -0.000976562, -0.0166016, 0.267578, -9.76367, 1.18.2022 18:20:50.583
148, 1.67672, 0.309306, 140.837, -0.00195312, -0.000976562, -0.000976562, -0.0839844, 0.320312, -9.78223, 1.18.2022 18:20:50.591
149, 1.67906, 0.315894, 140.837, -0.000976562, -0.000976562, -0.000976562, -0.0595703, 0.297852, -9.74805, 1.18.2022 18:20:50.599
150, 1.67906, 0.315894, 140.837, 0, -0.000976562, -0.000976562, -0.0263672, 0.300781, -9.74805, 1.18.2022 18:20:50.607
151, 1.67906, 0.315894, 140.837, 0, -0.000976562, -0.000976562, -0.0927734, 0.324219, -9.74902, 1.18.2022 18:20:50.615
152, 1.67906, 0.315894, 140.837, -0.000976562, 0, -0.000976562, 0, 0.243164, -9.76953, 1.18.2022 18:20:50.623
153, 1.68565, 0.313551, 140.837, 0, -0.000976562, -0.000976562, -0.0390625, 0.289062, -9.78125, 1.18.2022 18:20:50.631
154, 1.68565, 0.313551, 140.837, 0, -0.000976562, -0.00195312, -0.0664062, 0.299805, -9.73633, 1.18.2022 18:20:50.639
155, 1.68565, 0.313551, 140.837, 0.000976562, 0, -0.000976562, -0.03125, 0.254883, -9.73828, 1.18.2022 18:20:50.647
156, 1.68565, 0.313551, 140.837, 0, -0.000976562, 0, -0.117188, 0.295898, -9.74707, 1.18.2022 18:20:50.655
157, 1.68565, 0.313551, 140.837, -0.000976562, -0.000976562, 0, -0.0332031, 0.3125, -9.76465, 1.18.2022 18:20:50.663
158, 1.68565, 0.313551, 140.837, -0.000976562, -0.000976562, 0, -0.0283203, 0.286133, -9.74219, 1.18.2022 18:20:50.671
159, 1.68565, 0.313551, 140.837, -0.000976562, -0.000976562, -0.000976562, -0.0664062, 0.302734, -9.74316, 1.18.2022 18:20:50.679
160, 1.68565, 0.313551, 140.837, 0, -0.000976562, -0.000976562, -0.00488281, 0.283203, -9.74023, 1.18.2022 18:20:50.687
161, 1.68565, 0.313551, 140.837, -0.000976562, -0.000976562, 0, -0.0849609, 0.282227, -9.69824, 1.18.2022 18:20:50.695
162, 1.68565, 0.313551, 140.837, 0, -0.00195312, -0.000976562, -0.0947266, 0.296875, -9.70703, 1.18.2022 18:20:50.703
163, 1.68565, 0.313551, 140.837, 0, 0, -0.000976562, -0.00683594, 0.266602, -9.72852, 1.18.2022 18:20:50.711
164, 1.68565, 0.313551, 140.837, 0, -0.000976562, -0.000976562, -0.0917969, 0.306641, -9.80176, 1.18.2022 18:20:50.719
165, 1.68565, 0.313551, 140.837, -0.000976562, -0.000976562, -0.000976562, -0.0380859, 0.3125, -9.75781, 1.18.2022 18:20:50.727
166, 1.69223, 0.311207, 140.837, -0.000976562, 0, -0.000976562, -0.0478516, 0.305664, -9.76465, 1.18.2022 18:20:50.735
167, 1.69223, 0.311207, 140.837, -0.000976562, -0.000976562, -0.000976562, -0.0888672, 0.291992, -9.76855, 1.18.2022 18:20:50.743
168, 1.69223, 0.311207, 140.837, -0.000976562, 0, -0.000976562, -0.0527344, 0.274414, -9.74609, 1.18.2022 18:20:50.751
169, 1.69223, 0.311207, 140.837, 0, 0, -0.000976562, -0.0673828, 0.303711, -9.7666, 1.18.2022 18:20:50.759
170, 1.69223, 0.311207, 140.837, -0.000976562, 0, 0, -0.0742188, 0.320312, -9.76367, 1.18.2022 18:20:50.767
171, 1.69882, 0.308864, 140.837, 0, 0, -0.000976562, -0.0136719, 0.27832, -9.72754, 1.18.2022 18:20:50.775
172, 1.69882, 0.308864, 140.837, 0, -0.000976562, -0.000976562, -0.0732422, 0.273438, -9.73145, 1.18.2022 18:20:50.783
173, 1.69882, 0.308864, 140.837, 0, 0, 0, -0.0380859, 0.268555, -9.73242, 1.18.2022 18:20:50.791
174, 1.69882, 0.308864, 140.837, -0.000976562, -0.000976562, -0.000976562, -0.0283203, 0.262695, -9.75879, 1.18.2022 18:20:50.799
175, 1.69882, 0.308864, 140.837, 0, -0.000976562, -0.000976562, -0.0830078, 0.28125, -9.74121, 1.18.2022 18:20:50.807
176, 1.69882, 0.308864, 140.837, 0, -0.000976562, -0.00195312, 0, 0.287109, -9.77539, 1.18.2022 18:20:50.813
177, 1.69882, 0.308864, 140.837, 0, -0.000976562, -0.000976562, -0.0625, 0.275391, -9.77734, 1.18.2022 18:20:50.821
178, 1.69882, 0.308864, 140.837, 0, -0.000976562, 0, -0.0400391, 0.297852, -9.73926, 1.18.2022 18:20:50.829
179, 1.69882, 0.308864, 140.837, -0.000976562, -0.000976562, 0, 0.0146484, 0.288086, -9.73047, 1.18.2022 18:20:50.837
180, 1.69882, 0.308864, 140.837, 0, -0.000976562, 0, -0.0869141, 0.301758, -9.79492, 1.18.2022 18:20:50.845
181, 1.69648, 0.302275, 140.837, 0, 0, 0, -0.0566406, 0.263672, -9.72754, 1.18.2022 18:20:50.853
182, 1.69648, 0.302275, 140.837, -0.000976562, -0.000976562, -0.000976562, -0.0195312, 0.289062, -9.78223, 1.18.2022 18:20:50.861
183, 1.69648, 0.302275, 140.837, 0, 0, -0.00195312, -0.0908203, 0.289062, -9.75, 1.18.2022 18:20:50.869
184, 1.69648, 0.302275, 140.837, 0, -0.000976562, 0, -0.0136719, 0.283203, -9.72754, 1.18.2022 18:20:50.877
185, 1.69648, 0.302275, 140.837, 0, -0.000976562, -0.000976562, -0.0712891, 0.303711, -9.76465, 1.18.2022 18:20:50.885
186, 1.69648, 0.302275, 140.837, -0.000976562, 0, 0, -0.0810547, 0.299805, -9.73828, 1.18.2022 18:20:50.893
187, 1.69414, 0.295686, 140.837, -0.000976562, 0, -0.000976562, -0.0205078, 0.270508, -9.72363, 1.18.2022 18:20:50.901
188, 1.69414, 0.295686, 140.837, 0, 0, -0.000976562, -0.133789, 0.293945, -9.75684, 1.18.2022 18:20:50.909
189, 1.69648, 0.302275, 140.837, 0, 0, 0, -0.0449219, 0.279297, -9.74902, 1.18.2022 18:20:50.917
190, 1.69648, 0.302275, 140.837, -0.000976562, -0.00195312, 0, -0.0263672, 0.28125, -9.76562, 1.18.2022 18:20:50.925
191, 1.69648, 0.302275, 140.837, -0.000976562, -0.000976562, -0.000976562, -0.124023, 0.3125, -9.73438, 1.18.2022 18:20:50.933
192, 1.69648, 0.302275, 140.837, 0.000976562, -0.000976562, -0.000976562, 0.0078125, 0.272461, -9.70508, 1.18.2022 18:20:50.941
193, 1.69648, 0.302275, 140.837, 0, -0.00195312, -0.000976562, -0.0410156, 0.3125, -9.76172, 1.18.2022 18:20:50.949
194, 1.69648, 0.302275, 140.837, -0.000976562, -0.000976562, -0.000976562, -0.0693359, 0.291016, -9.75293, 1.18.2022 18:20:50.957
195, 1.69648, 0.302275, 140.837, 0, -0.000976562, -0.00195312, 0.00488281, 0.294922, -9.73242, 1.18.2022 18:20:50.965
196, 1.69648, 0.302275, 140.837, -0.000976562, 0, -0.000976562, -0.0976562, 0.27832, -9.72461, 1.18.2022 18:20:50.973
197, 1.69648, 0.302275, 140.837, -0.000976562, -0.00195312, -0.000976562, -0.0595703, 0.295898, -9.74121, 1.18.2022 18:20:50.981
198, 1.69648, 0.302275, 140.837, -0.000976562, -0.000976562, 0, -0.0400391, 0.264648, -9.74023, 1.18.2022 18:20:50.989
199, 1.69648, 0.302275, 140.837, 0, -0.00195312, -0.000976562, -0.0908203, 0.307617, -9.74707, 1.18.2022 18:20:50.997
200, 1.69648, 0.302275, 140.837, -0.000976562, -0.000976562, 0, -0.00488281, 0.28125, -9.74707, 1.18.2022 18:20:51.005
201, 1.69648, 0.302275, 140.837, -0.000976562, -0.000976562, 0, -0.0683594, 0.283203, -9.72656, 1.18.2022 18:20:51.013
202, 1.69648, 0.302275, 140.837, -0.000976562, -0.000976562, 0, -0.0908203, 0.291992, -9.77832, 1.18.2022 18:20:51.021
203, 1.69648, 0.302275, 140.837, 0, -0.000976562, 0, 0.00488281, 0.282227, -9.77051, 1.18.2022 18:20:51.029
204, 1.69882, 0.308864, 140.837, -0.000976562, -0.000976562, 0, -0.0810547, 0.30957, -9.7334, 1.18.2022 18:20:51.037
205, 1.69882, 0.308864, 140.837, 0, 0, -0.000976562, -0.0703125, 0.290039, -9.70508, 1.18.2022 18:20:51.045
206, 1.69882, 0.308864, 140.837, 0, 0, -0.000976562, -0.0195312, 0.271484, -9.75391, 1.18.2022 18:20:51.053
207, 1.69882, 0.308864, 140.837, 0, -0.000976562, -0.000976562, -0.0976562, 0.307617, -9.75391, 1.18.2022 18:20:51.061
208, 1.69882, 0.308864, 140.837, 0, -0.000976562, 0, -0.0400391, 0.28125, -9.7373, 1.18.2022 18:20:51.069
209, 1.69882, 0.308864, 140.837, 0, 0, -0.000976562, -0.0419922, 0.275391, -9.71094, 1.18.2022 18:20:51.077
210, 1.69882, 0.308864, 140.837, -0.000976562, -0.000976562, 0, -0.0712891, 0.323242, -9.7207, 1.18.2022 18:20:51.085
211, 1.69882, 0.308864, 140.837, -0.000976562, -0.000976562, 0, 0.0078125, 0.285156, -9.70703, 1.18.2022 18:20:51.093
212, 1.69882, 0.308864, 140.837, 0, -0.000976562, -0.000976562, -0.0898438, 0.27832, -9.72461, 1.18.2022 18:20:51.101
213, 1.69882, 0.308864, 140.837, -0.000976562, -0.000976562, -0.000976562, -0.0576172, 0.293945, -9.75977, 1.18.2022 18:20:51.109
214, 1.69882, 0.308864, 140.837, 0, 0, -0.000976562, -0.0195312, 0.254883, -9.75, 1.18.2022 18:20:51.117
215, 1.70541, 0.30652, 140.837, -0.000976562, -0.000976562, -0.000976562, -0.0859375, 0.3125, -9.7373, 1.18.2022 18:20:51.125
216, 1.70541, 0.30652, 140.837, -0.000976562, -0.000976562, 0, -0.046875, 0.282227, -9.71094, 1.18.2022 18:20:51.133
217, 1.70541, 0.30652, 140.837, 0, -0.000976562, -0.000976562, -0.0380859, 0.27832, -9.72754, 1.18.2022 18:20:51.141
218, 1.70541, 0.30652, 140.837, -0.000976562, 0, -0.000976562, -0.0878906, 0.310547, -9.75879, 1.18.2022 18:20:51.149
219, 1.70541, 0.30652, 140.837, 0, 0, -0.000976562, -0.00488281, 0.292969, -9.75098, 1.18.2022 18:20:51.157
220, 1.70541, 0.30652, 140.837, 0, -0.000976562, -0.000976562, -0.0751953, 0.280273, -9.7998, 1.18.2022 18:20:51.165
221, 1.70541, 0.30652, 140.837, 0, -0.000976562, -0.000976562, -0.0615234, 0.295898, -9.75293, 1.18.2022 18:20:51.173
222, 1.70541, 0.30652, 140.837, -0.000976562, -0.000976562, 0, -0.0380859, 0.259766, -9.75391, 1.18.2022 18:20:51.181
223, 1.70541, 0.30652, 140.837, 0, -0.000976562, 0, -0.109375, 0.299805, -9.73047, 1.18.2022 18:20:51.189
224, 1.70541, 0.30652, 140.837, -0.000976562, -0.000976562, -0.000976562, -0.0546875, 0.307617, -9.73828, 1.18.2022 18:20:51.197
225, 1.70541, 0.30652, 140.837, 0, 0, -0.000976562, -0.0654297, 0.294922, -9.80469, 1.18.2022 18:20:51.205
226, 1.70541, 0.30652, 140.837, 0, -0.000976562, 0, -0.112305, 0.310547, -9.74902, 1.18.2022 18:20:51.213
227, 1.70541, 0.30652, 140.837, -0.000976562, -0.000976562, -0.000976562, -0.0185547, 0.263672, -9.71191, 1.18.2022 18:20:51.221
228, 1.70775, 0.313109, 140.837, -0.000976562, 0, -0.000976562, -0.0849609, 0.276367, -9.72949, 1.18.2022 18:20:51.229
229, 1.70116, 0.315452, 140.837, 0.000976562, -0.000976562, 0, -0.0830078, 0.290039, -9.7168, 1.18.2022 18:20:51.237
230, 1.70116, 0.315452, 140.837, 0, -0.000976562, 0, -0.00976562, 0.27832, -9.74707, 1.18.2022 18:20:51.245
231, 1.70116, 0.315452, 140.837, 0, -0.000976562, -0.000976562, -0.0878906, 0.302734, -9.7334, 1.18.2022 18:20:51.253
232, 1.70116, 0.315452, 140.837, 0, -0.00195312, -0.000976562, -0.0234375, 0.27832, -9.7373, 1.18.2022 18:20:51.261
233, 1.70116, 0.315452, 140.837, -0.000976562, -0.000976562, -0.000976562, -0.0400391, 0.297852, -9.74609, 1.18.2022 18:20:51.269
234, 1.70351, 0.322041, 140.837, -0.000976562, -0.000976562, -0.000976562, -0.100586, 0.330078, -9.77246, 1.18.2022 18:20:51.277
235, 1.70351, 0.322041, 140.837, 0, -0.000976562, -0.000976562, -0.0185547, 0.27832, -9.7373, 1.18.2022 18:20:51.285
236, 1.70351, 0.322041, 140.837, -0.000976562, -0.000976562, -0.000976562, -0.0546875, 0.28418, -9.75293, 1.18.2022 18:20:51.293
237, 1.70351, 0.322041, 140.837, 0, 0, -0.000976562, -0.0830078, 0.307617, -9.7334, 1.18.2022 18:20:51.301
238, 1.70351, 0.322041, 140.837, 0, -0.000976562, -0.000976562, -0.00878906, 0.290039, -9.70898, 1.18.2022 18:20:51.309
239, 1.70351, 0.322041, 140.837, 0.000976562, -0.00195312, 0, -0.0878906, 0.307617, -9.73535, 1.18.2022 18:20:51.317
240, 1.70351, 0.322041, 140.837, 0.000976562, -0.00195312, 0, -0.0351562, 0.271484, -9.74219, 1.18.2022 18:20:51.325
241, 1.70351, 0.322041, 140.837, -0.000976562, -0.000976562, -0.000976562, -0.00683594, 0.273438, -9.72363, 1.18.2022 18:20:51.333
242, 1.70351, 0.322041, 140.837, 0, -0.000976562, -0.000976562, -0.0644531, 0.295898, -9.75, 1.18.2022 18:20:51.341
243, 1.71009, 0.319697, 140.837, 0, 0, -0.000976562, -0.0166016, 0.286133, -9.75391, 1.18.2022 18:20:51.349
244, 1.70775, 0.313109, 140.837, 0, -0.000976562, -0.000976562, -0.0742188, 0.291016, -9.74512, 1.18.2022 18:20:51.357
245, 1.70775, 0.313109, 140.837, 0, 0, -0.000976562, -0.0996094, 0.302734, -9.74512, 1.18.2022 18:20:51.365
246, 1.70775, 0.313109, 140.837, 0, 0, -0.000976562, -0.0332031, 0.288086, -9.73242, 1.18.2022 18:20:51.373
247, 1.70775, 0.313109, 140.837, -0.000976562, -0.000976562, 0, -0.101562, 0.319336, -9.72266, 1.18.2022 18:20:51.381
248, 1.70775, 0.313109, 140.837, 0, 0, 0, -0.0478516, 0.302734, -9.74609, 1.18.2022 18:20:51.389
249, 1.70775, 0.313109, 140.837, -0.000976562, 0, 0, -0.0478516, 0.273438, -9.73926, 1.18.2022 18:20:51.397
250, 1.71009, 0.319697, 140.837, -0.000976562, 0, 0, -0.0927734, 0.276367, -9.75, 1.18.2022 18:20:51.405
251, 1.71009, 0.319697, 140.837, -0.000976562, 0, -0.000976562, 0, 0.286133, -9.75195, 1.18.2022 18:20:51.413
252, 1.71009, 0.319697, 140.837, 0, -0.000976562, 0, -0.0859375, 0.289062, -9.76465, 1.18.2022 18:20:51.421
253, 1.71009, 0.319697, 140.837, -0.000976562, -0.000976562, -0.000976562, -0.0712891, 0.292969, -9.74805, 1.18.2022 18:20:51.429
254, 1.71009, 0.319697, 140.837, -0.000976562, -0.000976562, -0.000976562, -0.0146484, 0.289062, -9.77246, 1.18.2022 18:20:51.437
255, 1.71009, 0.319697, 140.837, 0, 0, -0.000976562, -0.0947266, 0.290039, -9.72656, 1.18.2022 18:20:51.445
256, 1.71009, 0.319697, 140.837, -0.000976562, -0.00195312, -0.000976562, -0.0615234, 0.292969, -9.75293, 1.18.2022 18:20:51.453
257, 1.71009, 0.319697, 140.837, -0.000976562, -0.00195312, 0, -0.00488281, 0.264648, -9.74316, 1.18.2022 18:20:51.461
258, 1.71009, 0.319697, 140.837, 0, -0.000976562, 0, -0.0957031, 0.332031, -9.75586, 1.18.2022 18:20:51.469
259, 1.71009, 0.319697, 140.837, 0, -0.000976562, -0.000976562, -0.0234375, 0.311523, -9.71777, 1.18.2022 18:20:51.477
260, 1.71009, 0.319697, 140.837, -0.000976562, 0, -0.000976562, -0.0566406, 0.292969, -9.74121, 1.18.2022 18:20:51.485
261, 1.71668, 0.317354, 140.837, -0.000976562, -0.000976562, -0.000976562, -0.0830078, 0.299805, -9.73535, 1.18.2022 18:20:51.493
262, 1.71668, 0.317354, 140.837, -0.000976562, -0.000976562, -0.000976562, -0.00390625, 0.253906, -9.71191, 1.18.2022 18:20:51.501
263, 1.71668, 0.317354, 140.837, -0.000976562, -0.000976562, -0.000976562, -0.121094, 0.290039, -9.73047, 1.18.2022 18:20:51.509
264, 1.71668, 0.317354, 140.837, -0.000976562, -0.00195312, -0.000976562, -0.0498047, 0.288086, -9.72461, 1.18.2022 18:20:51.517
265, 1.71668, 0.317354, 140.837, 0, -0.000976562, -0.000976562, -0.0527344, 0.295898, -9.75977, 1.18.2022 18:20:51.525
266, 1.71902, 0.323942, 140.837, -0.000976562, 0, 0, -0.0976562, 0.286133, -9.75195, 1.18.2022 18:20:51.533
267, 1.71902, 0.323942, 140.837, 0, 0, 0, -0.00976562, 0.276367, -9.74219, 1.18.2022 18:20:51.541
268, 1.71902, 0.323942, 140.837, 0, -0.000976562, 0, -0.0400391, 0.291016, -9.73926, 1.18.2022 18:20:51.549
269, 1.71902, 0.323942, 140.837, 0, -0.000976562, -0.000976562, -0.0761719, 0.302734, -9.74512, 1.18.2022 18:20:51.557
270, 1.71668, 0.317354, 140.837, 0, -0.000976562, -0.000976562, -0.0126953, 0.260742, -9.78027, 1.18.2022 18:20:51.565
271, 1.71009, 0.319697, 140.837, 0, 0, -0.000976562, -0.109375, 0.28418, -9.74805, 1.18.2022 18:20:51.573
272, 1.71009, 0.319697, 140.837, -0.000976562, 0, -0.000976562, -0.0498047, 0.286133, -9.75098, 1.18.2022 18:20:51.581
273, 1.71009, 0.319697, 140.837, -0.000976562, -0.000976562, 0, -0.0380859, 0.292969, -9.73633, 1.18.2022 18:20:51.589
274, 1.71009, 0.319697, 140.837, 0, -0.000976562, -0.000976562, -0.0996094, 0.319336, -9.74902, 1.18.2022 18:20:51.597
275, 1.71009, 0.319697, 140.837, -0.000976562, -0.000976562, -0.000976562, -0.00683594, 0.273438, -9.74512, 1.18.2022 18:20:51.605
276, 1.71009, 0.319697, 140.837, 0, 0, -0.000976562, -0.0595703, 0.267578, -9.75781, 1.18.2022 18:20:51.613
277, 1.71009, 0.319697, 140.837, -0.000976562, 0, -0.000976562, -0.0830078, 0.311523, -9.70703, 1.18.2022 18:20:51.621
278, 1.71009, 0.319697, 140.837, -0.000976562, 0, -0.000976562, -0.00878906, 0.275391, -9.70898, 1.18.2022 18:20:51.629
279, 1.71009, 0.319697, 140.837, 0, 0, -0.000976562, -0.0878906, 0.291992, -9.7168, 1.18.2022 18:20:51.637
280, 1.71009, 0.319697, 140.837, 0, -0.000976562, -0.000976562, -0.0732422, 0.319336, -9.72363, 1.18.2022 18:20:51.645
281, 1.71009, 0.319697, 140.837, -0.000976562, 0, -0.000976562, -0.0166016, 0.25, -9.75195, 1.18.2022 18:20:51.653
282, 1.71009, 0.319697, 140.837, -0.000976562, -0.000976562, -0.000976562, -0.0957031, 0.279297, -9.75977, 1.18.2022 18:20:51.661
283, 1.71009, 0.319697, 140.837, 0.000976562, 0, -0.000976562, -0.0625, 0.291992, -9.7793, 1.18.2022 18:20:51.669
284, 1.71009, 0.319697, 140.837, 0.000976562, 0, -0.000976562, -0.0615234, 0.285156, -9.71289, 1.18.2022 18:20:51.677
285, 1.71009, 0.319697, 140.837, 0, 0, -0.000976562, -0.0830078, 0.302734, -9.73535, 1.18.2022 18:20:51.685
286, 1.71009, 0.319697, 140.837, 0, -0.000976562, -0.000976562, -0.0195312, 0.293945, -9.76562, 1.18.2022 18:20:51.693
287, 1.70351, 0.322041, 140.837, -0.000976562, -0.000976562, 0, -0.0888672, 0.279297, -9.7666, 1.18.2022 18:20:51.701
288, 1.70351, 0.322041, 140.837, -0.000976562, -0.000976562, 0, -0.0634766, 0.290039, -9.72656, 1.18.2022 18:20:51.709
289, 1.70351, 0.322041, 140.837, -0.000976562, -0.000976562, -0.000976562, -0.00390625, 0.266602, -9.72852, 1.18.2022 18:20:51.717
290, 1.70585, 0.32863, 140.837, -0.000976562, -0.000976562, -0.000976562, -0.102539, 0.3125, -9.74023, 1.18.2022 18:20:51.725
291, 1.70585, 0.32863, 140.837, -0.000976562, 0, -0.000976562, -0.0449219, 0.273438, -9.74219, 1.18.2022 18:20:51.733
292, 1.70585, 0.32863, 140.837, -0.000976562, -0.000976562, 0, -0.0429688, 0.28418, -9.75293, 1.18.2022 18:20:51.741
293, 1.70585, 0.32863, 140.837, -0.000976562, -0.000976562, 0, -0.0791016, 0.276367, -9.75781, 1.18.2022 18:20:51.749
294, 1.70585, 0.32863, 140.837, -0.000976562, -0.000976562, 0, -0.0166016, 0.269531, -9.77051, 1.18.2022 18:20:51.757
295, 1.70585, 0.32863, 140.837, -0.000976562, -0.00195312, -0.000976562, -0.100586, 0.285156, -9.78125, 1.18.2022 18:20:51.763
296, 1.70585, 0.32863, 140.837, -0.000976562, -0.00195312, 0, -0.0527344, 0.283203, -9.74414, 1.18.2022 18:20:51.771
297, 1.70585, 0.32863, 140.837, 0, -0.000976562, -0.000976562, -0.0478516, 0.273438, -9.73438, 1.18.2022 18:20:51.779
298, 1.69926, 0.330973, 140.837, -0.000976562, -0.000976562, -0.000976562, -0.114258, 0.286133, -9.74707, 1.18.2022 18:20:51.787
299, 1.69926, 0.330973, 140.837, -0.000976562, -0.000976562, 0, -0.0273438, 0.285156, -9.70605, 1.18.2022 18:20:51.795
300, 1.69926, 0.330973, 140.837, -0.000976562, -0.000976562, 0, -0.0498047, 0.291016, -9.75781, 1.18.2022 18:20:51.803
301, 1.69926, 0.330973, 140.837, -0.000976562, 0, -0.000976562, -0.0517578, 0.329102, -9.73828, 1.18.2022 18:20:51.811
302, 1.69926, 0.330973, 140.837, 0, 0, 0, 0.00195312, 0.279297, -9.76855, 1.18.2022 18:20:51.819
303, 1.69926, 0.330973, 140.837, 0, -0.000976562, -0.000976562, -0.0859375, 0.298828, -9.77832, 1.18.2022 18:20:51.827
304, 1.69926, 0.330973, 140.837, 0, -0.000976562, 0, -0.0507812, 0.300781, -9.76953, 1.18.2022 18:20:51.835
305, 1.69926, 0.330973, 140.837, -0.000976562, 0, -0.000976562, 0.00683594, 0.28125, -9.75195, 1.18.2022 18:20:51.843
306, 1.69692, 0.324385, 140.837, 0, -0.000976562, -0.000976562, -0.100586, 0.287109, -9.77344, 1.18.2022 18:20:51.851
307, 1.69692, 0.324385, 140.837, 0, 0, -0.000976562, -0.0263672, 0.342773, -9.74023, 1.18.2022 18:20:51.859
308, 1.70351, 0.322041, 140.837, 0, -0.000976562, -0.000976562, -0.0449219, 0.257812, -9.75195, 1.18.2022 18:20:51.867
309, 1.70351, 0.322041, 140.837, -0.000976562, -0.000976562, -0.000976562, -0.0908203, 0.302734, -9.74707, 1.18.2022 18:20:51.875
310, 1.70351, 0.322041, 140.837, -0.000976562, -0.000976562, -0.000976562, -0.0107422, 0.285156, -9.71094, 1.18.2022 18:20:51.883
311, 1.70351, 0.322041, 140.837, 0, -0.00195312, 0, -0.0761719, 0.297852, -9.75488, 1.18.2022 18:20:51.891
312, 1.70351, 0.322041, 140.837, 0, -0.000976562, -0.000976562, -0.0712891, 0.303711, -9.76855, 1.18.2022 18:20:51.899
313, 1.70351, 0.322041, 140.837, 0, -0.000976562, -0.000976562, -0.0195312, 0.269531, -9.75391, 1.18.2022 18:20:51.907
314, 1.70351, 0.322041, 140.837, -0.000976562, 0, 0, -0.0830078, 0.300781, -9.74512, 1.18.2022 18:20:51.915
315, 1.70351, 0.322041, 140.837, 0, -0.000976562, -0.000976562, -0.0615234, 0.286133, -9.74316, 1.18.2022 18:20:51.923
316, 1.70351, 0.322041, 140.837, 0, -0.000976562, -0.000976562, -0.0283203, 0.260742, -9.71387, 1.18.2022 18:20:51.931
317, 1.70351, 0.322041, 140.837, -0.000976562, -0.000976562, -0.000976562, -0.078125, 0.294922, -9.73633, 1.18.2022 18:20:51.939
318, 1.70351, 0.322041, 140.837, 0, -0.000976562, -0.000976562, -0.03125, 0.269531, -9.75391, 1.18.2022 18:20:51.947
319, 1.70351, 0.322041, 140.837, 0, -0.000976562, -0.000976562, -0.0595703, 0.297852, -9.73828, 1.18.2022 18:20:51.955
320, 1.70351, 0.322041, 140.837, 0, -0.00195312, 0, -0.0810547, 0.292969, -9.75293, 1.18.2022 18:20:51.963
321, 1.70116, 0.315452, 140.837, 0.000976562, 0, 0, 0, 0.251953, -9.74805, 1.18.2022 18:20:51.971
322, 1.70116, 0.315452, 140.837, 0, 0, -0.000976562, -0.0957031, 0.293945, -9.76855, 1.18.2022 18:20:51.979
323, 1.70116, 0.315452, 140.837, 0, 0, 0, -0.0546875, 0.319336, -9.72656, 1.18.2022 18:20:51.987
324, 1.70116, 0.315452, 140.837, 0, -0.000976562, -0.000976562, -0.0498047, 0.27832, -9.74414, 1.18.2022 18:20:51.995
325, 1.70116, 0.315452, 140.837, -0.000976562, -0.000976562, 0, -0.111328, 0.293945, -9.69336, 1.18.2022 18:20:52.003
326, 1.70116, 0.315452, 140.837, -0.000976562, 0, -0.000976562, -0.0166016, 0.259766, -9.75488, 1.18.2022 18:20:52.011
327, 1.70116, 0.315452, 140.837, -0.000976562, 0, -0.000976562, -0.0644531, 0.291992, -9.7832, 1.18.2022 18:20:52.019
328, 1.70116, 0.315452, 140.837, 0, -0.000976562, 0, -0.0576172, 0.3125, -9.76367, 1.18.2022 18:20:52.027
329, 1.70116, 0.315452, 140.837, 0, -0.000976562, -0.000976562, -0.0263672, 0.264648, -9.76172, 1.18.2022 18:20:52.035
330, 1.70116, 0.315452, 140.837, 0, -0.000976562, -0.000976562, -0.0976562, 0.295898, -9.75, 1.18.2022 18:20:52.043
331, 1.69458, 0.317796, 140.837, 0, -0.000976562, -0.000976562, -0.0517578, 0.291016, -9.73926, 1.18.2022 18:20:52.051
332, 1.69458, 0.317796, 140.837, -0.00195312, -0.00195312, 0, -0.0615234, 0.285156, -9.71289, 1.18.2022 18:20:52.059
333, 1.70116, 0.315452, 140.837, 0, 0, 0, -0.0791016, 0.322266, -9.75391, 1.18.2022 18:20:52.067
334, 1.70116, 0.315452, 140.837, -0.000976562, -0.000976562, -0.000976562, -0.00195312, 0.28125, -9.75391, 1.18.2022 18:20:52.075
335, 1.70116, 0.315452, 140.837, -0.000976562, -0.000976562, -0.000976562, -0.0478516, 0.307617, -9.75, 1.18.2022 18:20:52.083
336, 1.70116, 0.315452, 140.837, -0.000976562, -0.000976562, -0.000976562, -0.0664062, 0.314453, -9.75, 1.18.2022 18:20:52.091
337, 1.70116, 0.315452, 140.837, -0.000976562, -0.000976562, 0, -0.0117188, 0.288086, -9.73242, 1.18.2022 18:20:52.099
338, 1.70116, 0.315452, 140.837, 0, 0, 0, -0.112305, 0.274414, -9.74512, 1.18.2022 18:20:52.107
339, 1.70116, 0.315452, 140.837, 0, -0.000976562, -0.000976562, -0.0595703, 0.27832, -9.73242, 1.18.2022 18:20:52.115
340, 1.70116, 0.315452, 140.837, -0.000976562, -0.000976562, -0.000976562, -0.0449219, 0.258789, -9.72559, 1.18.2022 18:20:52.123
341, 1.70116, 0.315452, 140.837, -0.000976562, 0, -0.000976562, -0.0722656, 0.298828, -9.77344, 1.18.2022 18:20:52.131
342, 1.70116, 0.315452, 140.837, 0, 0, -0.000976562, -0.0253906, 0.268555, -9.73047, 1.18.2022 18:20:52.139
343, 1.70116, 0.315452, 140.837, 0, -0.000976562, -0.000976562, -0.0429688, 0.291016, -9.7627, 1.18.2022 18:20:52.147
344, 1.70116, 0.315452, 140.837, -0.000976562, -0.000976562, 0, -0.078125, 0.288086, -9.73828, 1.18.2022 18:20:52.155
345, 1.70116, 0.315452, 140.837, 0, -0.000976562, 0, -0.00683594, 0.266602, -9.73535, 1.18.2022 18:20:52.163
346, 1.70116, 0.315452, 140.837, 0, -0.000976562, -0.000976562, -0.116211, 0.28125, -9.74316, 1.18.2022 18:20:52.171
347, 1.70116, 0.315452, 140.837, 0, -0.00195312, 0, -0.0712891, 0.292969, -9.75293, 1.18.2022 18:20:52.179
348, 1.70116, 0.315452, 140.837, -0.000976562, -0.000976562, 0, -0.0625, 0.302734, -9.76172, 1.18.2022 18:20:52.187
349, 1.70116, 0.315452, 140.837, -0.000976562, 0, -0.000976562, -0.0712891, 0.292969, -9.74512, 1.18.2022 18:20:52.195
350, 1.69458, 0.317796, 140.837, 0, -0.000976562, 0, 0, 0.28125, -9.75195, 1.18.2022 18:20:52.203
351, 1.69458, 0.317796, 140.837, -0.000976562, -0.000976562, -0.000976562, -0.0302734, 0.264648, -9.7373, 1.18.2022 18:20:52.211
352, 1.69458, 0.317796, 140.837, -0.000976562, -0.000976562, 0, -0.0830078, 0.292969, -9.72852, 1.18.2022 18:20:52.219
353, 1.69458, 0.317796, 140.837, -0.000976562, -0.000976562, 0, -0.0332031, 0.280273, -9.73242, 1.18.2022 18:20:52.227
354, 1.69458, 0.317796, 140.837, 0, -0.000976562, 0, -0.0859375, 0.300781, -9.77344, 1.18.2022 18:20:52.235
355, 1.69458, 0.317796, 140.837, -0.000976562, 0, -0.000976562, -0.0351562, 0.302734, -9.73145, 1.18.2022 18:20:52.243
356, 1.69458, 0.317796, 140.837, -0.000976562, -0.00195312, -0.000976562, -0.0146484, 0.262695, -9.7666, 1.18.2022 18:20:52.251
357, 1.69458, 0.317796, 140.837, 0, -0.000976562, -0.000976562, -0.0732422, 0.292969, -9.72168, 1.18.2022 18:20:52.259
358, 1.69458, 0.317796, 140.837, 0, -0.000976562, -0.000976562, 0.0214844, 0.271484, -9.74023, 1.18.2022 18:20:52.267
359, 1.69223, 0.311207, 140.837, 0, 0, -0.000976562, -0.0527344, 0.262695, -9.75391, 1.18.2022 18:20:52.275
360, 1.69223, 0.311207, 140.837, -0.000976562, 0, -0.000976562, -0.0566406, 0.287109, -9.70605, 1.18.2022 18:20:52.283
361, 1.69223, 0.311207, 140.837, -0.000976562, -0.000976562, 0, -0.0126953, 0.250977, -9.79004, 1.18.2022 18:20:52.291
362, 1.68989, 0.304618, 140.837, 0, -0.000976562, -0.000976562, -0.0947266, 0.276367, -9.74316, 1.18.2022 18:20:52.299
363, 1.68989, 0.304618, 140.837, 0, -0.000976562, -0.00195312, -0.046875, 0.314453, -9.73145, 1.18.2022 18:20:52.307
364, 1.68989, 0.304618, 140.837, 0, -0.000976562, -0.000976562, -0.0263672, 0.276367, -9.74219, 1.18.2022 18:20:52.315
365, 1.68989, 0.304618, 140.837, -0.000976562, -0.00195312, -0.000976562, -0.0947266, 0.28125, -9.73145, 1.18.2022 18:20:52.323
366, 1.68989, 0.304618, 140.837, -0.000976562, -0.000976562, -0.000976562, -0.00976562, 0.27832, -9.74707, 1.18.2022 18:20:52.331
367, 1.68989, 0.304618, 140.837, 0, -0.000976562, -0.000976562, -0.0742188, 0.289062, -9.77637, 1.18.2022 18:20:52.339
368, 1.6833, 0.306962, 140.837, 0, -0.00195312, -0.000976562, -0.0898438, 0.303711, -9.68555, 1.18.2022 18:20:52.347
369, 1.68096, 0.300373, 140.838, 0, -0.000976562, 0, -0.0185547, 0.263672, -9.71875, 1.18.2022 18:20:52.355
370, 1.68096, 0.300373, 140.838, -0.000976562, -0.000976562, -0.000976562, -0.0683594, 0.297852, -9.73145, 1.18.2022 18:20:52.363
371, 1.68096, 0.300373, 140.838, 0, -0.000976562, 0, -0.0908203, 0.287109, -9.77832, 1.18.2022 18:20:52.371
372, 1.6833, 0.306962, 140.837, 0, -0.000976562, -0.000976562, -0.0449219, 0.295898, -9.75098, 1.18.2022 18:20:52.379
373, 1.6833, 0.306962, 140.837, -0.000976562, -0.000976562, 0, -0.0976562, 0.304688, -9.7373, 1.18.2022 18:20:52.387
374, 1.6833, 0.306962, 140.837, 0, 0, 0, -0.0185547, 0.291016, -9.74902, 1.18.2022 18:20:52.395
375, 1.6833, 0.306962, 140.837, -0.000976562, 0, -0.000976562, -0.0605469, 0.291992, -9.68945, 1.18.2022 18:20:52.403
376, 1.6833, 0.306962, 140.837, -0.000976562, 0, -0.000976562, -0.0712891, 0.311523, -9.72852, 1.18.2022 18:20:52.411
377, 1.6833, 0.306962, 140.837, 0, 0, 0, -0.00683594, 0.263672, -9.72168, 1.18.2022 18:20:52.419
378, 1.68989, 0.304618, 140.837, 0, -0.000976562, -0.000976562, -0.0878906, 0.3125, -9.74023, 1.18.2022 18:20:52.427
379, 1.68989, 0.304618, 140.837, -0.000976562, -0.000976562, 0, -0.046875, 0.290039, -9.71289, 1.18.2022 18:20:52.435
380, 1.68989, 0.304618, 140.837, 0, -0.00195312, -0.000976562, -0.00488281, 0.279297, -9.78027, 1.18.2022 18:20:52.443
381, 1.68989, 0.304618, 140.837, 0, -0.000976562, -0.000976562, -0.0976562, 0.302734, -9.74219, 1.18.2022 18:20:52.451
382, 1.68989, 0.304618, 140.837, -0.000976562, -0.000976562, -0.000976562, -0.03125, 0.272461, -9.77734, 1.18.2022 18:20:52.459
383, 1.68989, 0.304618, 140.837, -0.000976562, -0.000976562, -0.000976562, -0.0576172, 0.263672, -9.78418, 1.18.2022 18:20:52.467
384, 1.68989, 0.304618, 140.837, -0.000976562, 0, -0.000976562, -0.0957031, 0.305664, -9.75, 1.18.2022 18:20:52.475
385, 1.68989, 0.304618, 140.837, 0, 0, 0, -0.03125, 0.269531, -9.75586, 1.18.2022 18:20:52.483
386, 1.68989, 0.304618, 140.837, 0, -0.000976562, -0.000976562, -0.0957031, 0.28418, -9.74805, 1.18.2022 18:20:52.491
387, 1.69223, 0.311207, 140.837, -0.000976562, 0, -0.000976562, -0.0859375, 0.299805, -9.73828, 1.18.2022 18:20:52.499
388, 1.69223, 0.311207, 140.837, 0, -0.000976562, 0, -0.0302734, 0.286133, -9.7373, 1.18.2022 18:20:52.507
389, 1.69223, 0.311207, 140.837, 0, 0, -0.000976562, -0.107422, 0.293945, -9.76172, 1.18.2022 18:20:52.515
390, 1.69223, 0.311207, 140.837, 0, -0.000976562, 0, -0.0419922, 0.280273, -9.71094, 1.18.2022 18:20:52.523
391, 1.69223, 0.311207, 140.837, 0, -0.000976562, -0.000976562, -0.0361328, 0.291016, -9.75293, 1.18.2022 18:20:52.531
392, 1.69223, 0.311207, 140.837, 0, -0.000976562, -0.000976562, -0.112305, 0.291016, -9.75195, 1.18.2022 18:20:52.539
393, 1.68799, 0.320139, 140.837, 0, -0.000976562, 0, -0.0195312, 0.262695, -9.75684, 1.18.2022 18:20:52.547
394, 1.68799, 0.320139, 140.837, 0, -0.000976562, 0, -0.0498047, 0.288086, -9.71973, 1.18.2022 18:20:52.555
395, 1.68799, 0.320139, 140.837, 0, 0, 0, -0.0830078, 0.301758, -9.72656, 1.18.2022 18:20:52.563
396, 1.68799, 0.320139, 140.837, 0, 0, 0, -0.0400391, 0.276367, -9.74609, 1.18.2022 18:20:52.571
397, 1.68799, 0.320139, 140.837, 0, -0.000976562, -0.000976562, -0.0976562, 0.289062, -9.7666, 1.18.2022 18:20:52.579
398, 1.68799, 0.320139, 140.837, 0, -0.000976562, -0.000976562, -0.0332031, 0.295898, -9.74805, 1.18.2022 18:20:52.587
399, 1.68799, 0.320139, 140.837, 0, -0.000976562, 0, -0.0595703, 0.28418, -9.75781, 1.18.2022 18:20:52.595
400, 1.68799, 0.320139, 140.837, 0, -0.000976562, -0.000976562, -0.0595703, 0.291016, -9.7627, 1.18.2022 18:20:52.603
401, 1.68799, 0.320139, 140.837, 0, 0, -0.000976562, -0.0244141, 0.272461, -9.76074, 1.18.2022 18:20:52.611
402, 1.68799, 0.320139, 140.837, 0, 0, -0.000976562, -0.0595703, 0.271484, -9.75098, 1.18.2022 18:20:52.619
403, 1.68799, 0.320139, 140.837, 0, -0.000976562, -0.000976562, -0.0595703, 0.289062, -9.75781, 1.18.2022 18:20:52.627
404, 1.68799, 0.320139, 140.837, 0, -0.000976562, -0.000976562, -0.0302734, 0.268555, -9.7373, 1.18.2022 18:20:52.635
405, 1.68799, 0.320139, 140.837, -0.000976562, -0.000976562, -0.000976562, -0.102539, 0.30957, -9.74707, 1.18.2022 18:20:52.643
406, 1.68799, 0.320139, 140.837, 0, -0.000976562, -0.000976562, -0.0234375, 0.288086, -9.74609, 1.18.2022 18:20:52.651
407, 1.68799, 0.320139, 140.837, -0.000976562, -0.000976562, -0.000976562, -0.0498047, 0.28418, -9.76465, 1.18.2022 18:20:52.659
408, 1.68799, 0.320139, 140.837, -0.000976562, 0.000976562, -0.00195312, -0.119141, 0.286133, -9.73828, 1.18.2022 18:20:52.667
409, 1.68799, 0.320139, 140.837, 0, 0.000976562, -0.00195312, 0, 0.271484, -9.73535, 1.18.2022 18:20:52.675
410, 1.68799, 0.320139, 140.837, -0.000976562, -0.000976562, -0.000976562, -0.0830078, 0.293945, -9.75488, 1.18.2022 18:20:52.683
411, 1.6814, 0.322483, 140.837, 0, -0.000976562, -0.000976562, -0.0742188, 0.291016, -9.7666, 1.18.2022 18:20:52.691
412, 1.68799, 0.320139, 140.837, 0, 0, -0.000976562, -0.00292969, 0.301758, -9.78223, 1.18.2022 18:20:52.699
413, 1.68149, 0.322573, 140.845, 0, 0, -0.000976562, -0.0888672, 0.275391, -9.7793, 1.18.2022 18:20:52.707
414, 1.68149, 0.322573, 140.845, -0.000976562, -0.000976562, -0.000976562, -0.0527344, 0.28418, -9.7627, 1.18.2022 18:20:52.713
415, 1.68149, 0.322573, 140.845, 0, -0.000976562, -0.000976562, -0.0234375, 0.280273, -9.73047, 1.18.2022 18:20:52.723
416, 1.68149, 0.322573, 140.845, 0, -0.000976562, 0, -0.0976562, 0.276367, -9.72656, 1.18.2022 18:20:52.729
417, 1.6814, 0.322483, 140.837, 0, -0.000976562, 0, 0.0117188, 0.27832, -9.74512, 1.18.2022 18:20:52.737
418, 1.6814, 0.322483, 140.837, -0.000976562, -0.000976562, 0, -0.0722656, 0.293945, -9.77832, 1.18.2022 18:20:52.745
419, 1.6814, 0.322483, 140.837, -0.000976562, 0, -0.000976562, -0.0546875, 0.291016, -9.75488, 1.18.2022 18:20:52.753
420, 1.68799, 0.320139, 140.837, 0.000976562, -0.000976562, -0.000976562, -0.0166016, 0.285156, -9.73438, 1.18.2022 18:20:52.761
421, 1.68799, 0.320139, 140.837, 0, -0.000976562, -0.000976562, -0.0859375, 0.302734, -9.75488, 1.18.2022 18:20:52.769
422, 1.68799, 0.320139, 140.837, 0, -0.000976562, -0.00195312, -0.078125, 0.292969, -9.73145, 1.18.2022 18:20:52.777
423, 1.68808, 0.32023, 140.845, -0.000976562, -0.000976562, -0.000976562, -0.0205078, 0.265625, -9.71875, 1.18.2022 18:20:52.785
424, 1.68808, 0.32023, 140.845, 0, -0.000976562, -0.000976562, -0.0927734, 0.300781, -9.7666, 1.18.2022 18:20:52.793
425, 1.68808, 0.32023, 140.845, 0, -0.000976562, 0, -0.0400391, 0.288086, -9.73242, 1.18.2022 18:20:52.801
426, 1.68799, 0.320139, 140.837, 0, -0.00195312, 0, -0.0537109, 0.282227, -9.70605, 1.18.2022 18:20:52.809
427, 1.68799, 0.320139, 140.837, -0.000976562, -0.000976562, -0.000976562, -0.0693359, 0.264648, -9.74414, 1.18.2022 18:20:52.817
428, 1.68799, 0.320139, 140.837, -0.000976562, -0.000976562, 0, -0.0136719, 0.263672, -9.72852, 1.18.2022 18:20:52.825
429, 1.68799, 0.320139, 140.837, 0.000976562, -0.00195312, -0.00195312, -0.0810547, 0.286133, -9.76172, 1.18.2022 18:20:52.833
430, 1.68149, 0.322573, 140.845, 0, -0.000976562, -0.00195312, -0.0537109, 0.282227, -9.71582, 1.18.2022 18:20:52.841
431, 1.68149, 0.322573, 140.845, 0, 0, 0, -0.0498047, 0.274414, -9.75586, 1.18.2022 18:20:52.849
432, 1.6814, 0.322483, 140.837, -0.000976562, -0.000976562, 0, -0.111328, 0.30957, -9.72559, 1.18.2022 18:20:52.857
433, 1.6814, 0.322483, 140.837, -0.000976562, 0, 0, -0.0185547, 0.24707, -9.73145, 1.18.2022 18:20:52.865
434, 1.6814, 0.322483, 140.837, -0.000976562, 0, -0.000976562, -0.0498047, 0.27832, -9.74414, 1.18.2022 18:20:52.873
435, 1.6814, 0.322483, 140.837, 0, -0.000976562, -0.000976562, -0.0732422, 0.283203, -9.71777, 1.18.2022 18:20:52.881
436, 1.6814, 0.322483, 140.837, -0.000976562, -0.000976562, -0.000976562, -0.00683594, 0.292969, -9.75586, 1.18.2022 18:20:52.889
437, 1.6814, 0.322483, 140.837, -0.000976562, -0.000976562, -0.000976562, -0.0976562, 0.304688, -9.73047, 1.18.2022 18:20:52.897
438, 1.6814, 0.322483, 140.837, 0, -0.000976562, 0, -0.0400391, 0.294922, -9.72266, 1.18.2022 18:20:52.905
439, 1.6814, 0.322483, 140.837, -0.000976562, -0.000976562, -0.000976562, -0.0283203, 0.256836, -9.72559, 1.18.2022 18:20:52.913
440, 1.6814, 0.322483, 140.837, 0, -0.000976562, -0.000976562, -0.105469, 0.308594, -9.76367, 1.18.2022 18:20:52.921
441, 1.6814, 0.322483, 140.837, 0.000976562, -0.000976562, -0.000976562, 0, 0.286133, -9.74902, 1.18.2022 18:20:52.929
442, 1.6814, 0.322483, 140.837, 0, -0.000976562, -0.000976562, -0.0498047, 0.279297, -9.75586, 1.18.2022 18:20:52.937
443, 1.67906, 0.315894, 140.837, 0, -0.000976562, -0.000976562, -0.0615234, 0.316406, -9.72656, 1.18.2022 18:20:52.945
444, 1.67906, 0.315894, 140.837, -0.000976562, -0.000976562, -0.000976562, 0.0078125, 0.28125, -9.74219, 1.18.2022 18:20:52.953
445, 1.67906, 0.315894, 140.837, 0, -0.000976562, -0.000976562, -0.0957031, 0.318359, -9.77246, 1.18.2022 18:20:52.961
446, 1.68565, 0.313551, 140.837, 0, 0, 0, -0.0498047, 0.299805, -9.71973, 1.18.2022 18:20:52.969
447, 1.68565, 0.313551, 140.837, 0, 0, -0.000976562, -0.0380859, 0.272461, -9.76758, 1.18.2022 18:20:52.977
448, 1.68565, 0.313551, 140.837, -0.000976562, -0.000976562, -0.000976562, -0.117188, 0.297852, -9.74707, 1.18.2022 18:20:52.985
449, 1.68565, 0.313551, 140.837, -0.000976562, -0.000976562, -0.000976562, -0.0283203, 0.314453, -9.75, 1.18.2022 18:20:52.993
450, 1.68565, 0.313551, 140.837, -0.000976562, -0.000976562, -0.000976562, -0.0478516, 0.305664, -9.75977, 1.18.2022 18:20:53.001
451, 1.69223, 0.311207, 140.837, -0.000976562, -0.000976562, -0.000976562, -0.0908203, 0.291016, -9.75684, 1.18.2022 18:20:53.009
452, 1.69223, 0.311207, 140.837, -0.000976562, -0.000976562, -0.000976562, -0.0166016, 0.286133, -9.75098, 1.18.2022 18:20:53.017
453, 1.69232, 0.311298, 140.845, -0.000976562, -0.000976562, -0.000976562, -0.0615234, 0.319336, -9.75195, 1.18.2022 18:20:53.025
454, 1.69466, 0.317887, 140.845, 0, -0.000976562, -0.000976562, -0.0771484, 0.291992, -9.69141, 1.18.2022 18:20:53.033
455, 1.70125, 0.315544, 140.845, 0, -0.000976562, -0.000976562, -0.0126953, 0.282227, -9.78223, 1.18.2022 18:20:53.041
456, 1.70125, 0.315544, 140.845, -0.000976562, -0.000976562, -0.000976562, -0.0976562, 0.300781, -9.75195, 1.18.2022 18:20:53.049
457, 1.70125, 0.315544, 140.845, -0.000976562, -0.000976562, -0.000976562, -0.0429688, 0.283203, -9.7373, 1.18.2022 18:20:53.057
458, 1.70125, 0.315544, 140.845, 0, -0.000976562, -0.000976562, -0.0429688, 0.257812, -9.76074, 1.18.2022 18:20:53.065
459, 1.70125, 0.315544, 140.845, 0, -0.00195312, 0, -0.0947266, 0.302734, -9.73828, 1.18.2022 18:20:53.073
460, 1.70125, 0.315544, 140.845, 0, -0.000976562, -0.000976562, -0.00488281, 0.255859, -9.77344, 1.18.2022 18:20:53.081
461, 1.70125, 0.315544, 140.845, 0, -0.000976562, -0.000976562, -0.0849609, 0.306641, -9.72852, 1.18.2022 18:20:53.089
462, 1.70125, 0.315544, 140.845, -0.000976562, 0, -0.000976562, -0.0693359, 0.302734, -9.74023, 1.18.2022 18:20:53.097
463, 1.70125, 0.315544, 140.845, -0.000976562, -0.000976562, -0.000976562, -0.0273438, 0.28418, -9.70117, 1.18.2022 18:20:53.105
464, 1.70784, 0.3132, 140.845, 0, -0.000976562, 0, -0.0927734, 0.304688, -9.71875, 1.18.2022 18:20:53.113
465, 1.70784, 0.3132, 140.845, -0.000976562, -0.00195312, 0, -0.0410156, 0.291016, -9.75586, 1.18.2022 18:20:53.121
466, 1.71018, 0.319789, 140.845, -0.000976562, -0.000976562, -0.000976562, -0.0712891, 0.292969, -9.73145, 1.18.2022 18:20:53.129
467, 1.71018, 0.319789, 140.845, 0, -0.000976562, -0.00195312, -0.0898438, 0.270508, -9.71289, 1.18.2022 18:20:53.137
468, 1.71018, 0.319789, 140.845, 0, -0.000976562, -0.000976562, -0.00976562, 0.264648, -9.75, 1.18.2022 18:20:53.145
469, 1.71018, 0.319789, 140.845, 0, 0, -0.000976562, -0.0449219, 0.292969, -9.72754, 1.18.2022 18:20:53.153
470, 1.71018, 0.319789, 140.845, 0, -0.000976562, -0.000976562, -0.0546875, 0.314453, -9.72656, 1.18.2022 18:20:53.161
471, 1.70784, 0.3132, 140.845, -0.000976562, 0, -0.000976562, 0.00195312, 0.261719, -9.75, 1.18.2022 18:20:53.169
472, 1.70784, 0.3132, 140.845, 0, 0, -0.000976562, -0.0917969, 0.310547, -9.68555, 1.18.2022 18:20:53.177
473, 1.70784, 0.3132, 140.845, 0, -0.000976562, 0, -0.0380859, 0.273438, -9.72754, 1.18.2022 18:20:53.185
474, 1.70784, 0.3132, 140.845, -0.000976562, -0.000976562, -0.000976562, -0.0400391, 0.269531, -9.74902, 1.18.2022 18:20:53.193
475, 1.70784, 0.3132, 140.845, -0.000976562, -0.000976562, -0.000976562, -0.109375, 0.307617, -9.74707, 1.18.2022 18:20:53.201
476, 1.70784, 0.3132, 140.845, -0.000976562, -0.000976562, -0.000976562, -0.0166016, 0.286133, -9.75586, 1.18.2022 18:20:53.209
477, 1.70784, 0.3132, 140.845, -0.000976562, -0.000976562, 0, -0.0615234, 0.290039, -9.73633, 1.18.2022 18:20:53.217
478, 1.70784, 0.3132, 140.845, 0, -0.00195312, -0.000976562, -0.0830078, 0.291016, -9.74316, 1.18.2022 18:20:53.225
479, 1.70784, 0.3132, 140.845, 0, -0.000976562, -0.000976562, -0.0205078, 0.275391, -9.72363, 1.18.2022 18:20:53.233
480, 1.70784, 0.3132, 140.845, -0.000976562, -0.000976562, -0.000976562, -0.105469, 0.303711, -9.77344, 1.18.2022 18:20:53.241
481, 1.70784, 0.3132, 140.845, -0.000976562, -0.000976562, 0, -0.0498047, 0.297852, -9.73145, 1.18.2022 18:20:53.249
482, 1.70784, 0.3132, 140.845, -0.000976562, -0.000976562, 0, -0.0351562, 0.290039, -9.71582, 1.18.2022 18:20:53.257
483, 1.70784, 0.3132, 140.845, -0.000976562, -0.000976562, -0.000976562, -0.0800781, 0.296875, -9.70996, 1.18.2022 18:20:53.265
484, 1.70784, 0.3132, 140.845, -0.000976562, -0.000976562, -0.000976562, -0.0253906, 0.287109, -9.69727, 1.18.2022 18:20:53.273
485, 1.70784, 0.3132, 140.845, -0.000976562, -0.000976562, -0.000976562, -0.0644531, 0.256836, -9.74414, 1.18.2022 18:20:53.281
486, 1.71018, 0.319789, 140.845, -0.00195312, -0.000976562, -0.000976562, -0.0712891, 0.306641, -9.72168, 1.18.2022 18:20:53.289
487, 1.71018, 0.319789, 140.845, -0.000976562, -0.000976562, -0.000976562, -0.0332031, 0.269531, -9.74219, 1.18.2022 18:20:53.297
488, 1.71018, 0.319789, 140.845, -0.000976562, -0.000976562, -0.000976562, -0.0976562, 0.28418, -9.76855, 1.18.2022 18:20:53.305
489, 1.71018, 0.319789, 140.845, -0.000976562, -0.000976562, -0.000976562, -0.0449219, 0.294922, -9.72656, 1.18.2022 18:20:53.313
490, 1.71018, 0.319789, 140.845, 0, -0.000976562, -0.000976562, -0.0605469, 0.313477, -9.79199, 1.18.2022 18:20:53.321
491, 1.71018, 0.319789, 140.845, 0, -0.000976562, -0.000976562, -0.0976562, 0.292969, -9.72656, 1.18.2022 18:20:53.329
492, 1.71018, 0.319789, 140.845, 0, 0.000976562, -0.000976562, -0.0126953, 0.289062, -9.77734, 1.18.2022 18:20:53.337
493, 1.71018, 0.319789, 140.845, 0, -0.000976562, -0.00195312, -0.0664062, 0.289062, -9.75781, 1.18.2022 18:20:53.345
494, 1.71018, 0.319789, 140.845, 0, -0.000976562, -0.00195312, -0.0849609, 0.288086, -9.73145, 1.18.2022 18:20:53.353
495, 1.71018, 0.319789, 140.845, -0.000976562, -0.000976562, -0.000976562, -0.0253906, 0.260742, -9.71387, 1.18.2022 18:20:53.361
496, 1.70359, 0.322132, 140.845, 0, -0.000976562, -0.000976562, -0.111328, 0.294922, -9.72852, 1.18.2022 18:20:53.369
497, 1.70359, 0.322132, 140.845, 0, -0.000976562, -0.000976562, -0.0302734, 0.276367, -9.73535, 1.18.2022 18:20:53.377
498, 1.70359, 0.322132, 140.845, -0.000976562, -0.000976562, -0.000976562, -0.0332031, 0.294922, -9.72754, 1.18.2022 18:20:53.385
499, 1.70359, 0.322132, 140.845, 0, -0.000976562, -0.000976562, -0.078125, 0.295898, -9.74512, 1.18.2022 18:20:53.393
500, 1.70359, 0.322132, 140.845, 0.000976562, -0.000976562, 0, -0.0166016, 0.283203, -9.74707, 1.18.2022 18:20:53.401
501, 1.70359, 0.322132, 140.845, -0.000976562, -0.000976562, -0.000976562, -0.0742188, 0.272461, -9.76465, 1.18.2022 18:20:53.409
502, 1.70359, 0.322132, 140.845, 0, 0.000976562, -0.000976562, -0.0615234, 0.302734, -9.74512, 1.18.2022 18:20:53.417
503, 1.70359, 0.322132, 140.845, 0, 0.000976562, -0.000976562, -0.0117188, 0.282227, -9.76855, 1.18.2022 18:20:53.425
504, 1.70359, 0.322132, 140.845, 0, -0.000976562, -0.000976562, -0.09375, 0.303711, -9.77344, 1.18.2022 18:20:53.433
505, 1.70359, 0.322132, 140.845, 0, -0.000976562, -0.000976562, -0.0673828, 0.285156, -9.78809, 1.18.2022 18:20:53.441
506, 1.70359, 0.322132, 140.845, -0.000976562, -0.000976562, -0.000976562, -0.0166016, 0.272461, -9.76074, 1.18.2022 18:20:53.449
507, 1.70359, 0.322132, 140.845, -0.000976562, -0.000976562, -0.000976562, -0.0595703, 0.297852, -9.74121, 1.18.2022 18:20:53.457
508, 1.70359, 0.322132, 140.845, 0, -0.000976562, -0.000976562, 0.0117188, 0.286133, -9.75391, 1.18.2022 18:20:53.465
509, 1.70359, 0.322132, 140.845, -0.000976562, -0.000976562, 0, -0.0664062, 0.294922, -9.7168, 1.18.2022 18:20:53.473
510, 1.70125, 0.315544, 140.845, -0.000976562, -0.000976562, 0, -0.0712891, 0.302734, -9.74316, 1.18.2022 18:20:53.481
511, 1.70125, 0.315544, 140.845, 0, -0.000976562, -0.000976562, -0.0244141, 0.272461, -9.76074, 1.18.2022 18:20:53.489
512, 1.70125, 0.315544, 140.845, 0, -0.000976562, -0.000976562, -0.0761719, 0.305664, -9.76367, 1.18.2022 18:20:53.497
513, 1.70125, 0.315544, 140.845, -0.000976562, -0.000976562, -0.000976562, -0.0878906, 0.307617, -9.74512, 1.18.2022 18:20:53.505
514, 1.70125, 0.315544, 140.845, -0.000976562, -0.000976562, 0, -0.0498047, 0.274414, -9.75391, 1.18.2022 18:20:53.513
515, 1.70125, 0.315544, 140.845, -0.000976562, -0.000976562, -0.000976562, -0.112305, 0.286133, -9.75977, 1.18.2022 18:20:53.521
516, 1.70125, 0.315544, 140.845, 0, -0.000976562, 0, -0.0214844, 0.27832, -9.74219, 1.18.2022 18:20:53.529
517, 1.70125, 0.315544, 140.845, -0.000976562, -0.000976562, -0.000976562, -0.03125, 0.280273, -9.78418, 1.18.2022 18:20:53.537
518, 1.70125, 0.315544, 140.845, -0.000976562, -0.000976562, -0.00195312, -0.0449219, 0.30957, -9.73633, 1.18.2022 18:20:53.545
519, 1.70125, 0.315544, 140.845, -0.000976562, -0.000976562, -0.000976562, -0.0117188, 0.269531, -9.74219, 1.18.2022 18:20:53.553
520, 1.70125, 0.315544, 140.845, -0.000976562, -0.000976562, -0.000976562, -0.0761719, 0.304688, -9.7334, 1.18.2022 18:20:53.561
521, 1.70125, 0.315544, 140.845, 0, -0.00195312, -0.000976562, -0.0712891, 0.3125, -9.74316, 1.18.2022 18:20:53.569
522, 1.70125, 0.315544, 140.845, -0.000976562, -0.000976562, -0.000976562, -0.0361328, 0.279297, -9.75586, 1.18.2022 18:20:53.577
523, 1.70125, 0.315544, 140.845, 0, -0.000976562, -0.000976562, -0.0830078, 0.292969, -9.73633, 1.18.2022 18:20:53.585
524, 1.70125, 0.315544, 140.845, -0.000976562, -0.000976562, 0, -0.0166016, 0.271484, -9.75391, 1.18.2022 18:20:53.593
525, 1.70784, 0.3132, 140.845, 0, -0.000976562, -0.000976562, -0.0380859, 0.288086, -9.72266, 1.18.2022 18:20:53.601
526, 1.70784, 0.3132, 140.845, 0, -0.000976562, 0, -0.0546875, 0.290039, -9.71973, 1.18.2022 18:20:53.609
527, 1.69891, 0.308955, 140.845, 0, -0.000976562, -0.000976562, -0.0205078, 0.258789, -9.71875, 1.18.2022 18:20:53.617
528, 1.69891, 0.308955, 140.845, 0, -0.00195312, -0.000976562, -0.0634766, 0.292969, -9.72949, 1.18.2022 18:20:53.625
529, 1.69891, 0.308955, 140.845, 0, -0.000976562, 0, -0.03125, 0.300781, -9.75586, 1.18.2022 18:20:53.633
530, 1.69891, 0.308955, 140.845, 0, -0.000976562, -0.000976562, -0.0263672, 0.28125, -9.75586, 1.18.2022 18:20:53.641
531, 1.69891, 0.308955, 140.845, -0.000976562, -0.000976562, 0, -0.0996094, 0.296875, -9.71387, 1.18.2022 18:20:53.649
532, 1.69891, 0.308955, 140.845, -0.000976562, -0.000976562, 0, -0.0478516, 0.269531, -9.75098, 1.18.2022 18:20:53.657
533, 1.69648, 0.302275, 140.837, 0, 0, 0.000976562, -0.0478516, 0.286133, -9.74414, 1.18.2022 18:20:53.663
534, 1.69648, 0.302275, 140.837, -0.000976562, -0.000976562, -0.000976562, -0.0810547, 0.313477, -9.77539, 1.18.2022 18:20:53.671
535, 1.70307, 0.299931, 140.837, 0, -0.000976562, -0.000976562, -0.0214844, 0.293945, -9.77441, 1.18.2022 18:20:53.679
536, 1.70307, 0.299931, 140.837, -0.000976562, -0.000976562, 0, -0.046875, 0.277344, -9.7041, 1.18.2022 18:20:53.687
537, 1.70307, 0.299931, 140.837, 0, -0.000976562, 0, -0.0546875, 0.280273, -9.72949, 1.18.2022 18:20:53.695
538, 1.70307, 0.299931, 140.837, 0, -0.000976562, -0.000976562, -0.0263672, 0.291016, -9.74121, 1.18.2022 18:20:53.703
539, 1.69648, 0.302275, 140.837, 0, -0.000976562, -0.000976562, -0.133789, 0.28418, -9.76562, 1.18.2022 18:20:53.711
540, 1.69648, 0.302275, 140.837, 0, 0, 0.000976562, -0.0234375, 0.270508, -9.7041, 1.18.2022 18:20:53.719
541, 1.69648, 0.302275, 140.837, 0, -0.000976562, 0, -0.0498047, 0.274414, -9.75781, 1.18.2022 18:20:53.727
542, 1.69648, 0.302275, 140.837, 0, -0.00195312, 0, -0.078125, 0.321289, -9.73535, 1.18.2022 18:20:53.735
543, 1.69648, 0.302275, 140.837, 0, 0, -0.000976562, -0.0146484, 0.272461, -9.76855, 1.18.2022 18:20:53.743
544, 1.69648, 0.302275, 140.837, 0, 0, 0, -0.0791016, 0.296875, -9.80469, 1.18.2022 18:20:53.751
545, 1.69648, 0.302275, 140.837, 0, 0.000976562, -0.000976562, -0.0625, 0.310547, -9.75977, 1.18.2022 18:20:53.759
546, 1.69648, 0.302275, 140.837, 0, 0, -0.000976562, -0.0302734, 0.299805, -9.73926, 1.18.2022 18:20:53.767
547, 1.69648, 0.302275, 140.837, 0, 0.000976562, -0.000976562, -0.104492, 0.314453, -9.74902, 1.18.2022 18:20:53.775
548, 1.69648, 0.302275, 140.837, 0, 0, -0.000976562, -0.0263672, 0.305664, -9.75586, 1.18.2022 18:20:53.783
549, 1.69648, 0.302275, 140.837, 0, 0, -0.000976562, -0.0234375, 0.276367, -9.75391, 1.18.2022 18:20:53.791
550, 1.70307, 0.299931, 140.837, -0.000976562, 0, -0.000976562, -0.0810547, 0.295898, -9.75977, 1.18.2022 18:20:53.799
551, 1.70307, 0.299931, 140.837, -0.000976562, 0, -0.000976562, -0.0185547, 0.288086, -9.74609, 1.18.2022 18:20:53.807
552, 1.70307, 0.299931, 140.837, -0.000976562, 0, 0, -0.0947266, 0.30957, -9.72852, 1.18.2022 18:20:53.815
553, 1.70541, 0.30652, 140.837, 0, 0, -0.000976562, -0.0732422, 0.276367, -9.74121, 1.18.2022 18:20:53.823
554, 1.70541, 0.30652, 140.837, -0.000976562, 0, -0.000976562, -0.00488281, 0.261719, -9.73145, 1.18.2022 18:20:53.831
555, 1.70541, 0.30652, 140.837, -0.000976562, 0, 0, -0.0878906, 0.294922, -9.73535, 1.18.2022 18:20:53.839
556, 1.70541, 0.30652, 140.837, 0, 0, -0.000976562, -0.0429688, 0.290039, -9.73438, 1.18.2022 18:20:53.847
557, 1.70541, 0.30652, 140.837, 0, 0.000976562, -0.000976562, -0.0546875, 0.273438, -9.72754, 1.18.2022 18:20:53.855
558, 1.70541, 0.30652, 140.837, 0, -0.00195312, -0.000976562, -0.0859375, 0.310547, -9.77832, 1.18.2022 18:20:53.863
559, 1.70541, 0.30652, 140.837, -0.000976562, -0.00195312, -0.000976562, 0.00488281, 0.291992, -9.7207, 1.18.2022 18:20:53.871
560, 1.70541, 0.30652, 140.837, 0, -0.00195312, -0.000976562, -0.0810547, 0.295898, -9.75977, 1.18.2022 18:20:53.879
561, 1.70541, 0.30652, 140.837, -0.000976562, 0, -0.000976562, -0.0566406, 0.295898, -9.74316, 1.18.2022 18:20:53.887
562, 1.70541, 0.30652, 140.837, -0.000976562, 0.000976562, -0.000976562, -0.0263672, 0.267578, -9.78027, 1.18.2022 18:20:53.895
563, 1.70541, 0.30652, 140.837, -0.000976562, 0.000976562, -0.000976562, -0.119141, 0.289062, -9.75195, 1.18.2022 18:20:53.903
564, 1.7055, 0.306612, 140.845, 0, 0, -0.00195312, -0.0332031, 0.299805, -9.73926, 1.18.2022 18:20:53.911
565, 1.7055, 0.306612, 140.845, 0, 0, -0.000976562, -0.0185547, 0.290039, -9.71387, 1.18.2022 18:20:53.919
566, 1.7055, 0.306612, 140.845, -0.000976562, 0, 0, -0.102539, 0.327148, -9.75391, 1.18.2022 18:20:53.927
567, 1.71208, 0.304268, 140.845, -0.000976562, 0.000976562, -0.000976562, 0.00390625, 0.282227, -9.78223, 1.18.2022 18:20:53.935
568, 1.71208, 0.304268, 140.845, -0.000976562, 0, -0.000976562, -0.0732422, 0.301758, -9.70703, 1.18.2022 18:20:53.943
569, 1.71208, 0.304268, 140.845, -0.000976562, 0, -0.000976562, -0.0791016, 0.327148, -9.75879, 1.18.2022 18:20:53.951
570, 1.71208, 0.304268, 140.845, -0.000976562, 0, -0.000976562, -0.00878906, 0.283203, -9.72754, 1.18.2022 18:20:53.959
571, 1.71208, 0.304268, 140.845, 0, 0.000976562, 0, -0.0927734, 0.264648, -9.75977, 1.18.2022 18:20:53.967
572, 1.71208, 0.304268, 140.845, -0.000976562, 0.000976562, -0.000976562, -0.0498047, 0.283203, -9.74121, 1.18.2022 18:20:53.975
573, 1.71208, 0.304268, 140.845, -0.000976562, 0, -0.000976562, -0.0644531, 0.264648, -9.73926, 1.18.2022 18:20:53.983
574, 1.71443, 0.310857, 140.845, 0, 0, -0.000976562, -0.101562, 0.301758, -9.72363, 1.18.2022 18:20:53.991
575, 1.71443, 0.310857, 140.845, -0.000976562, -0.00195312, -0.000976562, -0.00976562, 0.297852, -9.74219, 1.18.2022 18:20:53.999
576, 1.71443, 0.310857, 140.845, -0.000976562, -0.000976562, -0.000976562, -0.0498047, 0.290039, -9.72949, 1.18.2022 18:20:54.007
577, 1.71443, 0.310857, 140.845, -0.000976562, -0.000976562, 0, -0.0644531, 0.307617, -9.75684, 1.18.2022 18:20:54.015
578, 1.71443, 0.310857, 140.845, -0.000976562, -0.000976562, -0.000976562, -0.00195312, 0.273438, -9.71875, 1.18.2022 18:20:54.023
579, 1.71443, 0.310857, 140.845, 0, -0.00195312, -0.000976562, -0.0996094, 0.3125, -9.74219, 1.18.2022 18:20:54.031
580, 1.71443, 0.310857, 140.845, 0, -0.00195312, -0.000976562, -0.0449219, 0.300781, -9.74805, 1.18.2022 18:20:54.039
581, 1.71443, 0.310857, 140.845, -0.000976562, -0.000976562, -0.000976562, -0.0429688, 0.274414, -9.75879, 1.18.2022 18:20:54.047
582, 1.71443, 0.310857, 140.845, 0, -0.00195312, -0.000976562, -0.112305, 0.296875, -9.77832, 1.18.2022 18:20:54.055
583, 1.71443, 0.310857, 140.845, 0, -0.000976562, -0.000976562, -0.00683594, 0.292969, -9.74902, 1.18.2022 18:20:54.063
584, 1.71443, 0.310857, 140.845, -0.000976562, -0.000976562, -0.000976562, -0.0693359, 0.298828, -9.78125, 1.18.2022 18:20:54.071
585, 1.71677, 0.317446, 140.845, -0.000976562, -0.000976562, -0.000976562, -0.0996094, 0.286133, -9.7334, 1.18.2022 18:20:54.079
586, 1.71677, 0.317446, 140.845, 0, -0.000976562, -0.000976562, -0.0361328, 0.269531, -9.75195, 1.18.2022 18:20:54.087
587, 1.71677, 0.317446, 140.845, 0, -0.000976562, -0.000976562, -0.0839844, 0.292969, -9.66992, 1.18.2022 18:20:54.095
588, 1.71677, 0.317446, 140.845, 0, -0.00195312, -0.000976562, -0.0761719, 0.316406, -9.72559, 1.18.2022 18:20:54.103
589, 1.71677, 0.317446, 140.845, -0.00195312, -0.000976562, -0.000976562, -0.0214844, 0.283203, -9.7373, 1.18.2022 18:20:54.111
590, 1.71677, 0.317446, 140.845, -0.000976562, 0, -0.000976562, -0.116211, 0.329102, -9.73926, 1.18.2022 18:20:54.119
591, 1.71911, 0.324034, 140.845, 0, -0.000976562, -0.000976562, -0.0410156, 0.28125, -9.75586, 1.18.2022 18:20:54.127
592, 1.71911, 0.324034, 140.845, 0, -0.000976562, -0.000976562, -0.0380859, 0.304688, -9.74805, 1.18.2022 18:20:54.135
593, 1.71911, 0.324034, 140.845, -0.000976562, -0.000976562, 0, -0.0830078, 0.307617, -9.75, 1.18.2022 18:20:54.143
594, 1.7257, 0.321691, 140.845, -0.000976562, -0.000976562, 0, -0.00878906, 0.265625, -9.70703, 1.18.2022 18:20:54.151
595, 1.71911, 0.324034, 140.845, 0, -0.000976562, 0, -0.0810547, 0.271484, -9.72949, 1.18.2022 18:20:54.159
596, 1.71911, 0.324034, 140.845, 0, 0, -0.000976562, -0.0683594, 0.285156, -9.72656, 1.18.2022 18:20:54.167
597, 1.71911, 0.324034, 140.845, -0.000976562, -0.000976562, -0.000976562, -0.0380859, 0.267578, -9.77539, 1.18.2022 18:20:54.175
598, 1.71911, 0.324034, 140.845, -0.000976562, -0.000976562, -0.000976562, -0.0947266, 0.287109, -9.70996, 1.18.2022 18:20:54.183
599, 1.71911, 0.324034, 140.845, -0.000976562, 0, -0.000976562, -0.0263672, 0.274414, -9.74414, 1.18.2022 18:20:54.191
600, 1.71911, 0.324034, 140.845, 0, -0.000976562, -0.000976562, -0.0664062, 0.256836, -9.73242, 1.18.2022 18:20:54.199
601, 1.71911, 0.324034, 140.845, 0, -0.000976562, -0.000976562, -0.0976562, 0.3125, -9.76367, 1.18.2022 18:20:54.207
602, 1.71252, 0.326378, 140.845, 0, -0.000976562, -0.000976562, -0.0332031, 0.273438, -9.72754, 1.18.2022 18:20:54.215
603, 1.71487, 0.332966, 140.845, -0.000976562, -0.000976562, -0.000976562, -0.0742188, 0.292969, -9.75, 1.18.2022 18:20:54.223
604, 1.71487, 0.332966, 140.845, -0.000976562, -0.000976562, 0, -0.0664062, 0.286133, -9.73438, 1.18.2022 18:20:54.231
605, 1.71487, 0.332966, 140.845, -0.000976562, -0.000976562, 0, -0.0166016, 0.279297, -9.76855, 1.18.2022 18:20:54.239
606, 1.71487, 0.332966, 140.845, -0.000976562, -0.000976562, 0, -0.0996094, 0.3125, -9.75195, 1.18.2022 18:20:54.247
607, 1.71487, 0.332966, 140.845, 0, 0, -0.000976562, -0.0351562, 0.301758, -9.71289, 1.18.2022 18:20:54.255
608, 1.71487, 0.332966, 140.845, 0, 0, -0.000976562, -0.0332031, 0.256836, -9.72168, 1.18.2022 18:20:54.263
609, 1.70828, 0.33531, 140.845, -0.000976562, 0, -0.000976562, -0.0830078, 0.290039, -9.72656, 1.18.2022 18:20:54.271
610, 1.70828, 0.33531, 140.845, -0.000976562, 0, -0.000976562, -0.0078125, 0.264648, -9.7666, 1.18.2022 18:20:54.279
611, 1.70594, 0.328721, 140.845, 0, 0, -0.000976562, -0.0595703, 0.286133, -9.74316, 1.18.2022 18:20:54.287
612, 1.70594, 0.328721, 140.845, 0, 0, -0.000976562, -0.0664062, 0.290039, -9.70605, 1.18.2022 18:20:54.295
613, 1.70594, 0.328721, 140.845, 0, 0, -0.000976562, -0.0576172, 0.287109, -9.77148, 1.18.2022 18:20:54.303
614, 1.70594, 0.328721, 140.845, 0, -0.00195312, 0, -0.102539, 0.297852, -9.75, 1.18.2022 18:20:54.311
615, 1.70594, 0.328721, 140.845, 0, 0, 0, -0.0117188, 0.291016, -9.75391, 1.18.2022 18:20:54.319
616, 1.70594, 0.328721, 140.845, 0, 0, -0.000976562, -0.03125, 0.286133, -9.76758, 1.18.2022 18:20:54.327
617, 1.69935, 0.331064, 140.845, 0, 0, -0.000976562, -0.0791016, 0.291016, -9.75684, 1.18.2022 18:20:54.335
618, 1.69935, 0.331064, 140.845, -0.000976562, -0.00195312, 0, -0.0166016, 0.283203, -9.73926, 1.18.2022 18:20:54.343
619, 1.69926, 0.330973, 140.837, -0.00195312, 0, 0, -0.0683594, 0.294922, -9.73145, 1.18.2022 18:20:54.351
620, 1.70585, 0.32863, 140.837, -0.000976562, 0.000976562, -0.000976562, -0.0693359, 0.307617, -9.75195, 1.18.2022 18:20:54.359
621, 1.70351, 0.322041, 140.837, 0, 0, -0.000976562, -0.0146484, 0.28418, -9.77734, 1.18.2022 18:20:54.367
622, 1.70359, 0.322132, 140.845, 0, 0, -0.000976562, -0.102539, 0.297852, -9.73828, 1.18.2022 18:20:54.375
623, 1.70351, 0.322041, 140.837, 0.000976562, -0.00195312, 0, -0.0302734, 0.291992, -9.71582, 1.18.2022 18:20:54.383
624, 1.70351, 0.322041, 140.837, 0, 0, -0.000976562, -0.0283203, 0.311523, -9.72168, 1.18.2022 18:20:54.391
625, 1.70351, 0.322041, 140.837, -0.000976562, 0, -0.000976562, -0.0712891, 0.3125, -9.73535, 1.18.2022 18:20:54.399
626, 1.70351, 0.322041, 140.837, -0.000976562, 0, -0.000976562, -0.0244141, 0.262695, -9.76855, 1.18.2022 18:20:54.407
627, 1.70359, 0.322132, 140.845, -0.000976562, 0, -0.000976562, -0.078125, 0.3125, -9.74023, 1.18.2022 18:20:54.415
628, 1.70359, 0.322132, 140.845, -0.000976562, 0, -0.000976562, -0.0654297, 0.295898, -9.69141, 1.18.2022 18:20:54.423
629, 1.71009, 0.319697, 140.837, -0.000976562, -0.00195312, 0, -0.00488281, 0.27832, -9.73535, 1.18.2022 18:20:54.431
630, 1.71009, 0.319697, 140.837, -0.000976562, 0, 0, -0.0693359, 0.317383, -9.75, 1.18.2022 18:20:54.439
631, 1.71009, 0.319697, 140.837, -0.000976562, 0, 0, -0.0400391, 0.292969, -9.75098, 1.18.2022 18:20:54.447
632, 1.71009, 0.319697, 140.837, -0.000976562, 0.000976562, -0.000976562, -0.0429688, 0.291016, -9.74805, 1.18.2022 18:20:54.455
633, 1.70775, 0.313109, 140.837, -0.000976562, 0, -0.000976562, -0.0810547, 0.288086, -9.72656, 1.18.2022 18:20:54.463
634, 1.71434, 0.310765, 140.837, 0, -0.00195312, -0.000976562, -0.0234375, 0.266602, -9.75391, 1.18.2022 18:20:54.471
635, 1.71434, 0.310765, 140.837, -0.000976562, 0, -0.000976562, -0.0566406, 0.291016, -9.74121, 1.18.2022 18:20:54.479
636, 1.71434, 0.310765, 140.837, -0.000976562, 0, -0.000976562, -0.0498047, 0.295898, -9.7627, 1.18.2022 18:20:54.487
637, 1.71434, 0.310765, 140.837, 0, 0, -0.000976562, -0.0185547, 0.269531, -9.74707, 1.18.2022 18:20:54.495
638, 1.71434, 0.310765, 140.837, 0, 0, -0.000976562, -0.107422, 0.276367, -9.74121, 1.18.2022 18:20:54.503
639, 1.71434, 0.310765, 140.837, 0, 0, -0.000976562, -0.0449219, 0.27832, -9.73438, 1.18.2022 18:20:54.511
640, 1.71434, 0.310765, 140.837, 0, -0.000976562, -0.000976562, -0.0566406, 0.276367, -9.74414, 1.18.2022 18:20:54.519
641, 1.70775, 0.313109, 140.837, -0.000976562, -0.000976562, -0.000976562, -0.0791016, 0.320312, -9.76367, 1.18.2022 18:20:54.527
642, 1.71443, 0.310857, 140.845, -0.000976562, -0.000976562, -0.00195312, -0.00195312, 0.3125, -9.74414, 1.18.2022 18:20:54.535
643, 1.71443, 0.310857, 140.845, -0.000976562, 0, 0, -0.0751953, 0.293945, -9.69336, 1.18.2022 18:20:54.543
644, 1.71443, 0.310857, 140.845, 0, -0.000976562, -0.000976562, -0.0800781, 0.297852, -9.6748, 1.18.2022 18:20:54.551
645, 1.71443, 0.310857, 140.845, -0.000976562, -0.00195312, 0, -0.0332031, 0.273438, -9.73535, 1.18.2022 18:20:54.559
646, 1.71443, 0.310857, 140.845, 0, 0, -0.000976562, -0.0996094, 0.288086, -9.72363, 1.18.2022 18:20:54.567
647, 1.71443, 0.310857, 140.845, 0, 0, 0, -0.0214844, 0.273438, -9.74023, 1.18.2022 18:20:54.575
648, 1.71434, 0.310765, 140.837, -0.000976562, -0.00195312, 0, -0.0253906, 0.282227, -9.71387, 1.18.2022 18:20:54.583
649, 1.71434, 0.310765, 140.837, 0, 0, -0.000976562, -0.132812, 0.326172, -9.73633, 1.18.2022 18:20:54.591
650, 1.71434, 0.310765, 140.837, 0, 0.000976562, -0.000976562, -0.0185547, 0.275391, -9.71582, 1.18.2022 18:20:54.599
651, 1.71434, 0.310765, 140.837, -0.000976562, -0.000976562, -0.000976562, -0.0751953, 0.294922, -9.71191, 1.18.2022 18:20:54.607
652, 1.71443, 0.310857, 140.845, -0.000976562, 0, -0.00195312, -0.0664062, 0.331055, -9.73242, 1.18.2022 18:20:54.613
653, 1.71443, 0.310857, 140.845, -0.000976562, 0, -0.00195312, -0.0214844, 0.286133, -9.74609, 1.18.2022 18:20:54.621
654, 1.71677, 0.317446, 140.845, 0, 0, 0, -0.102539, 0.291016, -9.74707, 1.18.2022 18:20:54.629
655, 1.71677, 0.317446, 140.845, -0.000976562, 0.000976562, -0.000976562, -0.0576172, 0.31543, -9.77637, 1.18.2022 18:20:54.637
656, 1.71677, 0.317446, 140.845, -0.000976562, 0, -0.00195312, -0.0205078, 0.285156, -9.7207, 1.18.2022 18:20:54.645
657, 1.71677, 0.317446, 140.845, -0.000976562, 0, -0.000976562, -0.0898438, 0.311523, -9.72852, 1.18.2022 18:20:54.653
658, 1.71677, 0.317446, 140.845, -0.000976562, 0.000976562, 0, 0.00292969, 0.275391, -9.7168, 1.18.2022 18:20:54.661
659, 1.72336, 0.315103, 140.845, 0, 0, 0, -0.0771484, 0.280273, -9.7998, 1.18.2022 18:20:54.669
660, 1.72336, 0.315103, 140.845, -0.000976562, 0, 0, -0.0732422, 0.324219, -9.72852, 1.18.2022 18:20:54.677
661, 1.72336, 0.315103, 140.845, -0.000976562, 0, 0, -0.0214844, 0.285156, -9.73047, 1.18.2022 18:20:54.685
662, 1.72336, 0.315103, 140.845, 0, 0, -0.000976562, -0.0927734, 0.295898, -9.75488, 1.18.2022 18:20:54.693
663, 1.72336, 0.315103, 140.845, -0.000976562, -0.00195312, 0, -0.0380859, 0.296875, -9.77637, 1.18.2022 18:20:54.701
664, 1.72327, 0.31501, 140.837, 0, 0, 0, -0.0410156, 0.28418, -9.7627, 1.18.2022 18:20:54.709
665, 1.72327, 0.31501, 140.837, -0.000976562, 0.000976562, -0.000976562, -0.0625, 0.287109, -9.79297, 1.18.2022 18:20:54.717
666, 1.72327, 0.31501, 140.837, 0, -0.000976562, -0.000976562, -0.0400391, 0.271484, -9.74902, 1.18.2022 18:20:54.725
667, 1.72327, 0.31501, 140.837, 0, 0, -0.000976562, -0.0527344, 0.288086, -9.74805, 1.18.2022 18:20:54.733
668, 1.72336, 0.315103, 140.845, -0.000976562, -0.000976562, -0.000976562, -0.0966797, 0.301758, -9.71191, 1.18.2022 18:20:54.741
669, 1.72327, 0.31501, 140.837, 0, 0, 0, -0.0234375, 0.271484, -9.74902, 1.18.2022 18:20:54.749
670, 1.72327, 0.31501, 140.837, -0.000976562, 0, 0, -0.0859375, 0.298828, -9.78027, 1.18.2022 18:20:54.757
671, 1.72327, 0.31501, 140.837, 0, 0, 0, -0.0371094, 0.323242, -9.72363, 1.18.2022 18:20:54.765
672, 1.72327, 0.31501, 140.837, 0, -0.000976562, 0, -0.0214844, 0.273438, -9.74023, 1.18.2022 18:20:54.773
673, 1.72327, 0.31501, 140.837, -0.000976562, -0.000976562, 0, -0.0908203, 0.31543, -9.75684, 1.18.2022 18:20:54.781
674, 1.72327, 0.31501, 140.837, -0.000976562, 0, 0, -0.0263672, 0.27832, -9.74219, 1.18.2022 18:20:54.789
675, 1.72327, 0.31501, 140.837, -0.000976562, 0, 0, -0.0810547, 0.275391, -9.72461, 1.18.2022 18:20:54.797
676, 1.72327, 0.31501, 140.837, 0, 0.000976562, 0, -0.0810547, 0.293945, -9.7666, 1.18.2022 18:20:54.805
677, 1.72327, 0.31501, 140.837, -0.000976562, 0, -0.000976562, -0.0253906, 0.27832, -9.72559, 1.18.2022 18:20:54.813
678, 1.72327, 0.31501, 140.837, -0.000976562, 0, 0, -0.104492, 0.288086, -9.72363, 1.18.2022 18:20:54.821
679, 1.72327, 0.31501, 140.837, -0.000976562, -0.000976562, 0, -0.0625, 0.264648, -9.76562, 1.18.2022 18:20:54.829
680, 1.72327, 0.31501, 140.837, 0, 0, -0.000976562, -0.0185547, 0.288086, -9.73926, 1.18.2022 18:20:54.837
681, 1.71902, 0.323942, 140.837, 0, 0, -0.000976562, -0.109375, 0.308594, -9.71191, 1.18.2022 18:20:54.845
682, 1.71902, 0.323942, 140.837, -0.000976562, 0, -0.00195312, -0.0302734, 0.283203, -9.73926, 1.18.2022 18:20:54.853
683, 1.71902, 0.323942, 140.837, -0.000976562, 0.000976562, -0.000976562, -0.0566406, 0.27832, -9.73926, 1.18.2022 18:20:54.861
684, 1.71902, 0.323942, 140.837, 0, 0.000976562, 0, -0.100586, 0.310547, -9.76074, 1.18.2022 18:20:54.869
685, 1.71902, 0.323942, 140.837, -0.000976562, 0, -0.000976562, -0.00976562, 0.283203, -9.74219, 1.18.2022 18:20:54.877
686, 1.71902, 0.323942, 140.837, 0, 0, -0.000976562, -0.0732422, 0.285156, -9.71484, 1.18.2022 18:20:54.885
687, 1.71902, 0.323942, 140.837, -0.000976562, -0.000976562, -0.000976562, -0.0400391, 0.271484, -9.73926, 1.18.2022 18:20:54.893
688, 1.71902, 0.323942, 140.837, -0.000976562, 0, -0.000976562, -0.0263672, 0.285156, -9.78711, 1.18.2022 18:20:54.901
689, 1.71902, 0.323942, 140.837, 0, 0, -0.00195312, -0.114258, 0.304688, -9.71582, 1.18.2022 18:20:54.909
690, 1.71244, 0.326286, 140.837, 0, 0, -0.000976562, -0.0419922, 0.277344, -9.70117, 1.18.2022 18:20:54.917
691, 1.71244, 0.326286, 140.837, -0.000976562, -0.000976562, -0.000976562, -0.0644531, 0.28125, -9.75586, 1.18.2022 18:20:54.925
692, 1.71244, 0.326286, 140.837, 0, 0, -0.000976562, -0.0947266, 0.299805, -9.71875, 1.18.2022 18:20:54.933
693, 1.71244, 0.326286, 140.837, 0, 0.000976562, -0.00195312, -0.0341797, 0.260742, -9.79004, 1.18.2022 18:20:54.941
694, 1.71252, 0.326378, 140.845, 0, 0, -0.000976562, -0.0693359, 0.287109, -9.77441, 1.18.2022 18:20:54.949
695, 1.71252, 0.326378, 140.845, 0, 0, -0.000976562, -0.0390625, 0.301758, -9.78125, 1.18.2022 18:20:54.957
696, 1.71252, 0.326378, 140.845, 0, 0.000976562, -0.000976562, -0.0166016, 0.289062, -9.75879, 1.18.2022 18:20:54.965
697, 1.70594, 0.328721, 140.845, 0, 0.000976562, 0, -0.0947266, 0.296875, -9.72168, 1.18.2022 18:20:54.973
698, 1.70594, 0.328721, 140.845, 0, 0.000976562, -0.000976562, -0.0253906, 0.280273, -9.7207, 1.18.2022 18:20:54.981
699, 1.70359, 0.322132, 140.845, -0.000976562, 0, -0.000976562, -0.0263672, 0.261719, -9.74512, 1.18.2022 18:20:54.989
700, 1.70359, 0.322132, 140.845, -0.000976562, 0, -0.000976562, -0.0810547, 0.317383, -9.74219, 1.18.2022 18:20:54.997
701, 1.70359, 0.322132, 140.845, 0, 0, -0.000976562, -0.00976562, 0.264648, -9.74707, 1.18.2022 18:20:55.005
702, 1.70359, 0.322132, 140.845, 0, 0, -0.000976562, -0.0546875, 0.297852, -9.72656, 1.18.2022 18:20:55.013
703, 1.70359, 0.322132, 140.845, 0, -0.000976562, -0.000976562, -0.0703125, 0.296875, -9.70996, 1.18.2022 18:20:55.021
704, 1.70359, 0.322132, 140.845, 0, -0.000976562, -0.000976562, -0.0205078, 0.292969, -9.72559, 1.18.2022 18:20:55.029
705, 1.70125, 0.315544, 140.845, 0, -0.000976562, -0.000976562, -0.0976562, 0.324219, -9.73926, 1.18.2022 18:20:55.037
706, 1.70125, 0.315544, 140.845, 0, 0.000976562, -0.000976562, -0.0498047, 0.291016, -9.75098, 1.18.2022 18:20:55.045
707, 1.70125, 0.315544, 140.845, 0, -0.000976562, -0.000976562, -0.0566406, 0.27832, -9.73926, 1.18.2022 18:20:55.053
708, 1.70125, 0.315544, 140.845, 0, -0.000976562, -0.000976562, -0.100586, 0.300781, -9.75879, 1.18.2022 18:20:55.061
709, 1.70125, 0.315544, 140.845, 0, -0.000976562, -0.000976562, -0.0332031, 0.28125, -9.76074, 1.18.2022 18:20:55.069
710, 1.70359, 0.322132, 140.845, 0, -0.000976562, -0.000976562, -0.0810547, 0.27832, -9.73438, 1.18.2022 18:20:55.077
711, 1.70359, 0.322132, 140.845, 0, -0.000976562, 0, -0.0732422, 0.316406, -9.73535, 1.18.2022 18:20:55.085
712, 1.70359, 0.322132, 140.845, -0.000976562, 0.000976562, -0.000976562, -0.0117188, 0.275391, -9.73047, 1.18.2022 18:20:55.093
713, 1.70359, 0.322132, 140.845, -0.000976562, 0.000976562, -0.000976562, -0.0947266, 0.297852, -9.73535, 1.18.2022 18:20:55.101
714, 1.70359, 0.322132, 140.845, 0, -0.000976562, -0.000976562, -0.0361328, 0.296875, -9.7793, 1.18.2022 18:20:55.109
715, 1.70359, 0.322132, 140.845, 0, -0.000976562, -0.000976562, -0.0263672, 0.292969, -9.74609, 1.18.2022 18:20:55.117
716, 1.70359, 0.322132, 140.845, 0, -0.000976562, -0.000976562, -0.0976562, 0.276367, -9.72656, 1.18.2022 18:20:55.125
717, 1.70359, 0.322132, 140.845, -0.000976562, -0.000976562, -0.000976562, -0.00683594, 0.25293, -9.75684, 1.18.2022 18:20:55.133
718, 1.70359, 0.322132, 140.845, 0, -0.000976562, -0.000976562, -0.0595703, 0.268555, -9.7373, 1.18.2022 18:20:55.141
719, 1.70359, 0.322132, 140.845, 0, -0.000976562, -0.000976562, -0.0742188, 0.276367, -9.75293, 1.18.2022 18:20:55.149
720, 1.70125, 0.315544, 140.845, -0.000976562, -0.000976562, -0.000976562, -0.00683594, 0.265625, -9.71191, 1.18.2022 18:20:55.157
721, 1.70125, 0.315544, 140.845, -0.000976562, -0.000976562, -0.000976562, -0.0927734, 0.283203, -9.7334, 1.18.2022 18:20:55.165
722, 1.70125, 0.315544, 140.845, -0.000976562, -0.000976562, -0.000976562, -0.0595703, 0.314453, -9.74023, 1.18.2022 18:20:55.173
723, 1.70125, 0.315544, 140.845, 0, -0.000976562, -0.000976562, 0.00195312, 0.279297, -9.77734, 1.18.2022 18:20:55.181
724, 1.70125, 0.315544, 140.845, -0.000976562, -0.000976562, -0.000976562, -0.0830078, 0.310547, -9.75195, 1.18.2022 18:20:55.189
725, 1.70125, 0.315544, 140.845, -0.000976562, -0.000976562, -0.000976562, -0.0332031, 0.264648, -9.74023, 1.18.2022 18:20:55.197
726, 1.70125, 0.315544, 140.845, 0, 0.000976562, -0.000976562, -0.0810547, 0.267578, -9.7793, 1.18.2022 18:20:55.205
727, 1.69466, 0.317887, 140.845, -0.000976562, -0.000976562, 0, -0.0742188, 0.279297, -9.75293, 1.18.2022 18:20:55.213
728, 1.69466, 0.317887, 140.845, -0.000976562, 0.000976562, 0, 0.00195312, 0.249023, -9.78809, 1.18.2022 18:20:55.221
729, 1.69232, 0.311298, 140.845, -0.000976562, -0.000976562, -0.000976562, -0.0810547, 0.298828, -9.77832, 1.18.2022 18:20:55.229
730, 1.69232, 0.311298, 140.845, -0.000976562, -0.000976562, 0, -0.0429688, 0.297852, -9.74316, 1.18.2022 18:20:55.237
731, 1.69232, 0.311298, 140.845, 0, -0.00195312, -0.000976562, -0.0361328, 0.274414, -9.74707, 1.18.2022 18:20:55.245
732, 1.69232, 0.311298, 140.845, -0.000976562, -0.000976562, -0.000976562, -0.121094, 0.298828, -9.70215, 1.18.2022 18:20:55.253
733, 1.69232, 0.311298, 140.845, -0.000976562, -0.000976562, -0.000976562, -0.0205078, 0.306641, -9.71289, 1.18.2022 18:20:55.261
734, 1.69232, 0.311298, 140.845, -0.000976562, -0.000976562, -0.000976562, -0.0615234, 0.271484, -9.72461, 1.18.2022 18:20:55.269
735, 1.69232, 0.311298, 140.845, 0, -0.00195312, -0.000976562, -0.0742188, 0.297852, -9.75488, 1.18.2022 18:20:55.277
736, 1.69232, 0.311298, 140.845, -0.000976562, -0.000976562, -0.000976562, -0.0185547, 0.263672, -9.7334, 1.18.2022 18:20:55.285
737, 1.69232, 0.311298, 140.845, -0.000976562, -0.000976562, -0.000976562, -0.112305, 0.295898, -9.74707, 1.18.2022 18:20:55.293
738, 1.69232, 0.311298, 140.845, 0, -0.000976562, -0.000976562, -0.0761719, 0.300781, -9.74512, 1.18.2022 18:20:55.301
739, 1.68808, 0.32023, 140.845, -0.000976562, -0.000976562, 0, -0.0195312, 0.265625, -9.77539, 1.18.2022 18:20:55.309
740, 1.68808, 0.32023, 140.845, -0.000976562, -0.000976562, -0.000976562, -0.0546875, 0.30957, -9.74316, 1.18.2022 18:20:55.317
741, 1.68808, 0.32023, 140.845, -0.000976562, -0.000976562, 0, -0.0263672, 0.28418, -9.7627, 1.18.2022 18:20:55.325
742, 1.69232, 0.311298, 140.845, -0.000976562, 0, -0.000976562, -0.0263672, 0.289062, -9.7627, 1.18.2022 18:20:55.333
743, 1.69232, 0.311298, 140.845, -0.000976562, 0.000976562, -0.00195312, -0.0810547, 0.288086, -9.7334, 1.18.2022 18:20:55.341
744, 1.69232, 0.311298, 140.845, -0.000976562, -0.000976562, 0, -0.0136719, 0.266602, -9.74219, 1.18.2022 18:20:55.349
745, 1.69232, 0.311298, 140.845, -0.000976562, -0.000976562, -0.000976562, -0.078125, 0.269531, -9.73926, 1.18.2022 18:20:55.357
746, 1.69232, 0.311298, 140.845, -0.000976562, -0.00195312, -0.000976562, -0.0546875, 0.288086, -9.73145, 1.18.2022 18:20:55.365
747, 1.69232, 0.311298, 140.845, -0.000976562, -0.000976562, -0.000976562, -0.0429688, 0.276367, -9.75098, 1.18.2022 18:20:55.373
748, 1.68573, 0.313641, 140.845, -0.000976562, -0.00195312, 0, -0.102539, 0.290039, -9.72852, 1.18.2022 18:20:55.381
749, 1.68573, 0.313641, 140.845, -0.000976562, -0.000976562, -0.000976562, -0.0429688, 0.303711, -9.7666, 1.18.2022 18:20:55.389
750, 1.68573, 0.313641, 140.845, 0, -0.000976562, 0, -0.0585938, 0.285156, -9.71484, 1.18.2022 18:20:55.397
751, 1.68573, 0.313641, 140.845, -0.000976562, -0.000976562, -0.000976562, -0.0947266, 0.300781, -9.74512, 1.18.2022 18:20:55.405
752, 1.68573, 0.313641, 140.845, -0.000976562, -0.000976562, -0.000976562, -0.0234375, 0.275391, -9.72559, 1.18.2022 18:20:55.413
753, 1.68573, 0.313641, 140.845, 0, -0.000976562, -0.000976562, -0.0878906, 0.266602, -9.72461, 1.18.2022 18:20:55.421
754, 1.68808, 0.32023, 140.845, 0, -0.00195312, -0.000976562, -0.0595703, 0.299805, -9.72656, 1.18.2022 18:20:55.429
755, 1.68808, 0.32023, 140.845, -0.000976562, -0.000976562, 0, -0.0302734, 0.251953, -9.73535, 1.18.2022 18:20:55.437
756, 1.68808, 0.32023, 140.845, -0.000976562, -0.000976562, -0.000976562, -0.0947266, 0.313477, -9.69727, 1.18.2022 18:20:55.445
757, 1.68808, 0.32023, 140.845, -0.000976562, -0.000976562, 0, -0.0419922, 0.272461, -9.70898, 1.18.2022 18:20:55.453
758, 1.68808, 0.32023, 140.845, 0, -0.00195312, -0.000976562, -0.0595703, 0.293945, -9.75781, 1.18.2022 18:20:55.461
759, 1.68808, 0.32023, 140.845, -0.000976562, -0.000976562, -0.000976562, -0.0810547, 0.292969, -9.75, 1.18.2022 18:20:55.469
760, 1.68808, 0.32023, 140.845, -0.000976562, -0.000976562, 0, -0.00976562, 0.297852, -9.75781, 1.18.2022 18:20:55.477
761, 1.68808, 0.32023, 140.845, 0, -0.000976562, -0.000976562, -0.0927734, 0.271484, -9.74121, 1.18.2022 18:20:55.485
762, 1.68808, 0.32023, 140.845, 0, -0.000976562, -0.000976562, -0.0429688, 0.332031, -9.75684, 1.18.2022 18:20:55.493
763, 1.68808, 0.32023, 140.845, 0, -0.000976562, -0.000976562, -0.0136719, 0.301758, -9.72754, 1.18.2022 18:20:55.501
764, 1.69042, 0.326819, 140.845, -0.000976562, -0.000976562, -0.000976562, -0.102539, 0.307617, -9.74902, 1.18.2022 18:20:55.509
765, 1.69042, 0.326819, 140.845, 0, -0.00195312, 0, -0.0283203, 0.299805, -9.73633, 1.18.2022 18:20:55.517
766, 1.69701, 0.324475, 140.845, -0.000976562, 0, -0.000976562, -0.0419922, 0.290039, -9.72461, 1.18.2022 18:20:55.525
767, 1.69701, 0.324475, 140.845, -0.000976562, 0, -0.000976562, -0.0761719, 0.304688, -9.73145, 1.18.2022 18:20:55.533
768, 1.69701, 0.324475, 140.845, 0, 0, -0.000976562, -0.0175781, 0.287109, -9.77734, 1.18.2022 18:20:55.541
769, 1.69701, 0.324475, 140.845, -0.000976562, 0, -0.000976562, -0.0800781, 0.296875, -9.72168, 1.18.2022 18:20:55.549
770, 1.69701, 0.324475, 140.845, -0.000976562, -0.00195312, 0, -0.0878906, 0.265625, -9.70605, 1.18.2022 18:20:55.557
771, 1.69701, 0.324475, 140.845, -0.000976562, 0, -0.000976562, -0.0136719, 0.262695, -9.69727, 1.18.2022 18:20:55.563
772, 1.69701, 0.324475, 140.845, 0, 0, -0.000976562, -0.109375, 0.286133, -9.75195, 1.18.2022 18:20:55.571
773, 1.69701, 0.324475, 140.845, 0, 0, -0.000976562, -0.0458984, 0.295898, -9.76758, 1.18.2022 18:20:55.581
774, 1.69701, 0.324475, 140.845, -0.000976562, 0, -0.000976562, -0.00976562, 0.302734, -9.7627, 1.18.2022 18:20:55.587
775, 1.70359, 0.322132, 140.845, -0.000976562, 0, -0.000976562, -0.0517578, 0.297852, -9.74121, 1.18.2022 18:20:55.595
776, 1.70359, 0.322132, 140.845, -0.000976562, 0, -0.000976562, -0.0136719, 0.288086, -9.73047, 1.18.2022 18:20:55.603
777, 1.70359, 0.322132, 140.845, -0.000976562, 0, 0, -0.0498047, 0.286133, -9.73926, 1.18.2022 18:20:55.611
778, 1.70359, 0.322132, 140.845, 0, 0, -0.000976562, -0.0517578, 0.299805, -9.71289, 1.18.2022 18:20:55.619
779, 1.70125, 0.315544, 140.845, 0, 0, -0.00195312, -0.0263672, 0.290039, -9.73926, 1.18.2022 18:20:55.627
780, 1.70125, 0.315544, 140.845, 0, 0.000976562, -0.000976562, -0.0976562, 0.279297, -9.74512, 1.18.2022 18:20:55.635
781, 1.70125, 0.315544, 140.845, -0.000976562, 0, -0.000976562, -0.0615234, 0.304688, -9.72168, 1.18.2022 18:20:55.643
782, 1.70784, 0.3132, 140.845, -0.000976562, 0, -0.000976562, -0.0283203, 0.279297, -9.74902, 1.18.2022 18:20:55.651
783, 1.70784, 0.3132, 140.845, 0, 0, 0, -0.0732422, 0.27832, -9.73926, 1.18.2022 18:20:55.659
784, 1.70784, 0.3132, 140.845, 0, 0, 0, -0.0117188, 0.270508, -9.72363, 1.18.2022 18:20:55.667
785, 1.70125, 0.315544, 140.845, 0, 0, -0.000976562, -0.0742188, 0.276367, -9.75293, 1.18.2022 18:20:55.675
786, 1.70125, 0.315544, 140.845, -0.000976562, 0, -0.000976562, -0.0830078, 0.317383, -9.75391, 1.18.2022 18:20:55.683
787, 1.69891, 0.308955, 140.845, -0.000976562, -0.00195312, -0.000976562, -0.00195312, 0.273438, -9.74512, 1.18.2022 18:20:55.691
788, 1.7055, 0.306612, 140.845, -0.000976562, 0, -0.000976562, -0.0732422, 0.296875, -9.72168, 1.18.2022 18:20:55.699
789, 1.7055, 0.306612, 140.845, -0.000976562, 0, -0.00195312, -0.0351562, 0.285156, -9.72559, 1.18.2022 18:20:55.707
790, 1.7055, 0.306612, 140.845, -0.000976562, 0, -0.000976562, -0.0429688, 0.28418, -9.76758, 1.18.2022 18:20:55.715
791, 1.7055, 0.306612, 140.845, -0.000976562, 0.000976562, 0, -0.0927734, 0.319336, -9.74023, 1.18.2022 18:20:55.723
792, 1.7055, 0.306612, 140.845, -0.000976562, -0.00195312, 0, -0.0507812, 0.282227, -9.7793, 1.18.2022 18:20:55.731
793, 1.7055, 0.306612, 140.845, -0.000976562, -0.00195312, -0.000976562, -0.0429688, 0.276367, -9.74414, 1.18.2022 18:20:55.739
794, 1.7055, 0.306612, 140.845, 0, 0, -0.000976562, -0.0615234, 0.294922, -9.73145, 1.18.2022 18:20:55.747
795, 1.7055, 0.306612, 140.845, 0, 0, -0.000976562, 0.0078125, 0.258789, -9.7334, 1.18.2022 18:20:55.755
796, 1.7055, 0.306612, 140.845, 0, 0, 0, -0.078125, 0.288086, -9.74805, 1.18.2022 18:20:55.763
797, 1.7055, 0.306612, 140.845, 0, 0, -0.000976562, -0.0371094, 0.280273, -9.69922, 1.18.2022 18:20:55.771
798, 1.70315, 0.300023, 140.845, -0.000976562, 0, -0.000976562, -0.0361328, 0.274414, -9.76074, 1.18.2022 18:20:55.779
799, 1.70315, 0.300023, 140.845, -0.000976562, -0.000976562, -0.000976562, -0.132812, 0.307617, -9.73242, 1.18.2022 18:20:55.787
800, 1.69657, 0.302366, 140.845, 0, 0, 0, -0.0263672, 0.268555, -9.73242, 1.18.2022 18:20:55.795
801, 1.69657, 0.302366, 140.845, 0, 0, -0.000976562, -0.0546875, 0.291992, -9.77148, 1.18.2022 18:20:55.803
802, 1.69657, 0.302366, 140.845, 0, 0, -0.000976562, -0.0664062, 0.295898, -9.75, 1.18.2022 18:20:55.811
803, 1.69657, 0.302366, 140.845, 0, 0.000976562, -0.000976562, -0.0419922, 0.265625, -9.71875, 1.18.2022 18:20:55.819
804, 1.69657, 0.302366, 140.845, 0, 0.000976562, -0.000976562, -0.0947266, 0.287109, -9.69824, 1.18.2022 18:20:55.827
805, 1.69657, 0.302366, 140.845, 0, 0.000976562, -0.000976562, -0.0712891, 0.300781, -9.75, 1.18.2022 18:20:55.835
806, 1.69657, 0.302366, 140.845, -0.000976562, 0.000976562, -0.000976562, -0.0625, 0.27832, -9.79297, 1.18.2022 18:20:55.843
807, 1.69891, 0.308955, 140.845, 0, 0.000976562, -0.000976562, -0.0927734, 0.283203, -9.7334, 1.18.2022 18:20:55.851
808, 1.69232, 0.311298, 140.845, 0, 0.000976562, -0.000976562, -0.0332031, 0.289062, -9.76758, 1.18.2022 18:20:55.859
809, 1.69232, 0.311298, 140.845, 0, 0, -0.000976562, -0.0507812, 0.291992, -9.77441, 1.18.2022 18:20:55.867
810, 1.69232, 0.311298, 140.845, -0.000976562, -0.000976562, -0.000976562, -0.107422, 0.304688, -9.74023, 1.18.2022 18:20:55.875
811, 1.69232, 0.311298, 140.845, 0, -0.00195312, 0, -0.0117188, 0.267578, -9.76172, 1.18.2022 18:20:55.883
812, 1.69232, 0.311298, 140.845, 0, 0, -0.00195312, -0.0527344, 0.295898, -9.77148, 1.18.2022 18:20:55.891
813, 1.69232, 0.311298, 140.845, -0.000976562, 0, -0.00195312, -0.0322266, 0.282227, -9.71094, 1.18.2022 18:20:55.899
814, 1.69232, 0.311298, 140.845, -0.000976562, 0, -0.000976562, -0.0361328, 0.255859, -9.78516, 1.18.2022 18:20:55.907
815, 1.69232, 0.311298, 140.845, -0.000976562, 0, -0.000976562, -0.0976562, 0.295898, -9.74707, 1.18.2022 18:20:55.915
816, 1.69232, 0.311298, 140.845, -0.000976562, 0, -0.000976562, -0.00976562, 0.3125, -9.74414, 1.18.2022 18:20:55.923
817, 1.69232, 0.311298, 140.845, -0.000976562, -0.000976562, -0.000976562, -0.0234375, 0.285156, -9.70898, 1.18.2022 18:20:55.931
818, 1.69202, 0.311351, 140.843, 0, 0, -0.000976562, -0.0732422, 0.303711, -9.7002, 1.18.2022 18:20:55.939
819, 1.69202, 0.311351, 140.843, -0.000976562, 0, -0.000976562, 0.0195312, 0.273438, -9.74512, 1.18.2022 18:20:55.947
820, 1.69202, 0.311351, 140.843, 0, 0, -0.000976562, -0.078125, 0.297852, -9.75, 1.18.2022 18:20:55.955
821, 1.69232, 0.311298, 140.845, -0.000976562, 0, 0, -0.0810547, 0.293945, -9.75977, 1.18.2022 18:20:55.963
822, 1.69232, 0.311298, 140.845, 0, 0, -0.000976562, -0.0478516, 0.28125, -9.7627, 1.18.2022 18:20:55.971
823, 1.69232, 0.311298, 140.845, -0.000976562, 0, -0.000976562, -0.108398, 0.290039, -9.79199, 1.18.2022 18:20:55.979
824, 1.69232, 0.311298, 140.845, -0.000976562, 0, -0.000976562, -0.0283203, 0.275391, -9.72754, 1.18.2022 18:20:55.987
825, 1.69232, 0.311298, 140.845, 0, 0, 0, -0.0634766, 0.255859, -9.70215, 1.18.2022 18:20:55.995
826, 1.69232, 0.311298, 140.845, 0, 0, -0.000976562, -0.0761719, 0.324219, -9.73535, 1.18.2022 18:20:56.003
827, 1.69202, 0.311351, 140.843, -0.000976562, -0.000976562, -0.00195312, -0.0117188, 0.258789, -9.7334, 1.18.2022 18:20:56.011
828, 1.69202, 0.311351, 140.843, -0.000976562, 0, -0.000976562, -0.0878906, 0.301758, -9.71875, 1.18.2022 18:20:56.019
829, 1.69202, 0.311351, 140.843, -0.000976562, 0, -0.000976562, -0.0859375, 0.293945, -9.77148, 1.18.2022 18:20:56.027
830, 1.69202, 0.311351, 140.843, -0.000976562, 0, -0.000976562, -0.0195312, 0.291016, -9.77051, 1.18.2022 18:20:56.035
831, 1.69202, 0.311351, 140.843, 0, -0.000976562, -0.000976562, -0.117188, 0.287109, -9.77539, 1.18.2022 18:20:56.043
832, 1.69202, 0.311351, 140.843, 0.000976562, -0.000976562, -0.000976562, -0.0507812, 0.291992, -9.77148, 1.18.2022 18:20:56.051
833, 1.69436, 0.31794, 140.843, 0, -0.000976562, -0.000976562, -0.0458984, 0.277344, -9.77246, 1.18.2022 18:20:56.059
834, 1.69436, 0.31794, 140.843, 0.000976562, -0.000976562, -0.000976562, -0.0732422, 0.27832, -9.72949, 1.18.2022 18:20:56.067
835, 1.69436, 0.31794, 140.843, 0, -0.000976562, -0.000976562, 0.0107422, 0.260742, -9.70801, 1.18.2022 18:20:56.075
836, 1.68778, 0.320283, 140.843, -0.000976562, -0.00195312, 0.000976562, -0.0537109, 0.287109, -9.70801, 1.18.2022 18:20:56.083
837, 1.68778, 0.320283, 140.843, 0, -0.00195312, -0.000976562, -0.0742188, 0.286133, -9.74609, 1.18.2022 18:20:56.091
838, 1.68778, 0.320283, 140.843, 0, -0.000976562, -0.000976562, -0.0263672, 0.292969, -9.73926, 1.18.2022 18:20:56.099
839, 1.68778, 0.320283, 140.843, 0, -0.000976562, -0.000976562, -0.0957031, 0.319336, -9.74902, 1.18.2022 18:20:56.107
840, 1.68778, 0.320283, 140.843, -0.000976562, 0.000976562, 0, -0.046875, 0.299805, -9.72949, 1.18.2022 18:20:56.115
841, 1.68778, 0.320283, 140.843, 0, -0.000976562, 0.000976562, -0.0400391, 0.271484, -9.74707, 1.18.2022 18:20:56.123
842, 1.68808, 0.32023, 140.845, -0.000976562, 0.000976562, 0.000976562, -0.112305, 0.311523, -9.78711, 1.18.2022 18:20:56.131
843, 1.69466, 0.317887, 140.845, -0.00195312, 0.00195312, 0, 0.00292969, 0.271484, -9.74023, 1.18.2022 18:20:56.139
844, 1.69466, 0.317887, 140.845, -0.000976562, 0.000976562, 0, -0.0878906, 0.280273, -9.72168, 1.18.2022 18:20:56.147
845, 1.69466, 0.317887, 140.845, -0.000976562, -0.00195312, -0.000976562, -0.0878906, 0.300781, -9.74316, 1.18.2022 18:20:56.155
846, 1.69466, 0.317887, 140.845, -0.000976562, -0.000976562, -0.000976562, -0.0302734, 0.297852, -9.73145, 1.18.2022 18:20:56.163
847, 1.69466, 0.317887, 140.845, -0.000976562, -0.000976562, -0.000976562, -0.104492, 0.292969, -9.74707, 1.18.2022 18:20:56.171
848, 1.69466, 0.317887, 140.845, 0, -0.000976562, -0.000976562, -0.0498047, 0.299805, -9.72168, 1.18.2022 18:20:56.179
849, 1.69701, 0.324475, 140.845, -0.000976562, -0.000976562, -0.000976562, -0.0527344, 0.28125, -9.74414, 1.18.2022 18:20:56.187
850, 1.69701, 0.324475, 140.845, -0.000976562, -0.000976562, -0.000976562, -0.119141, 0.310547, -9.75586, 1.18.2022 18:20:56.195
851, 1.69701, 0.324475, 140.845, 0, -0.00195312, 0.000976562, -0.0146484, 0.25293, -9.75977, 1.18.2022 18:20:56.203
852, 1.69701, 0.324475, 140.845, 0, -0.00195312, -0.000976562, -0.0898438, 0.299805, -9.73535, 1.18.2022 18:20:56.211
853, 1.69935, 0.331064, 140.845, -0.000976562, -0.00195312, -0.000976562, -0.0888672, 0.294922, -9.80176, 1.18.2022 18:20:56.219
854, 1.69935, 0.331064, 140.845, 0, -0.00195312, -0.000976562, -0.0205078, 0.296875, -9.7207, 1.18.2022 18:20:56.227
855, 1.69935, 0.331064, 140.845, 0, -0.000976562, -0.000976562, -0.0888672, 0.295898, -9.7666, 1.18.2022 18:20:56.235
856, 1.70169, 0.337653, 140.845, -0.000976562, 0.000976562, 0, -0.0478516, 0.304688, -9.74121, 1.18.2022 18:20:56.243
857, 1.70169, 0.337653, 140.845, -0.000976562, -0.000976562, -0.000976562, -0.0302734, 0.28125, -9.73438, 1.18.2022 18:20:56.251
858, 1.70169, 0.337653, 140.845, 0, -0.00195312, -0.000976562, -0.0830078, 0.288086, -9.73828, 1.18.2022 18:20:56.259
859, 1.70169, 0.337653, 140.845, 0, -0.000976562, -0.000976562, -0.0136719, 0.290039, -9.71777, 1.18.2022 18:20:56.267
860, 1.70169, 0.337653, 140.845, -0.000976562, -0.000976562, -0.000976562, -0.0546875, 0.269531, -9.75391, 1.18.2022 18:20:56.275
861, 1.70169, 0.337653, 140.845, -0.000976562, -0.000976562, 0.000976562, -0.0537109, 0.289062, -9.69824, 1.18.2022 18:20:56.283
862, 1.70169, 0.337653, 140.845, -0.000976562, -0.000976562, -0.000976562, 0.0146484, 0.283203, -9.75, 1.18.2022 18:20:56.291
863, 1.70169, 0.337653, 140.845, 0, 0, -0.000976562, -0.0996094, 0.292969, -9.7334, 1.18.2022 18:20:56.299
864, 1.69935, 0.331064, 140.845, 0, 0, -0.000976562, -0.0498047, 0.292969, -9.72949, 1.18.2022 18:20:56.307
865, 1.69935, 0.331064, 140.845, 0, 0.000976562, -0.000976562, -0.0263672, 0.264648, -9.76562, 1.18.2022 18:20:56.315
866, 1.69935, 0.331064, 140.845, 0, 0, 0, -0.0908203, 0.298828, -9.77539, 1.18.2022 18:20:56.323
867, 1.69935, 0.331064, 140.845, 0, -0.00195312, -0.000976562, -0.0283203, 0.266602, -9.73047, 1.18.2022 18:20:56.331
868, 1.69935, 0.331064, 140.845, -0.000976562, -0.00195312, -0.000976562, -0.078125, 0.268555, -9.73438, 1.18.2022 18:20:56.339
869, 1.69935, 0.331064, 140.845, -0.000976562, -0.00195312, -0.000976562, -0.0683594, 0.313477, -9.71387, 1.18.2022 18:20:56.347
870, 1.69935, 0.331064, 140.845, -0.000976562, 0, -0.000976562, -0.0078125, 0.282227, -9.77246, 1.18.2022 18:20:56.355
871, 1.69935, 0.331064, 140.845, -0.000976562, 0, -0.000976562, -0.0742188, 0.28418, -9.7666, 1.18.2022 18:20:56.363
872, 1.69935, 0.331064, 140.845, 0, 0, -0.000976562, -0.0449219, 0.30957, -9.72168, 1.18.2022 18:20:56.371
873, 1.69701, 0.324475, 140.845, -0.000976562, 0, 0, -0.0371094, 0.250977, -9.70508, 1.18.2022 18:20:56.379
874, 1.69701, 0.324475, 140.845, -0.000976562, 0, 0, -0.0761719, 0.304688, -9.72656, 1.18.2022 18:20:56.387
875, 1.69701, 0.324475, 140.845, 0, 0.000976562, 0, -0.00683594, 0.299805, -9.73242, 1.18.2022 18:20:56.395
876, 1.69701, 0.324475, 140.845, 0, 0, 0, -0.0507812, 0.296875, -9.77637, 1.18.2022 18:20:56.403
877, 1.70359, 0.322132, 140.845, -0.000976562, 0, 0, -0.0927734, 0.299805, -9.73828, 1.18.2022 18:20:56.411
878, 1.70351, 0.322041, 140.837, -0.000976562, 0, -0.000976562, -0.0458984, 0.282227, -9.76758, 1.18.2022 18:20:56.419
879, 1.70351, 0.322041, 140.837, 0.000976562, 0, 0, -0.114258, 0.299805, -9.73535, 1.18.2022 18:20:56.427
880, 1.70351, 0.322041, 140.837, 0, -0.00195312, 0, -0.0449219, 0.286133, -9.75098, 1.18.2022 18:20:56.435
881, 1.70351, 0.322041, 140.837, 0, -0.00195312, -0.000976562, -0.0380859, 0.261719, -9.74023, 1.18.2022 18:20:56.443
882, 1.69692, 0.324385, 140.837, -0.000976562, 0, -0.000976562, -0.114258, 0.28125, -9.75488, 1.18.2022 18:20:56.451
883, 1.69692, 0.324385, 140.837, -0.000976562, 0, -0.000976562, -0.0332031, 0.276367, -9.74414, 1.18.2022 18:20:56.459
884, 1.69692, 0.324385, 140.837, 0, 0, 0, -0.0595703, 0.291016, -9.75098, 1.18.2022 18:20:56.467
885, 1.69692, 0.324385, 140.837, 0, -0.00195312, -0.000976562, -0.0859375, 0.279297, -9.75781, 1.18.2022 18:20:56.475
886, 1.69692, 0.324385, 140.837, -0.000976562, 0.000976562, -0.000976562, -0.03125, 0.246094, -9.76172, 1.18.2022 18:20:56.483
887, 1.69692, 0.324385, 140.837, -0.000976562, 0.000976562, 0, -0.0927734, 0.261719, -9.74609, 1.18.2022 18:20:56.491
888, 1.69692, 0.324385, 140.837, -0.000976562, 0, -0.000976562, -0.0566406, 0.287109, -9.71289, 1.18.2022 18:20:56.499
889, 1.69033, 0.326728, 140.837, 0, 0, -0.000976562, -0.0117188, 0.258789, -9.73047, 1.18.2022 18:20:56.507
890, 1.69033, 0.326728, 140.837, 0, -0.00195312, 0, -0.104492, 0.30957, -9.7207, 1.18.2022 18:20:56.515
891, 1.69033, 0.326728, 140.837, 0, 0.000976562, -0.000976562, -0.0380859, 0.28125, -9.7627, 1.18.2022 18:20:56.523
892, 1.69033, 0.326728, 140.837, 0, 0, 0, -0.0478516, 0.274414, -9.76562, 1.18.2022 18:20:56.529
893, 1.68375, 0.329072, 140.837, -0.000976562, 0, 0, -0.0908203, 0.304688, -9.74512, 1.18.2022 18:20:56.537
894, 1.68375, 0.329072, 140.837, -0.000976562, 0, -0.000976562, -0.0576172, 0.245117, -9.75195, 1.18.2022 18:20:56.545
895, 1.68375, 0.329072, 140.837, 0, 0, -0.000976562, -0.0761719, 0.261719, -9.72949, 1.18.2022 18:20:56.555
896, 1.68375, 0.329072, 140.837, 0, 0.000976562, -0.000976562, -0.0419922, 0.288086, -9.71973, 1.18.2022 18:20:56.561
897, 1.67716, 0.331415, 140.837, 0, -0.000976562, -0.00195312, -0.00195312, 0.273438, -9.73047, 1.18.2022 18:20:56.569
898, 1.67716, 0.331415, 140.837, 0, 0, -0.000976562, -0.0947266, 0.303711, -9.69727, 1.18.2022 18:20:56.577
899, 1.67716, 0.331415, 140.837, -0.000976562, -0.00195312, -0.000976562, -0.0380859, 0.271484, -9.73535, 1.18.2022 18:20:56.585
900, 1.67716, 0.331415, 140.837, -0.000976562, -0.000976562, -0.00195312, -0.0429688, 0.277344, -9.76562, 1.18.2022 18:20:56.593
901, 1.67724, 0.331505, 140.845, -0.000976562, 0, -0.000976562, -0.115234, 0.300781, -9.77344, 1.18.2022 18:20:56.601
902, 1.67724, 0.331505, 140.845, 0, 0, -0.000976562, -0.00195312, 0.295898, -9.75391, 1.18.2022 18:20:56.609
903, 1.67724, 0.331505, 140.845, -0.000976562, 0, -0.000976562, -0.0732422, 0.302734, -9.74316, 1.18.2022 18:20:56.617
904, 1.67724, 0.331505, 140.845, -0.000976562, 0.000976562, -0.000976562, -0.0546875, 0.313477, -9.71973, 1.18.2022 18:20:56.625
905, 1.67724, 0.331505, 140.845, -0.000976562, -0.00195312, 0, -0.0244141, 0.265625, -9.78516, 1.18.2022 18:20:56.633
906, 1.67724, 0.331505, 140.845, -0.000976562, -0.00195312, -0.000976562, -0.0878906, 0.294922, -9.72656, 1.18.2022 18:20:56.641
907, 1.67724, 0.331505, 140.845, -0.000976562, -0.000976562, -0.00195312, -0.0214844, 0.273438, -9.74219, 1.18.2022 18:20:56.649
908, 1.67724, 0.331505, 140.845, -0.000976562, 0, -0.000976562, -0.0332031, 0.300781, -9.75293, 1.18.2022 18:20:56.657
909, 1.68383, 0.329162, 140.845, -0.000976562, 0, -0.000976562, -0.0947266, 0.323242, -9.72266, 1.18.2022 18:20:56.665
910, 1.68383, 0.329162, 140.845, 0, 0, -0.000976562, -0.00878906, 0.27832, -9.71582, 1.18.2022 18:20:56.673
911, 1.68383, 0.329162, 140.845, 0, 0, -0.000976562, -0.0634766, 0.270508, -9.71289, 1.18.2022 18:20:56.681
912, 1.68149, 0.322573, 140.845, -0.000976562, 0, -0.000976562, -0.078125, 0.291016, -9.73633, 1.18.2022 18:20:56.689
913, 1.68149, 0.322573, 140.845, -0.000976562, 0, 0, -0.00878906, 0.270508, -9.71191, 1.18.2022 18:20:56.697
914, 1.68149, 0.322573, 140.845, 0, 0, -0.000976562, -0.0976562, 0.295898, -9.75, 1.18.2022 18:20:56.705
915, 1.68149, 0.322573, 140.845, -0.000976562, 0, -0.000976562, -0.0253906, 0.303711, -9.71484, 1.18.2022 18:20:56.713
916, 1.68119, 0.322626, 140.843, 0, 0, -0.000976562, -0.0615234, 0.286133, -9.73633, 1.18.2022 18:20:56.721
917, 1.68778, 0.320283, 140.843, 0, 0.000976562, -0.000976562, -0.0732422, 0.297852, -9.7334, 1.18.2022 18:20:56.729
918, 1.68778, 0.320283, 140.843, 0, 0, -0.000976562, -0.00488281, 0.276367, -9.75879, 1.18.2022 18:20:56.737
919, 1.68778, 0.320283, 140.843, -0.000976562, 0, -0.000976562, -0.0527344, 0.270508, -9.7793, 1.18.2022 18:20:56.745
920, 1.68778, 0.320283, 140.843, 0, 0, -0.000976562, -0.0566406, 0.286133, -9.74316, 1.18.2022 18:20:56.753
921, 1.68544, 0.313694, 140.844, 0, 0, -0.000976562, -0.00488281, 0.269531, -9.75, 1.18.2022 18:20:56.761
922, 1.68544, 0.313694, 140.844, -0.000976562, 0, -0.000976562, -0.109375, 0.300781, -9.75879, 1.18.2022 18:20:56.769
923, 1.68544, 0.313694, 140.844, -0.000976562, -0.00195312, -0.000976562, -0.03125, 0.286133, -9.74414, 1.18.2022 18:20:56.777
924, 1.68544, 0.313694, 140.844, -0.00195312, -0.00195312, -0.000976562, -0.0302734, 0.285156, -9.70605, 1.18.2022 18:20:56.785
925, 1.68544, 0.313694, 140.844, 0, -0.00195312, -0.000976562, -0.0976562, 0.302734, -9.75195, 1.18.2022 18:20:56.793
926, 1.68544, 0.313694, 140.844, 0, 0, 0, -0.0214844, 0.267578, -9.77539, 1.18.2022 18:20:56.801
927, 1.68544, 0.313694, 140.844, 0, 0, -0.000976562, -0.0625, 0.295898, -9.76172, 1.18.2022 18:20:56.809
928, 1.68544, 0.313694, 140.844, 0, 0.000976562, -0.00195312, -0.0732422, 0.306641, -9.72852, 1.18.2022 18:20:56.817
929, 1.68544, 0.313694, 140.844, 0, 0, -0.000976562, -0.0449219, 0.297852, -9.74609, 1.18.2022 18:20:56.825
930, 1.69202, 0.311351, 140.843, -0.000976562, 0, 0, -0.135742, 0.299805, -9.7207, 1.18.2022 18:20:56.833
931, 1.69202, 0.311351, 140.843, -0.000976562, 0, 0, -0.078125, 0.296875, -9.72363, 1.18.2022 18:20:56.841
932, 1.69202, 0.311351, 140.843, 0, 0, -0.000976562, -0.0478516, 0.291016, -9.75293, 1.18.2022 18:20:56.849
933, 1.69436, 0.31794, 140.843, 0, 0.000976562, 0, -0.125977, 0.30957, -9.7207, 1.18.2022 18:20:56.857
934, 1.69436, 0.31794, 140.843, 0, 0.000976562, 0, 0, 0.302734, -9.75586, 1.18.2022 18:20:56.865
935, 1.69436, 0.31794, 140.843, -0.000976562, 0, 0.000976562, -0.0644531, 0.28125, -9.75977, 1.18.2022 18:20:56.873
936, 1.69436, 0.31794, 140.843, -0.000976562, 0, 0.000976562, -0.0625, 0.307617, -9.76465, 1.18.2022 18:20:56.881
937, 1.69436, 0.31794, 140.843, 0, 0, 0.000976562, -0.0117188, 0.254883, -9.75488, 1.18.2022 18:20:56.889
938, 1.69436, 0.31794, 140.843, -0.000976562, 0, 0, -0.0644531, 0.292969, -9.73145, 1.18.2022 18:20:56.897
939, 1.70359, 0.322132, 140.845, -0.000976562, 0, 0.000976562, -0.0351562, 0.296875, -9.72754, 1.18.2022 18:20:56.905
940, 1.70125, 0.315544, 140.845, -0.000976562, -0.000976562, 0.000976562, -0.0283203, 0.286133, -9.74609, 1.18.2022 18:20:56.913
941, 1.70359, 0.322132, 140.845, -0.000976562, 0, 0, -0.0644531, 0.307617, -9.7334, 1.18.2022 18:20:56.921
942, 1.70125, 0.315544, 140.845, -0.000976562, 0, 0, -0.0136719, 0.31543, -9.70312, 1.18.2022 18:20:56.929
943, 1.70125, 0.315544, 140.845, 0, 0.000976562, 0, -0.0371094, 0.293945, -9.70312, 1.18.2022 18:20:56.937
944, 1.70784, 0.3132, 140.845, 0, 0, 0.000976562, -0.0644531, 0.300781, -9.76172, 1.18.2022 18:20:56.945
945, 1.70784, 0.3132, 140.845, -0.000976562, 0, 0, 0.0146484, 0.302734, -9.74414, 1.18.2022 18:20:56.953
946, 1.70784, 0.3132, 140.845, 0, 0, -0.000976562, -0.107422, 0.298828, -9.75879, 1.18.2022 18:20:56.961
947, 1.71443, 0.310857, 140.845, -0.000976562, 0, 0, -0.0712891, 0.316406, -9.7334, 1.18.2022 18:20:56.969
948, 1.71443, 0.310857, 140.845, -0.000976562, 0, 0, -0.0244141, 0.28125, -9.7627, 1.18.2022 18:20:56.977
949, 1.71443, 0.310857, 140.845, 0, 0, -0.000976562, -0.0810547, 0.295898, -9.75977, 1.18.2022 18:20:56.985
950, 1.71443, 0.310857, 140.845, 0, 0.000976562, -0.00195312, -0.00488281, 0.288086, -9.73242, 1.18.2022 18:20:56.993
951, 1.71867, 0.301925, 140.845, -0.000976562, 0, 0, -0.0566406, 0.292969, -9.74805, 1.18.2022 18:20:57.001
952, 1.71867, 0.301925, 140.845, 0, 0, -0.000976562, -0.0595703, 0.280273, -9.72461, 1.18.2022 18:20:57.009
953, 1.71867, 0.301925, 140.845, -0.000976562, -0.000976562, -0.000976562, 0.00488281, 0.276367, -9.76172, 1.18.2022 18:20:57.017
954, 1.71867, 0.301925, 140.845, -0.000976562, 0.000976562, 0, -0.102539, 0.28418, -9.76855, 1.18.2022 18:20:57.025
955, 1.71867, 0.301925, 140.845, 0, 0, -0.000976562, -0.0527344, 0.297852, -9.75488, 1.18.2022 18:20:57.033
956, 1.71867, 0.301925, 140.845, -0.000976562, 0, 0, -0.0449219, 0.302734, -9.73828, 1.18.2022 18:20:57.041
957, 1.71867, 0.301925, 140.845, 0, 0, -0.000976562, -0.0947266, 0.307617, -9.73535, 1.18.2022 18:20:57.049
958, 1.71867, 0.301925, 140.845, 0, 0, -0.000976562, -0.0136719, 0.285156, -9.73242, 1.18.2022 18:20:57.057
959, 1.71867, 0.301925, 140.845, -0.000976562, -0.000976562, 0, -0.0566406, 0.242188, -9.72363, 1.18.2022 18:20:57.065
960, 1.71867, 0.301925, 140.845, -0.000976562, -0.00195312, -0.000976562, -0.0693359, 0.291016, -9.75781, 1.18.2022 18:20:57.073
961, 1.71867, 0.301925, 140.845, -0.000976562, -0.00195312, -0.000976562, 0.00195312, 0.279297, -9.77344, 1.18.2022 18:20:57.081
962, 1.71633, 0.295337, 140.845, 0, -0.000976562, -0.000976562, -0.0615234, 0.27832, -9.71973, 1.18.2022 18:20:57.089
963, 1.71633, 0.295337, 140.845, 0, -0.000976562, -0.000976562, -0.0332031, 0.292969, -9.73438, 1.18.2022 18:20:57.097
964, 1.71633, 0.295337, 140.845, -0.000976562, -0.000976562, -0.000976562, -0.0351562, 0.288086, -9.7373, 1.18.2022 18:20:57.105
965, 1.71633, 0.295337, 140.845, -0.000976562, -0.000976562, -0.000976562, -0.125977, 0.28125, -9.75488, 1.18.2022 18:20:57.113
966, 1.71633, 0.295337, 140.845, 0, -0.000976562, 0, -0.0449219, 0.275391, -9.71777, 1.18.2022 18:20:57.121
967, 1.71633, 0.295337, 140.845, 0, 0, -0.000976562, -0.0478516, 0.295898, -9.75488, 1.18.2022 18:20:57.129
968, 1.70974, 0.29768, 140.845, 0, 0, -0.000976562, -0.0830078, 0.293945, -9.70508, 1.18.2022 18:20:57.137
969, 1.70974, 0.29768, 140.845, 0, -0.000976562, -0.000976562, -0.0166016, 0.243164, -9.75, 1.18.2022 18:20:57.145
970, 1.70974, 0.29768, 140.845, 0, -0.000976562, -0.000976562, -0.0634766, 0.300781, -9.69141, 1.18.2022 18:20:57.153
971, 1.70974, 0.29768, 140.845, -0.000976562, -0.000976562, -0.000976562, -0.0742188, 0.300781, -9.75977, 1.18.2022 18:20:57.161
972, 1.70974, 0.29768, 140.845, 0, -0.000976562, -0.000976562, -0.00683594, 0.259766, -9.73828, 1.18.2022 18:20:57.169
973, 1.70974, 0.29768, 140.845, 0, -0.000976562, -0.000976562, -0.114258, 0.298828, -9.76855, 1.18.2022 18:20:57.177
974, 1.70315, 0.300023, 140.845, -0.000976562, 0, 0, -0.00195312, 0.294922, -9.71387, 1.18.2022 18:20:57.185
975, 1.70315, 0.300023, 140.845, 0, 0, 0, -0.0302734, 0.30957, -9.73145, 1.18.2022 18:20:57.193
976, 1.70315, 0.300023, 140.845, -0.000976562, -0.000976562, -0.000976562, -0.0830078, 0.301758, -9.7168, 1.18.2022 18:20:57.201
977, 1.70315, 0.300023, 140.845, -0.000976562, -0.000976562, 0, -0.0449219, 0.265625, -9.71387, 1.18.2022 18:20:57.209
978, 1.70315, 0.300023, 140.845, -0.000976562, -0.000976562, 0, -0.0634766, 0.280273, -9.71973, 1.18.2022 18:20:57.217
979, 1.70315, 0.300023, 140.845, -0.000976562, -0.00195312, 0, -0.0576172, 0.283203, -9.80078, 1.18.2022 18:20:57.225
980, 1.70315, 0.300023, 140.845, 0, -0.000976562, 0, -0.0117188, 0.271484, -9.74023, 1.18.2022 18:20:57.233
981, 1.70307, 0.299931, 140.837, 0, -0.000976562, -0.000976562, -0.121094, 0.285156, -9.72656, 1.18.2022 18:20:57.241
982, 1.70307, 0.299931, 140.837, -0.000976562, -0.000976562, -0.000976562, -0.0507812, 0.305664, -9.76953, 1.18.2022 18:20:57.249
983, 1.70307, 0.299931, 140.837, 0, -0.000976562, 0, -0.0351562, 0.274414, -9.74414, 1.18.2022 18:20:57.257
984, 1.70307, 0.299931, 140.837, 0, -0.000976562, -0.000976562, -0.0996094, 0.276367, -9.74316, 1.18.2022 18:20:57.265
985, 1.69648, 0.302275, 140.837, 0, 0, -0.000976562, 0.00976562, 0.274414, -9.75879, 1.18.2022 18:20:57.273
986, 1.69648, 0.302275, 140.837, -0.000976562, 0, -0.000976562, -0.0644531, 0.282227, -9.76758, 1.18.2022 18:20:57.281
987, 1.69648, 0.302275, 140.837, 0, -0.000976562, -0.000976562, -0.0380859, 0.279297, -9.76074, 1.18.2022 18:20:57.289
988, 1.69648, 0.302275, 140.837, 0, -0.00195312, -0.000976562, 0.0166016, 0.27832, -9.73047, 1.18.2022 18:20:57.297
989, 1.69414, 0.295686, 140.837, -0.000976562, -0.000976562, -0.000976562, -0.0644531, 0.299805, -9.74316, 1.18.2022 18:20:57.305
990, 1.69422, 0.295778, 140.845, -0.000976562, -0.000976562, -0.000976562, -0.0595703, 0.290039, -9.73633, 1.18.2022 18:20:57.313
991, 1.69422, 0.295778, 140.845, -0.000976562, -0.000976562, -0.000976562, -0.0566406, 0.282227, -9.71582, 1.18.2022 18:20:57.321
992, 1.69422, 0.295778, 140.845, -0.000976562, -0.000976562, -0.000976562, -0.0546875, 0.297852, -9.73633, 1.18.2022 18:20:57.329
993, 1.69422, 0.295778, 140.845, 0, -0.000976562, -0.000976562, 0.0126953, 0.265625, -9.72168, 1.18.2022 18:20:57.337
994, 1.69422, 0.295778, 140.845, 0, -0.00195312, -0.000976562, -0.0693359, 0.261719, -9.74902, 1.18.2022 18:20:57.345
995, 1.69188, 0.289189, 140.846, 0, -0.000976562, -0.000976562, -0.0693359, 0.273438, -9.73926, 1.18.2022 18:20:57.353
996, 1.68529, 0.291532, 140.846, -0.000976562, -0.000976562, -0.000976562, 0.00292969, 0.256836, -9.72461, 1.18.2022 18:20:57.361
997, 1.68529, 0.291532, 140.846, -0.000976562, -0.000976562, -0.000976562, -0.100586, 0.303711, -9.77539, 1.18.2022 18:20:57.369
998, 1.68529, 0.291532, 140.846, -0.000976562, -0.000976562, -0.000976562, -0.0429688, 0.28125, -9.75781, 1.18.2022 18:20:57.377
999, 1.68529, 0.291532, 140.846, -0.000976562, -0.000976562, 0, -0.0595703, 0.28125, -9.74414, 1.18.2022 18:20:57.385
1000, 1.68529, 0.291532, 140.846, -0.000976562, -0.000976562, 0, -0.0751953, 0.285156, -9.70605, 1.18.2022 18:20:57.393
1001, 1.68529, 0.291532, 140.846, -0.000976562, -0.000976562, -0.000976562, -0.0146484, 0.282227, -9.76758, 1.18.2022 18:20:57.401
1002, 1.68529, 0.291532, 140.846, 0, -0.00195312, -0.000976562, -0.0478516, 0.289062, -9.78125, 1.18.2022 18:20:57.409
1003, 1.68529, 0.291532, 140.846, -0.000976562, -0.00195312, -0.000976562, -0.0693359, 0.3125, -9.74316, 1.18.2022 18:20:57.417
1004, 1.68529, 0.291532, 140.846, 0, -0.000976562, -0.000976562, -0.0234375, 0.275391, -9.71582, 1.18.2022 18:20:57.425
1005, 1.68295, 0.284943, 140.846, 0, -0.000976562, -0.000976562, -0.0732422, 0.27832, -9.73633, 1.18.2022 18:20:57.433
1006, 1.68529, 0.291532, 140.846, -0.000976562, -0.00195312, -0.000976562, -0.0595703, 0.291016, -9.74805, 1.18.2022 18:20:57.441
1007, 1.68529, 0.291532, 140.846, -0.000976562, -0.000976562, -0.000976562, -0.0283203, 0.298828, -9.76465, 1.18.2022 18:20:57.449
1008, 1.68529, 0.291532, 140.846, 0, -0.000976562, 0, -0.0976562, 0.275391, -9.77441, 1.18.2022 18:20:57.457
1009, 1.68529, 0.291532, 140.846, 0, 0.000976562, -0.000976562, -0.00878906, 0.280273, -9.71875, 1.18.2022 18:20:57.465
1010, 1.68529, 0.291532, 140.846, 0, -0.000976562, -0.000976562, -0.0722656, 0.306641, -9.80469, 1.18.2022 18:20:57.473
1011, 1.68529, 0.291532, 140.846, -0.000976562, -0.000976562, 0, -0.0791016, 0.298828, -9.76465, 1.18.2022 18:20:57.481
1012, 1.68529, 0.291532, 140.846, -0.00195312, -0.000976562, -0.000976562, -0.0234375, 0.266602, -9.73242, 1.18.2022 18:20:57.487
1013, 1.68529, 0.291532, 140.846, -0.000976562, -0.00195312, -0.000976562, -0.102539, 0.297852, -9.74219, 1.18.2022 18:20:57.495
1014, 1.68529, 0.291532, 140.846, 0, -0.000976562, -0.000976562, -0.046875, 0.276367, -9.73242, 1.18.2022 18:20:57.503
1015, 1.68529, 0.291532, 140.846, -0.000976562, -0.000976562, 0, -0.0283203, 0.27832, -9.73926, 1.18.2022 18:20:57.511
1016, 1.68529, 0.291532, 140.846, -0.000976562, -0.000976562, 0, -0.0996094, 0.293945, -9.70215, 1.18.2022 18:20:57.519
1017, 1.68529, 0.291532, 140.846, -0.000976562, -0.000976562, 0, -0.00878906, 0.28418, -9.69727, 1.18.2022 18:20:57.527
1018, 1.68529, 0.291532, 140.846, -0.000976562, -0.000976562, -0.000976562, -0.0595703, 0.261719, -9.74707, 1.18.2022 18:20:57.535
1019, 1.68763, 0.298121, 140.846, -0.000976562, -0.000976562, -0.000976562, -0.0712891, 0.300781, -9.74805, 1.18.2022 18:20:57.543
1020, 1.68763, 0.298121, 140.846, -0.000976562, -0.000976562, -0.000976562, -0.00683594, 0.275391, -9.72559, 1.18.2022 18:20:57.551
1021, 1.68763, 0.298121, 140.846, -0.000976562, -0.000976562, -0.000976562, -0.0791016, 0.297852, -9.75684, 1.18.2022 18:20:57.559
1022, 1.68763, 0.298121, 140.846, 0, -0.000976562, 0, -0.0791016, 0.319336, -9.75391, 1.18.2022 18:20:57.567
1023, 1.68763, 0.298121, 140.846, 0, 0, -0.000976562, -0.0292969, 0.274414, -9.77051, 1.18.2022 18:20:57.575
1024, 1.68763, 0.298121, 140.846, -0.000976562, 0, -0.000976562, -0.0927734, 0.294922, -9.71875, 1.18.2022 18:20:57.583
1025, 1.68763, 0.298121, 140.846, 0, 0, -0.000976562, -0.00195312, 0.293945, -9.71094, 1.18.2022 18:20:57.591
