Seq, Rot x, Rot y, Rot z, Vel x, Vel y, Vel z, Acc x, Acc y, Acc z, Time(m.d.y h:m:s.ms)
0, 1.83341, 0.14014, 84.8418, 0, 0, -0.000976562, -0.0732422, 0.292969, -9.74316, 1.18.2022 20:24:32.948
1, 1.83341, 0.14014, 84.8418, -0.000976562, -0.000976562, -0.000976562, 0.000976562, 0.303711, -9.71094, 1.18.2022 20:24:32.954
2, 1.83341, 0.14014, 84.8418, -0.000976562, 0, -0.000976562, -0.00488281, 0.331055, -9.75, 1.18.2022 20:24:32.962
3, 1.83341, 0.14014, 84.8418, -0.000976562, -0.000976562, -0.000976562, -0.0429688, 0.319336, -9.73828, 1.18.2022 20:24:32.970
4, 1.83341, 0.14014, 84.8418, 0, -0.000976562, -0.000976562, 0.0341797, 0.290039, -9.73535, 1.18.2022 20:24:32.978
5, 1.83341, 0.14014, 84.8418, -0.000976562, -0.00195312, -0.000976562, -0.0517578, 0.304688, -9.74121, 1.18.2022 20:24:32.986
6, 1.83341, 0.14014, 84.8418, -0.000976562, -0.000976562, -0.000976562, -0.0566406, 0.321289, -9.7334, 1.18.2022 20:24:32.994
7, 1.83341, 0.14014, 84.8418, -0.000976562, -0.000976562, 0, 0.0175781, 0.316406, -9.72266, 1.18.2022 20:24:33.002
8, 1.83318, 0.140229, 84.8423, 0, 0, -0.00195312, -0.0947266, 0.328125, -9.70898, 1.18.2022 20:24:33.010
9, 1.83342, 0.140298, 84.8521, 0, 0, -0.000976562, -0.00195312, 0.299805, -9.74219, 1.18.2022 20:24:33.018
10, 1.83342, 0.140298, 84.8521, 0, -0.000976562, -0.000976562, -0.00683594, 0.3125, -9.74805, 1.18.2022 20:24:33.026
11, 1.83342, 0.140298, 84.8521, -0.000976562, -0.000976562, -0.000976562, -0.0566406, 0.314453, -9.72852, 1.18.2022 20:24:33.034
12, 1.83342, 0.140298, 84.8521, -0.000976562, -0.000976562, -0.000976562, 0.0400391, 0.286133, -9.76855, 1.18.2022 20:24:33.042
13, 1.83342, 0.140298, 84.8521, 0, 0, -0.00195312, -0.0576172, 0.283203, -9.74805, 1.18.2022 20:24:33.050
14, 1.83342, 0.140298, 84.8521, -0.000976562, 0, -0.000976562, -0.0400391, 0.319336, -9.74805, 1.18.2022 20:24:33.058
15, 1.83342, 0.140298, 84.8521, -0.000976562, -0.000976562, -0.000976562, -0.00683594, 0.300781, -9.75098, 1.18.2022 20:24:33.066
16, 1.83342, 0.140298, 84.8521, 0, -0.000976562, 0, -0.0498047, 0.332031, -9.75391, 1.18.2022 20:24:33.074
17, 1.83319, 0.140386, 84.8526, -0.000976562, 0, 0, -0.0283203, 0.326172, -9.73145, 1.18.2022 20:24:33.082
18, 1.83319, 0.140386, 84.8526, 0, -0.000976562, 0, 0.00585938, 0.290039, -9.71875, 1.18.2022 20:24:33.090
19, 1.83343, 0.140455, 84.8625, -0.000976562, -0.000976562, 0, -0.0634766, 0.324219, -9.73047, 1.18.2022 20:24:33.098
20, 1.83343, 0.140455, 84.8625, 0, -0.000976562, 0, 0.0361328, 0.301758, -9.71875, 1.18.2022 20:24:33.106
21, 1.83343, 0.140455, 84.8625, 0, -0.000976562, 0, -0.0136719, 0.324219, -9.73633, 1.18.2022 20:24:33.114
22, 1.83343, 0.140455, 84.8625, -0.000976562, 0, 0, -0.0517578, 0.321289, -9.72852, 1.18.2022 20:24:33.122
23, 1.83343, 0.140455, 84.8625, -0.00195312, -0.000976562, 0, 0.0341797, 0.287109, -9.72363, 1.18.2022 20:24:33.130
24, 1.83343, 0.140455, 84.8625, -0.000976562, -0.000976562, 0, -0.0595703, 0.327148, -9.77051, 1.18.2022 20:24:33.138
25, 1.8332, 0.140544, 84.8629, -0.000976562, -0.000976562, 0, -0.0400391, 0.310547, -9.75293, 1.18.2022 20:24:33.146
26, 1.8332, 0.140544, 84.8629, 0, 0, 0, 0.00292969, 0.299805, -9.73926, 1.18.2022 20:24:33.154
27, 1.83344, 0.140613, 84.8728, -0.000976562, -0.000976562, 0, -0.0527344, 0.338867, -9.76074, 1.18.2022 20:24:33.162
28, 1.83344, 0.140613, 84.8728, -0.000976562, -0.00195312, 0, 0.0449219, 0.310547, -9.76855, 1.18.2022 20:24:33.170
29, 1.83344, 0.140613, 84.8728, 0, -0.000976562, 0, -0.00976562, 0.313477, -9.77637, 1.18.2022 20:24:33.178
30, 1.83344, 0.140613, 84.8728, -0.000976562, -0.000976562, -0.00195312, -0.0537109, 0.323242, -9.71191, 1.18.2022 20:24:33.186
31, 1.83344, 0.140613, 84.8728, -0.000976562, -0.000976562, 0, 0.0458984, 0.285156, -9.7168, 1.18.2022 20:24:33.194
32, 1.83344, 0.140613, 84.8728, -0.000976562, 0, 0, -0.0478516, 0.314453, -9.74805, 1.18.2022 20:24:33.202
33, 1.83344, 0.140613, 84.8728, -0.000976562, 0, 0, -0.00878906, 0.306641, -9.7041, 1.18.2022 20:24:33.210
34, 1.83321, 0.140701, 84.8733, 0, 0, 0, 0.0214844, 0.297852, -9.7373, 1.18.2022 20:24:33.218
35, 1.83321, 0.140701, 84.8733, 0, -0.000976562, 0, -0.078125, 0.316406, -9.72363, 1.18.2022 20:24:33.226
36, 1.83321, 0.140701, 84.8733, 0, -0.000976562, 0, 0, 0.307617, -9.75586, 1.18.2022 20:24:33.234
37, 1.83321, 0.140701, 84.8733, -0.000976562, -0.000976562, 0, -0.00976562, 0.304688, -9.74902, 1.18.2022 20:24:33.242
38, 1.83321, 0.140701, 84.8733, -0.000976562, 0, 0, -0.0380859, 0.331055, -9.74316, 1.18.2022 20:24:33.250
39, 1.83321, 0.140701, 84.8733, -0.000976562, -0.000976562, 0, 0.0283203, 0.291016, -9.75195, 1.18.2022 20:24:33.258
40, 1.83321, 0.140701, 84.8733, -0.000976562, -0.000976562, 0, -0.0214844, 0.319336, -9.73145, 1.18.2022 20:24:33.266
41, 1.83321, 0.140701, 84.8733, 0, 0, -0.00195312, -0.0351562, 0.318359, -9.7168, 1.18.2022 20:24:33.274
42, 1.83321, 0.140701, 84.8733, 0, 0, 0, 0.0263672, 0.289062, -9.75879, 1.18.2022 20:24:33.280
43, 1.82805, 0.135982, 84.8734, -0.000976562, 0, 0, -0.0664062, 0.331055, -9.71875, 1.18.2022 20:24:33.290
44, 1.82805, 0.135982, 84.8734, -0.000976562, -0.000976562, 0, -0.0146484, 0.307617, -9.75293, 1.18.2022 20:24:33.296
45, 1.82805, 0.135982, 84.8734, -0.000976562, -0.000976562, 0, -0.00292969, 0.295898, -9.77539, 1.18.2022 20:24:33.304
46, 1.82805, 0.135982, 84.8734, 0, 0, 0, -0.0917969, 0.313477, -9.68848, 1.18.2022 20:24:33.312
47, 1.82805, 0.135982, 84.8734, -0.000976562, 0, 0, 0, 0.311523, -9.73633, 1.18.2022 20:24:33.320
48, 1.82805, 0.135982, 84.8734, -0.000976562, -0.00195312, 0, -0.0117188, 0.297852, -9.75586, 1.18.2022 20:24:33.328
49, 1.82805, 0.135982, 84.8734, 0, -0.000976562, 0, -0.0478516, 0.327148, -9.74707, 1.18.2022 20:24:33.336
50, 1.82805, 0.135982, 84.8734, 0, 0, 0, 0.0214844, 0.295898, -9.75391, 1.18.2022 20:24:33.344
51, 1.82805, 0.135982, 84.8734, -0.000976562, -0.000976562, 0, -0.0566406, 0.307617, -9.7334, 1.18.2022 20:24:33.352
52, 1.82805, 0.135982, 84.8734, -0.000976562, -0.000976562, 0, -0.0302734, 0.337891, -9.70703, 1.18.2022 20:24:33.360
53, 1.82805, 0.135982, 84.8734, 0, -0.000976562, -0.00195312, 0, 0.307617, -9.75098, 1.18.2022 20:24:33.368
54, 1.82805, 0.135982, 84.8734, 0, -0.000976562, 0, -0.0830078, 0.329102, -9.75391, 1.18.2022 20:24:33.376
55, 1.82805, 0.135982, 84.8734, 0, -0.000976562, 0, 0.0146484, 0.306641, -9.72754, 1.18.2022 20:24:33.384
56, 1.82805, 0.135982, 84.8734, 0, -0.000976562, 0, 0.00195312, 0.300781, -9.77246, 1.18.2022 20:24:33.392
57, 1.82805, 0.135982, 84.8734, 0, 0, 0, -0.0625, 0.308594, -9.79492, 1.18.2022 20:24:33.400
58, 1.82828, 0.135894, 84.873, -0.000976562, 0, 0.000976562, 0.0380859, 0.302734, -9.75684, 1.18.2022 20:24:33.408
59, 1.82828, 0.135894, 84.873, 0, 0, 0, -0.0400391, 0.296875, -9.70117, 1.18.2022 20:24:33.416
60, 1.82828, 0.135894, 84.873, 0, -0.000976562, 0, -0.0449219, 0.306641, -9.72949, 1.18.2022 20:24:33.424
61, 1.82828, 0.135894, 84.873, -0.000976562, -0.000976562, 0, 0.0166016, 0.289062, -9.76562, 1.18.2022 20:24:33.432
62, 1.82828, 0.135894, 84.873, -0.000976562, 0, 0, -0.0615234, 0.310547, -9.75195, 1.18.2022 20:24:33.440
63, 1.82828, 0.135894, 84.873, -0.000976562, -0.000976562, 0, 0.00292969, 0.342773, -9.73633, 1.18.2022 20:24:33.448
64, 1.82828, 0.135894, 84.873, -0.000976562, -0.000976562, 0.000976562, -0.0390625, 0.305664, -9.69336, 1.18.2022 20:24:33.456
65, 1.82828, 0.135894, 84.873, -0.000976562, 0, 0, -0.0800781, 0.349609, -9.71582, 1.18.2022 20:24:33.464
66, 1.82828, 0.135894, 84.873, -0.000976562, -0.000976562, 0, 0.0341797, 0.290039, -9.7334, 1.18.2022 20:24:33.472
67, 1.82828, 0.135894, 84.873, 0, -0.000976562, 0, -0.0302734, 0.291992, -9.69238, 1.18.2022 20:24:33.480
68, 1.82828, 0.135894, 84.873, 0, -0.000976562, 0, -0.0361328, 0.325195, -9.76465, 1.18.2022 20:24:33.488
69, 1.82828, 0.135894, 84.873, 0, -0.00195312, 0, 0.0185547, 0.308594, -9.77734, 1.18.2022 20:24:33.496
70, 1.82828, 0.135894, 84.873, 0, -0.000976562, -0.00195312, -0.0859375, 0.319336, -9.74902, 1.18.2022 20:24:33.504
71, 1.82828, 0.135894, 84.873, -0.000976562, 0, 0, -0.0234375, 0.337891, -9.73047, 1.18.2022 20:24:33.512
72, 1.82828, 0.135894, 84.873, -0.00195312, 0, 0, -0.0185547, 0.294922, -9.73242, 1.18.2022 20:24:33.520
73, 1.82828, 0.135894, 84.873, -0.000976562, -0.000976562, 0, -0.0712891, 0.335938, -9.7207, 1.18.2022 20:24:33.528
74, 1.82828, 0.135894, 84.873, -0.000976562, -0.000976562, -0.00195312, -0.0166016, 0.306641, -9.73145, 1.18.2022 20:24:33.536
75, 1.82828, 0.135894, 84.873, 0, -0.00195312, -0.00195312, -0.0253906, 0.311523, -9.72266, 1.18.2022 20:24:33.544
76, 1.82828, 0.135894, 84.873, -0.000976562, -0.000976562, 0, -0.0332031, 0.333008, -9.72363, 1.18.2022 20:24:33.552
77, 1.82804, 0.135825, 84.8631, -0.000976562, -0.000976562, 0, 0.0361328, 0.282227, -9.71191, 1.18.2022 20:24:33.560
78, 1.82804, 0.135825, 84.8631, -0.000976562, 0, 0, -0.0683594, 0.323242, -9.72363, 1.18.2022 20:24:33.568
79, 1.82804, 0.135825, 84.8631, -0.000976562, 0, -0.000976562, -0.0498047, 0.30957, -9.72168, 1.18.2022 20:24:33.576
80, 1.82804, 0.135825, 84.8631, 0, -0.000976562, 0, 0.00488281, 0.283203, -9.74902, 1.18.2022 20:24:33.584
81, 1.82827, 0.135737, 84.8626, -0.000976562, -0.000976562, -0.000976562, -0.078125, 0.30957, -9.74219, 1.18.2022 20:24:33.592
82, 1.82827, 0.135737, 84.8626, -0.000976562, 0, 0, -0.00195312, 0.319336, -9.75586, 1.18.2022 20:24:33.600
83, 1.82827, 0.135737, 84.8626, 0, -0.000976562, 0, -0.015625, 0.311523, -9.71484, 1.18.2022 20:24:33.608
84, 1.82827, 0.135737, 84.8626, -0.000976562, 0, 0, -0.0566406, 0.34082, -9.72559, 1.18.2022 20:24:33.616
85, 1.82827, 0.135737, 84.8626, -0.000976562, -0.000976562, 0, 0.0195312, 0.288086, -9.73535, 1.18.2022 20:24:33.624
86, 1.82827, 0.135737, 84.8626, -0.000976562, 0, 0.000976562, -0.0478516, 0.304688, -9.74805, 1.18.2022 20:24:33.632
87, 1.82827, 0.135737, 84.8626, -0.000976562, -0.000976562, 0.000976562, -0.0351562, 0.314453, -9.7334, 1.18.2022 20:24:33.640
88, 1.82827, 0.135737, 84.8626, 0, -0.000976562, 0, 0.0273438, 0.298828, -9.70898, 1.18.2022 20:24:33.648
89, 1.82827, 0.135737, 84.8626, 0, 0, 0, -0.0761719, 0.310547, -9.75195, 1.18.2022 20:24:33.656
90, 1.82827, 0.135737, 84.8626, -0.000976562, 0, 0, -0.0078125, 0.300781, -9.77246, 1.18.2022 20:24:33.664
91, 1.82827, 0.135737, 84.8626, -0.000976562, -0.000976562, 0, -0.0166016, 0.300781, -9.77734, 1.18.2022 20:24:33.672
92, 1.82827, 0.135737, 84.8626, -0.000976562, -0.000976562, 0, -0.0810547, 0.325195, -9.77051, 1.18.2022 20:24:33.680
93, 1.82827, 0.135737, 84.8626, -0.000976562, 0, 0, 0.0185547, 0.289062, -9.76855, 1.18.2022 20:24:33.688
94, 1.82827, 0.135737, 84.8626, -0.000976562, -0.000976562, -0.000976562, -0.03125, 0.303711, -9.77148, 1.18.2022 20:24:33.696
95, 1.83299, 0.130576, 84.8626, -0.00195312, 0, 0, -0.0429688, 0.321289, -9.73535, 1.18.2022 20:24:33.704
96, 1.83299, 0.130576, 84.8626, -0.000976562, 0, 0, 0.0224609, 0.285156, -9.71387, 1.18.2022 20:24:33.712
97, 1.83299, 0.130576, 84.8626, 0, 0, 0, -0.0761719, 0.30957, -9.74219, 1.18.2022 20:24:33.720
98, 1.83299, 0.130576, 84.8626, -0.000976562, 0, 0, -0.0185547, 0.328125, -9.72656, 1.18.2022 20:24:33.728
99, 1.83299, 0.130576, 84.8626, 0, 0, 0.000976562, -0.0117188, 0.311523, -9.71777, 1.18.2022 20:24:33.736
100, 1.83274, 0.130506, 84.8528, -0.000976562, 0, 0.000976562, -0.0878906, 0.333984, -9.7373, 1.18.2022 20:24:33.744
101, 1.83298, 0.130418, 84.8523, -0.000976562, 0, 0, 0.0214844, 0.329102, -9.76758, 1.18.2022 20:24:33.752
102, 1.83298, 0.130418, 84.8523, -0.000976562, -0.000976562, 0, 0.00488281, 0.314453, -9.74414, 1.18.2022 20:24:33.760
103, 1.83298, 0.130418, 84.8523, 0, -0.000976562, 0, -0.0810547, 0.339844, -9.77441, 1.18.2022 20:24:33.768
104, 1.83298, 0.130418, 84.8523, -0.000976562, 0, 0, 0.00683594, 0.30957, -9.74609, 1.18.2022 20:24:33.776
105, 1.83298, 0.130418, 84.8523, -0.000976562, 0, 0, -0.0498047, 0.290039, -9.71094, 1.18.2022 20:24:33.784
106, 1.83298, 0.130418, 84.8523, -0.000976562, 0, 0, -0.0136719, 0.319336, -9.73438, 1.18.2022 20:24:33.792
107, 1.83298, 0.130418, 84.8523, -0.000976562, -0.000976562, 0.000976562, -0.00878906, 0.304688, -9.71777, 1.18.2022 20:24:33.800
108, 1.83298, 0.130418, 84.8523, 0, -0.000976562, 0, -0.0595703, 0.335938, -9.74414, 1.18.2022 20:24:33.808
109, 1.83298, 0.130418, 84.8523, -0.000976562, -0.000976562, -0.000976562, -0.0117188, 0.291016, -9.7627, 1.18.2022 20:24:33.816
110, 1.83298, 0.130418, 84.8523, -0.000976562, 0, 0, -0.0117188, 0.288086, -9.75391, 1.18.2022 20:24:33.824
111, 1.83298, 0.130418, 84.8523, -0.00195312, -0.000976562, 0, -0.0576172, 0.307617, -9.76172, 1.18.2022 20:24:33.832
112, 1.83298, 0.130418, 84.8523, -0.000976562, -0.000976562, -0.000976562, 0.0410156, 0.307617, -9.74707, 1.18.2022 20:24:33.840
113, 1.83298, 0.130418, 84.8523, -0.000976562, -0.000976562, -0.000976562, -0.0449219, 0.321289, -9.71973, 1.18.2022 20:24:33.848
114, 1.83297, 0.130261, 84.842, -0.000976562, 0, 0.000976562, -0.0214844, 0.317383, -9.75293, 1.18.2022 20:24:33.856
115, 1.83297, 0.130261, 84.842, -0.00195312, 0, 0.000976562, -0.00683594, 0.311523, -9.72754, 1.18.2022 20:24:33.864
116, 1.83297, 0.130261, 84.842, 0, 0, -0.000976562, -0.0830078, 0.307617, -9.7334, 1.18.2022 20:24:33.872
117, 1.83297, 0.130261, 84.842, -0.000976562, -0.000976562, -0.000976562, 0.00976562, 0.314453, -9.73242, 1.18.2022 20:24:33.880
118, 1.83297, 0.130261, 84.842, 0, -0.000976562, -0.000976562, 0.0146484, 0.313477, -9.71582, 1.18.2022 20:24:33.888
119, 1.83297, 0.130261, 84.842, 0, -0.000976562, -0.000976562, -0.0595703, 0.31543, -9.75977, 1.18.2022 20:24:33.896
120, 1.83297, 0.130261, 84.842, 0, -0.000976562, -0.000976562, 0.0507812, 0.316406, -9.7207, 1.18.2022 20:24:33.904
121, 1.83297, 0.130261, 84.842, -0.000976562, 0, -0.000976562, -0.0419922, 0.308594, -9.70117, 1.18.2022 20:24:33.912
122, 1.83297, 0.130261, 84.842, -0.000976562, 0, -0.000976562, -0.0498047, 0.34082, -9.74414, 1.18.2022 20:24:33.920
123, 1.83297, 0.130261, 84.842, 0, -0.000976562, 0, 0.0078125, 0.285156, -9.73047, 1.18.2022 20:24:33.928
124, 1.83297, 0.130261, 84.842, 0, 0, 0.000976562, -0.0878906, 0.300781, -9.74707, 1.18.2022 20:24:33.936
125, 1.83297, 0.130261, 84.842, 0, 0, -0.000976562, 0.00683594, 0.304688, -9.74902, 1.18.2022 20:24:33.944
126, 1.83297, 0.130261, 84.842, 0, 0, -0.000976562, -0.0166016, 0.301758, -9.72461, 1.18.2022 20:24:33.952
127, 1.83297, 0.130261, 84.842, 0, -0.000976562, -0.000976562, -0.0712891, 0.333008, -9.72559, 1.18.2022 20:24:33.960
128, 1.83297, 0.130261, 84.842, -0.000976562, -0.000976562, -0.000976562, 0.0292969, 0.316406, -9.71777, 1.18.2022 20:24:33.968
129, 1.83297, 0.130261, 84.842, -0.000976562, -0.000976562, -0.00195312, -0.0361328, 0.336914, -9.75879, 1.18.2022 20:24:33.976
130, 1.83297, 0.130261, 84.842, -0.000976562, 0, -0.000976562, -0.0429688, 0.298828, -9.7627, 1.18.2022 20:24:33.984
131, 1.83297, 0.130261, 84.842, 0, 0, -0.000976562, 0.0429688, 0.307617, -9.75684, 1.18.2022 20:24:33.992
132, 1.83297, 0.130261, 84.842, 0.000976562, 0, -0.000976562, -0.0537109, 0.282227, -9.70605, 1.18.2022 20:24:34.000
133, 1.83273, 0.130349, 84.8425, 0.000976562, -0.000976562, -0.000976562, -0.0146484, 0.34375, -9.75488, 1.18.2022 20:24:34.008
134, 1.83298, 0.130418, 84.8523, -0.000976562, 0, -0.000976562, 0.0175781, 0.319336, -9.73242, 1.18.2022 20:24:34.016
135, 1.83298, 0.130418, 84.8523, -0.000976562, -0.000976562, -0.00195312, -0.0712891, 0.347656, -9.7207, 1.18.2022 20:24:34.024
136, 1.83298, 0.130418, 84.8523, -0.000976562, 0, -0.00195312, 0.00976562, 0.330078, -9.76953, 1.18.2022 20:24:34.032
137, 1.83298, 0.130418, 84.8523, 0, -0.000976562, -0.00195312, -0.0302734, 0.306641, -9.72949, 1.18.2022 20:24:34.040
138, 1.83298, 0.130418, 84.8523, -0.000976562, -0.000976562, 0.000976562, -0.0644531, 0.319336, -9.75, 1.18.2022 20:24:34.048
139, 1.83298, 0.130418, 84.8523, -0.000976562, -0.000976562, -0.000976562, 0.0361328, 0.307617, -9.76074, 1.18.2022 20:24:34.056
140, 1.83298, 0.130418, 84.8523, -0.000976562, 0, -0.00195312, -0.0566406, 0.30957, -9.72363, 1.18.2022 20:24:34.064
141, 1.83298, 0.130418, 84.8523, 0, -0.000976562, -0.000976562, -0.0332031, 0.319336, -9.74512, 1.18.2022 20:24:34.072
142, 1.82826, 0.13558, 84.8523, 0, 0, -0.000976562, -0.00390625, 0.285156, -9.72363, 1.18.2022 20:24:34.080
143, 1.82826, 0.13558, 84.8523, 0, -0.000976562, -0.000976562, -0.0927734, 0.326172, -9.72754, 1.18.2022 20:24:34.088
144, 1.82826, 0.13558, 84.8523, 0, 0, 0, -0.0234375, 0.319336, -9.75293, 1.18.2022 20:24:34.096
145, 1.82826, 0.13558, 84.8523, -0.000976562, 0, 0, -0.0322266, 0.303711, -9.71094, 1.18.2022 20:24:34.104
146, 1.82826, 0.13558, 84.8523, 0, 0, 0, -0.0683594, 0.330078, -9.70215, 1.18.2022 20:24:34.112
147, 1.82826, 0.13558, 84.8523, 0, 0, -0.00195312, 0.0410156, 0.318359, -9.71582, 1.18.2022 20:24:34.120
148, 1.82826, 0.13558, 84.8523, 0, 0, 0, -0.0322266, 0.301758, -9.71094, 1.18.2022 20:24:34.128
149, 1.82826, 0.13558, 84.8523, -0.000976562, -0.000976562, -0.000976562, -0.0546875, 0.304688, -9.72852, 1.18.2022 20:24:34.136
150, 1.82826, 0.13558, 84.8523, 0, -0.000976562, -0.000976562, 0.0214844, 0.292969, -9.74902, 1.18.2022 20:24:34.144
151, 1.82826, 0.13558, 84.8523, -0.000976562, -0.000976562, -0.000976562, -0.101562, 0.324219, -9.72754, 1.18.2022 20:24:34.152
152, 1.82826, 0.13558, 84.8523, -0.000976562, -0.000976562, -0.000976562, -0.00683594, 0.324219, -9.73633, 1.18.2022 20:24:34.160
153, 1.82826, 0.13558, 84.8523, -0.000976562, 0, 0, -0.0117188, 0.316406, -9.73145, 1.18.2022 20:24:34.168
154, 1.83274, 0.130506, 84.8528, -0.000976562, 0, 0, -0.0859375, 0.345703, -9.74414, 1.18.2022 20:24:34.176
155, 1.83274, 0.130506, 84.8528, -0.00195312, 0, 0, 0.0410156, 0.296875, -9.70996, 1.18.2022 20:24:34.184
156, 1.83274, 0.130506, 84.8528, -0.000976562, -0.000976562, -0.000976562, -0.0273438, 0.328125, -9.70508, 1.18.2022 20:24:34.192
157, 1.83274, 0.130506, 84.8528, -0.000976562, -0.000976562, -0.000976562, -0.046875, 0.324219, -9.72852, 1.18.2022 20:24:34.200
158, 1.83274, 0.130506, 84.8528, 0, -0.000976562, -0.000976562, 0.0175781, 0.290039, -9.73047, 1.18.2022 20:24:34.208
159, 1.83274, 0.130506, 84.8528, -0.000976562, -0.000976562, -0.000976562, -0.0576172, 0.298828, -9.75977, 1.18.2022 20:24:34.216
160, 1.83299, 0.130576, 84.8626, 0, -0.000976562, -0.000976562, -0.0195312, 0.289062, -9.75586, 1.18.2022 20:24:34.224
161, 1.83299, 0.130576, 84.8626, 0, -0.000976562, -0.000976562, -0.0166016, 0.292969, -9.72949, 1.18.2022 20:24:34.232
162, 1.83299, 0.130576, 84.8626, -0.000976562, -0.000976562, -0.000976562, -0.0683594, 0.326172, -9.7207, 1.18.2022 20:24:34.240
163, 1.83299, 0.130576, 84.8626, -0.000976562, 0, 0.000976562, 0.0166016, 0.317383, -9.75781, 1.18.2022 20:24:34.248
164, 1.83299, 0.130576, 84.8626, -0.000976562, 0, 0, -0.00878906, 0.296875, -9.69727, 1.18.2022 20:24:34.256
165, 1.83299, 0.130576, 84.8626, -0.000976562, -0.000976562, -0.000976562, -0.0576172, 0.336914, -9.77246, 1.18.2022 20:24:34.264
166, 1.83299, 0.130576, 84.8626, -0.000976562, -0.000976562, -0.000976562, 0.00976562, 0.276367, -9.75879, 1.18.2022 20:24:34.270
167, 1.83299, 0.130576, 84.8626, -0.000976562, -0.000976562, -0.000976562, -0.0361328, 0.305664, -9.7627, 1.18.2022 20:24:34.278
168, 1.83299, 0.130576, 84.8626, -0.000976562, -0.000976562, -0.000976562, -0.0185547, 0.34082, -9.73047, 1.18.2022 20:24:34.286
169, 1.83299, 0.130576, 84.8626, -0.000976562, -0.000976562, -0.000976562, 0.0283203, 0.319336, -9.74902, 1.18.2022 20:24:34.294
170, 1.83815, 0.135294, 84.8625, -0.000976562, 0, 0, -0.0615234, 0.326172, -9.7168, 1.18.2022 20:24:34.302
171, 1.83815, 0.135294, 84.8625, -0.000976562, 0, 0.000976562, -0.00683594, 0.306641, -9.73438, 1.18.2022 20:24:34.310
172, 1.83815, 0.135294, 84.8625, -0.000976562, 0, 0, -0.0449219, 0.314453, -9.74023, 1.18.2022 20:24:34.318
173, 1.83815, 0.135294, 84.8625, -0.000976562, 0, 0, -0.0683594, 0.325195, -9.71191, 1.18.2022 20:24:34.326
174, 1.83815, 0.135294, 84.8625, 0, -0.000976562, -0.000976562, 0.0429688, 0.283203, -9.73828, 1.18.2022 20:24:34.334
175, 1.83815, 0.135294, 84.8625, 0, 0, 0, -0.0449219, 0.314453, -9.7334, 1.18.2022 20:24:34.342
176, 1.83299, 0.130576, 84.8626, 0, 0, -0.00195312, -0.0449219, 0.313477, -9.71973, 1.18.2022 20:24:34.350
177, 1.83299, 0.130576, 84.8626, -0.000976562, 0, -0.00195312, -0.00488281, 0.304688, -9.74609, 1.18.2022 20:24:34.358
178, 1.83299, 0.130576, 84.8626, -0.000976562, -0.000976562, -0.00195312, -0.0830078, 0.317383, -9.7373, 1.18.2022 20:24:34.366
179, 1.83299, 0.130576, 84.8626, -0.000976562, 0, -0.00195312, -0.0361328, 0.31543, -9.77344, 1.18.2022 20:24:34.374
180, 1.83299, 0.130576, 84.8626, -0.000976562, 0, 0, -0.00585938, 0.279297, -9.69043, 1.18.2022 20:24:34.382
181, 1.83299, 0.130576, 84.8626, -0.000976562, -0.000976562, -0.000976562, -0.0585938, 0.341797, -9.69043, 1.18.2022 20:24:34.390
182, 1.83815, 0.135294, 84.8625, -0.000976562, -0.000976562, -0.000976562, 0.0078125, 0.289062, -9.70215, 1.18.2022 20:24:34.398
183, 1.83815, 0.135294, 84.8625, -0.000976562, -0.000976562, -0.000976562, -0.0351562, 0.316406, -9.73828, 1.18.2022 20:24:34.406
184, 1.83815, 0.135294, 84.8625, -0.000976562, -0.000976562, -0.000976562, -0.0595703, 0.34375, -9.74707, 1.18.2022 20:24:34.414
185, 1.83815, 0.135294, 84.8625, -0.000976562, -0.000976562, -0.000976562, 0.0107422, 0.291992, -9.71191, 1.18.2022 20:24:34.422
186, 1.83815, 0.135294, 84.8625, 0, -0.000976562, 0.000976562, -0.0576172, 0.310547, -9.75195, 1.18.2022 20:24:34.430
187, 1.83815, 0.135294, 84.8625, -0.000976562, -0.000976562, -0.000976562, -0.0332031, 0.333008, -9.7334, 1.18.2022 20:24:34.438
188, 1.83815, 0.135294, 84.8625, 0, -0.000976562, -0.000976562, 0.0117188, 0.336914, -9.75977, 1.18.2022 20:24:34.446
189, 1.83815, 0.135294, 84.8625, 0, -0.000976562, -0.000976562, -0.104492, 0.347656, -9.70801, 1.18.2022 20:24:34.454
190, 1.83791, 0.135382, 84.8629, -0.000976562, -0.000976562, -0.000976562, 0.0244141, 0.301758, -9.72363, 1.18.2022 20:24:34.462
191, 1.83791, 0.135382, 84.8629, -0.000976562, -0.000976562, -0.00195312, -0.0234375, 0.30957, -9.73633, 1.18.2022 20:24:34.470
192, 1.83816, 0.135452, 84.8728, -0.000976562, -0.000976562, -0.000976562, -0.0429688, 0.341797, -9.76562, 1.18.2022 20:24:34.478
193, 1.83816, 0.135452, 84.8728, 0, -0.000976562, -0.000976562, 0.0146484, 0.288086, -9.73047, 1.18.2022 20:24:34.486
194, 1.83816, 0.135452, 84.8728, 0, -0.000976562, -0.00195312, -0.0546875, 0.316406, -9.73535, 1.18.2022 20:24:34.494
195, 1.83816, 0.135452, 84.8728, 0, -0.000976562, -0.00195312, -0.0351562, 0.328125, -9.7168, 1.18.2022 20:24:34.502
196, 1.83344, 0.140613, 84.8728, 0, -0.000976562, -0.000976562, 0.0498047, 0.322266, -9.75586, 1.18.2022 20:24:34.510
197, 1.83344, 0.140613, 84.8728, -0.000976562, -0.000976562, -0.000976562, -0.0615234, 0.322266, -9.74219, 1.18.2022 20:24:34.518
198, 1.83344, 0.140613, 84.8728, 0, 0, 0, -0.00683594, 0.314453, -9.75586, 1.18.2022 20:24:34.526
199, 1.83344, 0.140613, 84.8728, -0.000976562, -0.000976562, 0.000976562, -0.0214844, 0.291016, -9.74902, 1.18.2022 20:24:34.534
200, 1.83344, 0.140613, 84.8728, -0.00195312, -0.000976562, 0, -0.0644531, 0.319336, -9.75488, 1.18.2022 20:24:34.542
201, 1.83344, 0.140613, 84.8728, -0.000976562, -0.000976562, -0.000976562, 0.0644531, 0.304688, -9.72363, 1.18.2022 20:24:34.550
202, 1.83344, 0.140613, 84.8728, -0.000976562, -0.00195312, -0.000976562, -0.0283203, 0.292969, -9.73242, 1.18.2022 20:24:34.558
203, 1.83344, 0.140613, 84.8728, 0, 0, -0.00195312, -0.0478516, 0.327148, -9.76367, 1.18.2022 20:24:34.566
204, 1.83344, 0.140613, 84.8728, 0, -0.000976562, -0.00195312, 0.0380859, 0.310547, -9.77539, 1.18.2022 20:24:34.574
205, 1.83344, 0.140613, 84.8728, 0, 0, 0, -0.0742188, 0.317383, -9.75391, 1.18.2022 20:24:34.582
206, 1.83344, 0.140613, 84.8728, -0.000976562, -0.000976562, -0.000976562, -0.0283203, 0.307617, -9.75098, 1.18.2022 20:24:34.590
207, 1.83344, 0.140613, 84.8728, -0.000976562, -0.000976562, -0.000976562, -0.0166016, 0.292969, -9.73438, 1.18.2022 20:24:34.598
208, 1.83344, 0.140613, 84.8728, -0.000976562, 0, 0, -0.0732422, 0.342773, -9.7373, 1.18.2022 20:24:34.606
209, 1.83344, 0.140613, 84.8728, 0, -0.000976562, 0, 0.0244141, 0.306641, -9.73047, 1.18.2022 20:24:34.614
210, 1.83344, 0.140613, 84.8728, -0.00195312, 0, 0, -0.0380859, 0.319336, -9.75684, 1.18.2022 20:24:34.622
211, 1.83816, 0.135452, 84.8728, -0.00195312, 0, 0, -0.0615234, 0.347656, -9.7373, 1.18.2022 20:24:34.630
212, 1.83816, 0.135452, 84.8728, -0.000976562, 0, 0, 0.0263672, 0.321289, -9.74121, 1.18.2022 20:24:34.638
213, 1.83816, 0.135452, 84.8728, -0.000976562, 0, 0, -0.0361328, 0.327148, -9.75684, 1.18.2022 20:24:34.646
214, 1.83816, 0.135452, 84.8728, -0.000976562, 0.000976562, 0.000976562, -0.03125, 0.317383, -9.74512, 1.18.2022 20:24:34.654
215, 1.83816, 0.135452, 84.8728, 0, 0.000976562, 0.000976562, 0, 0.314453, -9.74609, 1.18.2022 20:24:34.662
216, 1.83816, 0.135452, 84.8728, -0.000976562, 0, -0.000976562, -0.0693359, 0.362305, -9.75293, 1.18.2022 20:24:34.670
217, 1.83792, 0.13554, 84.8733, -0.000976562, 0, 0, 0.0146484, 0.328125, -9.73145, 1.18.2022 20:24:34.678
218, 1.83792, 0.13554, 84.8733, -0.000976562, -0.000976562, 0, -0.0146484, 0.291016, -9.74902, 1.18.2022 20:24:34.686
219, 1.83792, 0.13554, 84.8733, -0.000976562, -0.00195312, 0, -0.0400391, 0.301758, -9.71484, 1.18.2022 20:24:34.694
220, 1.83792, 0.13554, 84.8733, -0.000976562, -0.000976562, 0, 0.0283203, 0.297852, -9.75391, 1.18.2022 20:24:34.702
221, 1.83816, 0.13561, 84.8831, -0.000976562, -0.000976562, 0.000976562, -0.0546875, 0.326172, -9.74219, 1.18.2022 20:24:34.710
222, 1.83816, 0.13561, 84.8831, 0, 0, 0, -0.0117188, 0.336914, -9.77344, 1.18.2022 20:24:34.718
223, 1.83816, 0.13561, 84.8831, 0, -0.000976562, 0, 0.0263672, 0.298828, -9.76855, 1.18.2022 20:24:34.726
224, 1.83816, 0.13561, 84.8831, 0, 0, -0.000976562, -0.0761719, 0.320312, -9.77051, 1.18.2022 20:24:34.734
225, 1.83816, 0.13561, 84.8831, -0.000976562, -0.000976562, 0, 0.0117188, 0.269531, -9.76172, 1.18.2022 20:24:34.742
226, 1.83816, 0.13561, 84.8831, -0.000976562, -0.000976562, 0, -0.0214844, 0.300781, -9.75293, 1.18.2022 20:24:34.750
227, 1.83816, 0.13561, 84.8831, -0.000976562, 0, 0, -0.0810547, 0.30957, -9.74023, 1.18.2022 20:24:34.758
228, 1.83816, 0.13561, 84.8831, 0, 0, 0, 0.0078125, 0.306641, -9.7373, 1.18.2022 20:24:34.766
229, 1.83816, 0.13561, 84.8831, -0.000976562, -0.000976562, 0, -0.0351562, 0.30957, -9.72656, 1.18.2022 20:24:34.774
230, 1.83816, 0.13561, 84.8831, -0.00195312, -0.000976562, 0, -0.0214844, 0.336914, -9.76172, 1.18.2022 20:24:34.782
231, 1.83793, 0.135698, 84.8836, 0, 0, 0, 0.0195312, 0.295898, -9.74902, 1.18.2022 20:24:34.790
232, 1.83793, 0.135698, 84.8836, 0.000976562, -0.000976562, 0, -0.0791016, 0.322266, -9.75879, 1.18.2022 20:24:34.798
233, 1.83793, 0.135698, 84.8836, -0.000976562, -0.000976562, -0.000976562, -0.0185547, 0.318359, -9.72461, 1.18.2022 20:24:34.806
234, 1.83793, 0.135698, 84.8836, 0, 0, 0, -0.0185547, 0.288086, -9.72559, 1.18.2022 20:24:34.814
235, 1.83817, 0.135768, 84.8934, 0, 0, -0.000976562, -0.0615234, 0.321289, -9.72559, 1.18.2022 20:24:34.822
236, 1.83817, 0.135768, 84.8934, -0.000976562, -0.000976562, -0.000976562, 0.00195312, 0.310547, -9.78613, 1.18.2022 20:24:34.830
237, 1.83817, 0.135768, 84.8934, -0.000976562, 0, 0.000976562, -0.0214844, 0.332031, -9.7666, 1.18.2022 20:24:34.838
238, 1.83817, 0.135768, 84.8934, -0.000976562, 0, 0, -0.0664062, 0.337891, -9.72363, 1.18.2022 20:24:34.846
239, 1.83817, 0.135768, 84.8934, 0, 0, 0, 0.0195312, 0.296875, -9.71875, 1.18.2022 20:24:34.854
240, 1.83817, 0.135768, 84.8934, 0, 0, 0, -0.0566406, 0.316406, -9.71875, 1.18.2022 20:24:34.862
241, 1.83817, 0.135768, 84.8934, -0.000976562, -0.000976562, 0, -0.0302734, 0.321289, -9.72656, 1.18.2022 20:24:34.870
242, 1.83817, 0.135768, 84.8934, 0, -0.000976562, -0.000976562, -0.0136719, 0.319336, -9.74316, 1.18.2022 20:24:34.878
243, 1.83817, 0.135768, 84.8934, 0, -0.000976562, -0.000976562, -0.0761719, 0.326172, -9.73242, 1.18.2022 20:24:34.886
244, 1.83817, 0.135768, 84.8934, 0, 0, 0, 0.0146484, 0.300781, -9.75391, 1.18.2022 20:24:34.894
245, 1.83817, 0.135768, 84.8934, -0.000976562, 0, 0, -0.0117188, 0.30957, -9.73438, 1.18.2022 20:24:34.902
246, 1.83817, 0.135768, 84.8934, -0.000976562, 0, 0, -0.0498047, 0.323242, -9.72168, 1.18.2022 20:24:34.910
247, 1.83817, 0.135768, 84.8934, -0.000976562, 0, 0, 0.0439453, 0.282227, -9.71973, 1.18.2022 20:24:34.918
248, 1.83817, 0.135768, 84.8934, -0.000976562, 0.000976562, 0.000976562, -0.0693359, 0.291016, -9.74121, 1.18.2022 20:24:34.926
249, 1.83277, 0.130979, 84.8838, -0.000976562, 0, 0, -0.0400391, 0.347656, -9.73047, 1.18.2022 20:24:34.934
250, 1.83277, 0.130979, 84.8838, 0, -0.000976562, -0.000976562, 0.0146484, 0.289062, -9.70703, 1.18.2022 20:24:34.942
251, 1.83793, 0.135698, 84.8836, -0.000976562, -0.000976562, 0, -0.102539, 0.333984, -9.76074, 1.18.2022 20:24:34.950
252, 1.83793, 0.135698, 84.8836, -0.000976562, -0.000976562, 0, -0.00878906, 0.30957, -9.73633, 1.18.2022 20:24:34.958
253, 1.83816, 0.13561, 84.8831, -0.000976562, -0.000976562, 0, -0.015625, 0.291992, -9.7041, 1.18.2022 20:24:34.966
254, 1.83816, 0.13561, 84.8831, -0.000976562, 0, 0, -0.0234375, 0.311523, -9.72949, 1.18.2022 20:24:34.974
255, 1.83816, 0.13561, 84.8831, -0.000976562, 0, 0, 0.0361328, 0.291992, -9.72559, 1.18.2022 20:24:34.982
256, 1.83816, 0.13561, 84.8831, -0.000976562, -0.000976562, 0, -0.0234375, 0.30957, -9.73926, 1.18.2022 20:24:34.990
257, 1.83816, 0.13561, 84.8831, -0.000976562, 0, 0, -0.0351562, 0.299805, -9.72949, 1.18.2022 20:24:34.998
258, 1.83816, 0.13561, 84.8831, -0.000976562, 0, 0.000976562, 0.00195312, 0.291016, -9.75195, 1.18.2022 20:24:35.006
259, 1.83816, 0.13561, 84.8831, -0.00195312, 0, 0, -0.0986328, 0.310547, -9.69238, 1.18.2022 20:24:35.014
260, 1.84288, 0.130449, 84.8831, -0.000976562, -0.000976562, 0, -0.0136719, 0.324219, -9.74121, 1.18.2022 20:24:35.022
261, 1.84288, 0.130449, 84.8831, -0.000976562, 0, 0, 0.0185547, 0.28418, -9.78027, 1.18.2022 20:24:35.030
262, 1.84264, 0.130379, 84.8733, -0.000976562, 0, 0, -0.0830078, 0.327148, -9.74707, 1.18.2022 20:24:35.038
263, 1.84264, 0.130379, 84.8733, -0.000976562, 0, 0, 0.0117188, 0.317383, -9.74609, 1.18.2022 20:24:35.046
264, 1.84264, 0.130379, 84.8733, 0, 0, 0, -0.0361328, 0.31543, -9.75781, 1.18.2022 20:24:35.054
265, 1.84264, 0.130379, 84.8733, 0, -0.000976562, 0.000976562, -0.0566406, 0.3125, -9.73828, 1.18.2022 20:24:35.062
266, 1.84264, 0.130379, 84.8733, -0.000976562, -0.000976562, 0.000976562, 0.00976562, 0.306641, -9.7207, 1.18.2022 20:24:35.070
267, 1.83816, 0.135452, 84.8728, -0.000976562, -0.000976562, 0, -0.078125, 0.329102, -9.74414, 1.18.2022 20:24:35.078
268, 1.83816, 0.135452, 84.8728, 0, -0.000976562, -0.000976562, -0.0195312, 0.332031, -9.77344, 1.18.2022 20:24:35.086
269, 1.83816, 0.135452, 84.8728, -0.000976562, -0.000976562, 0, 0.00488281, 0.319336, -9.73633, 1.18.2022 20:24:35.094
270, 1.83816, 0.135452, 84.8728, -0.000976562, -0.000976562, 0, -0.0693359, 0.338867, -9.74219, 1.18.2022 20:24:35.102
271, 1.83816, 0.135452, 84.8728, -0.000976562, -0.000976562, -0.00195312, 0.0146484, 0.321289, -9.72266, 1.18.2022 20:24:35.110
272, 1.83816, 0.135452, 84.8728, -0.000976562, -0.00195312, -0.00195312, -0.0517578, 0.307617, -9.7334, 1.18.2022 20:24:35.118
273, 1.83792, 0.13554, 84.8733, -0.000976562, -0.000976562, -0.000976562, -0.0810547, 0.345703, -9.73438, 1.18.2022 20:24:35.126
274, 1.83792, 0.13554, 84.8733, -0.000976562, 0, -0.000976562, 0.0195312, 0.287109, -9.72168, 1.18.2022 20:24:35.134
275, 1.83792, 0.13554, 84.8733, 0, -0.000976562, -0.000976562, -0.0566406, 0.302734, -9.74316, 1.18.2022 20:24:35.142
276, 1.83792, 0.13554, 84.8733, -0.000976562, -0.000976562, -0.000976562, -0.0136719, 0.323242, -9.70312, 1.18.2022 20:24:35.150
277, 1.83792, 0.13554, 84.8733, -0.000976562, -0.000976562, -0.000976562, 0.0117188, 0.295898, -9.77734, 1.18.2022 20:24:35.158
278, 1.83816, 0.135452, 84.8728, -0.000976562, 0, -0.000976562, -0.0849609, 0.331055, -9.7207, 1.18.2022 20:24:35.166
279, 1.83816, 0.135452, 84.8728, -0.000976562, 0, -0.000976562, 0.00683594, 0.291016, -9.76367, 1.18.2022 20:24:35.174
280, 1.83816, 0.135452, 84.8728, -0.000976562, 0, -0.000976562, -0.0322266, 0.294922, -9.71582, 1.18.2022 20:24:35.182
281, 1.83816, 0.135452, 84.8728, -0.000976562, -0.000976562, -0.000976562, -0.0605469, 0.330078, -9.68848, 1.18.2022 20:24:35.190
282, 1.83816, 0.135452, 84.8728, 0, -0.000976562, -0.000976562, 0.0195312, 0.308594, -9.7207, 1.18.2022 20:24:35.198
283, 1.83816, 0.135452, 84.8728, 0, -0.000976562, -0.000976562, -0.0400391, 0.301758, -9.72949, 1.18.2022 20:24:35.206
284, 1.83816, 0.135452, 84.8728, 0, -0.000976562, -0.000976562, -0.0302734, 0.332031, -9.69043, 1.18.2022 20:24:35.214
285, 1.83816, 0.135452, 84.8728, -0.000976562, -0.000976562, -0.000976562, 0.00488281, 0.307617, -9.74609, 1.18.2022 20:24:35.222
286, 1.83816, 0.135452, 84.8728, -0.000976562, -0.00195312, -0.000976562, -0.0976562, 0.317383, -9.75391, 1.18.2022 20:24:35.228
287, 1.83816, 0.135452, 84.8728, -0.000976562, -0.000976562, -0.000976562, -0.0166016, 0.31543, -9.77148, 1.18.2022 20:24:35.238
288, 1.83816, 0.135452, 84.8728, -0.000976562, -0.00195312, -0.000976562, -0.00976562, 0.297852, -9.74902, 1.18.2022 20:24:35.244
289, 1.83816, 0.135452, 84.8728, 0, -0.000976562, -0.000976562, -0.0664062, 0.317383, -9.74512, 1.18.2022 20:24:35.252
290, 1.83816, 0.135452, 84.8728, 0, -0.000976562, -0.000976562, 0.03125, 0.290039, -9.73828, 1.18.2022 20:24:35.260
291, 1.83816, 0.135452, 84.8728, -0.000976562, -0.000976562, -0.000976562, -0.00683594, 0.297852, -9.76074, 1.18.2022 20:24:35.268
292, 1.83816, 0.135452, 84.8728, 0, 0, -0.000976562, -0.0361328, 0.3125, -9.75781, 1.18.2022 20:24:35.276
293, 1.83816, 0.135452, 84.8728, -0.000976562, 0, 0.000976562, 0.0429688, 0.314453, -9.7373, 1.18.2022 20:24:35.284
294, 1.83816, 0.135452, 84.8728, -0.000976562, -0.000976562, -0.000976562, -0.0488281, 0.316406, -9.71191, 1.18.2022 20:24:35.292
295, 1.83816, 0.135452, 84.8728, 0, -0.000976562, -0.000976562, -0.00195312, 0.319336, -9.74316, 1.18.2022 20:24:35.300
296, 1.83816, 0.135452, 84.8728, 0, -0.000976562, 0, -0.0107422, 0.306641, -9.71094, 1.18.2022 20:24:35.308
297, 1.83816, 0.135452, 84.8728, -0.000976562, -0.000976562, -0.000976562, -0.0712891, 0.333008, -9.71582, 1.18.2022 20:24:35.316
298, 1.83816, 0.135452, 84.8728, -0.000976562, 0, -0.000976562, -0.00488281, 0.302734, -9.7373, 1.18.2022 20:24:35.324
299, 1.83816, 0.135452, 84.8728, -0.000976562, 0, 0.000976562, -0.0185547, 0.298828, -9.70801, 1.18.2022 20:24:35.332
300, 1.83791, 0.135382, 84.8629, -0.000976562, 0, -0.000976562, -0.0732422, 0.352539, -9.73926, 1.18.2022 20:24:35.340
301, 1.83791, 0.135382, 84.8629, -0.000976562, 0, -0.000976562, 0.00976562, 0.305664, -9.75391, 1.18.2022 20:24:35.348
302, 1.83791, 0.135382, 84.8629, -0.000976562, -0.000976562, -0.000976562, -0.0576172, 0.322266, -9.75684, 1.18.2022 20:24:35.356
303, 1.83791, 0.135382, 84.8629, -0.000976562, -0.000976562, -0.000976562, -0.0478516, 0.291016, -9.73926, 1.18.2022 20:24:35.364
304, 1.83791, 0.135382, 84.8629, -0.000976562, 0, 0.00195312, 0.00976562, 0.307617, -9.74609, 1.18.2022 20:24:35.372
305, 1.83791, 0.135382, 84.8629, -0.000976562, -0.000976562, 0, -0.0742188, 0.319336, -9.75195, 1.18.2022 20:24:35.380
306, 1.83791, 0.135382, 84.8629, -0.000976562, -0.000976562, -0.000976562, 0.00195312, 0.300781, -9.7627, 1.18.2022 20:24:35.388
307, 1.83791, 0.135382, 84.8629, -0.000976562, -0.000976562, 0, -0.0332031, 0.297852, -9.73926, 1.18.2022 20:24:35.396
308, 1.83791, 0.135382, 84.8629, -0.000976562, -0.000976562, -0.000976562, -0.0693359, 0.317383, -9.77051, 1.18.2022 20:24:35.404
309, 1.84307, 0.140101, 84.8628, -0.000976562, -0.00195312, -0.000976562, 0.0244141, 0.27832, -9.74023, 1.18.2022 20:24:35.412
310, 1.84307, 0.140101, 84.8628, -0.000976562, -0.000976562, -0.000976562, -0.0449219, 0.27832, -9.74121, 1.18.2022 20:24:35.420
311, 1.84307, 0.140101, 84.8628, -0.000976562, -0.000976562, -0.000976562, -0.015625, 0.30957, -9.72266, 1.18.2022 20:24:35.428
312, 1.84307, 0.140101, 84.8628, 0, -0.000976562, -0.000976562, 0.0195312, 0.280273, -9.72363, 1.18.2022 20:24:35.436
313, 1.84331, 0.14017, 84.8726, 0, -0.000976562, -0.000976562, -0.0664062, 0.328125, -9.71875, 1.18.2022 20:24:35.444
314, 1.84331, 0.14017, 84.8726, -0.000976562, -0.000976562, -0.000976562, -0.00390625, 0.306641, -9.71094, 1.18.2022 20:24:35.452
315, 1.84331, 0.14017, 84.8726, -0.000976562, -0.000976562, -0.000976562, 0.000976562, 0.28418, -9.7002, 1.18.2022 20:24:35.460
316, 1.84331, 0.14017, 84.8726, -0.000976562, 0, -0.000976562, -0.0478516, 0.314453, -9.74512, 1.18.2022 20:24:35.468
317, 1.84331, 0.14017, 84.8726, 0, 0, -0.000976562, 0.0136719, 0.302734, -9.76562, 1.18.2022 20:24:35.476
318, 1.84331, 0.14017, 84.8726, -0.000976562, 0, -0.000976562, -0.046875, 0.299805, -9.71973, 1.18.2022 20:24:35.484
319, 1.83816, 0.135452, 84.8728, -0.000976562, 0, -0.000976562, -0.0400391, 0.318359, -9.71484, 1.18.2022 20:24:35.492
320, 1.83816, 0.135452, 84.8728, -0.000976562, 0, -0.000976562, 0.0263672, 0.306641, -9.73535, 1.18.2022 20:24:35.500
321, 1.83816, 0.135452, 84.8728, -0.000976562, -0.000976562, -0.000976562, -0.0849609, 0.308594, -9.71387, 1.18.2022 20:24:35.508
322, 1.83816, 0.135452, 84.8728, 0, 0, -0.000976562, 0.00292969, 0.344727, -9.70508, 1.18.2022 20:24:35.516
323, 1.83816, 0.135452, 84.8728, -0.000976562, -0.000976562, -0.000976562, 0.0146484, 0.286133, -9.74219, 1.18.2022 20:24:35.524
324, 1.83816, 0.135452, 84.8728, -0.000976562, 0, -0.000976562, -0.0751953, 0.332031, -9.69727, 1.18.2022 20:24:35.532
325, 1.83816, 0.135452, 84.8728, -0.000976562, 0, 0, 0.00292969, 0.311523, -9.70801, 1.18.2022 20:24:35.540
326, 1.83816, 0.135452, 84.8728, -0.000976562, -0.000976562, -0.000976562, -0.0449219, 0.306641, -9.72461, 1.18.2022 20:24:35.548
327, 1.83816, 0.135452, 84.8728, -0.000976562, 0, -0.000976562, -0.0546875, 0.305664, -9.75488, 1.18.2022 20:24:35.556
328, 1.83816, 0.135452, 84.8728, 0, -0.000976562, -0.00195312, 0.0449219, 0.3125, -9.77051, 1.18.2022 20:24:35.564
329, 1.83816, 0.135452, 84.8728, -0.000976562, -0.000976562, -0.00195312, -0.046875, 0.316406, -9.72363, 1.18.2022 20:24:35.572
330, 1.83816, 0.135452, 84.8728, -0.000976562, -0.000976562, -0.00195312, -0.0263672, 0.317383, -9.74805, 1.18.2022 20:24:35.580
331, 1.83816, 0.135452, 84.8728, -0.000976562, 0, -0.00195312, 0.0214844, 0.324219, -9.75586, 1.18.2022 20:24:35.588
332, 1.83816, 0.135452, 84.8728, -0.000976562, 0, -0.000976562, -0.0712891, 0.313477, -9.71387, 1.18.2022 20:24:35.596
333, 1.83816, 0.135452, 84.8728, -0.000976562, -0.000976562, -0.000976562, 0.0146484, 0.327148, -9.75977, 1.18.2022 20:24:35.604
334, 1.83816, 0.135452, 84.8728, -0.000976562, 0, -0.000976562, -0.00195312, 0.302734, -9.74609, 1.18.2022 20:24:35.612
335, 1.83816, 0.135452, 84.8728, -0.000976562, 0, -0.000976562, -0.0546875, 0.335938, -9.73535, 1.18.2022 20:24:35.620
336, 1.83816, 0.135452, 84.8728, 0, -0.000976562, 0, 0.0195312, 0.307617, -9.74219, 1.18.2022 20:24:35.628
337, 1.83816, 0.135452, 84.8728, -0.000976562, 0, 0, -0.0566406, 0.30957, -9.71973, 1.18.2022 20:24:35.636
338, 1.83816, 0.135452, 84.8728, 0, 0, 0, -0.0380859, 0.296875, -9.72754, 1.18.2022 20:24:35.644
339, 1.83816, 0.135452, 84.8728, -0.000976562, -0.000976562, 0, -0.00488281, 0.269531, -9.74707, 1.18.2022 20:24:35.652
340, 1.83816, 0.135452, 84.8728, -0.000976562, -0.000976562, 0, -0.0996094, 0.332031, -9.74902, 1.18.2022 20:24:35.660
341, 1.83816, 0.135452, 84.8728, 0, 0, 0, -0.0410156, 0.306641, -9.79102, 1.18.2022 20:24:35.668
342, 1.83816, 0.135452, 84.8728, -0.000976562, -0.000976562, 0, -0.0146484, 0.308594, -9.79297, 1.18.2022 20:24:35.676
343, 1.83816, 0.135452, 84.8728, -0.000976562, 0, 0, -0.0546875, 0.333984, -9.75879, 1.18.2022 20:24:35.684
344, 1.83816, 0.135452, 84.8728, 0, 0, 0, 0.0166016, 0.305664, -9.78418, 1.18.2022 20:24:35.692
345, 1.83791, 0.135382, 84.8629, -0.000976562, -0.000976562, 0, -0.0517578, 0.308594, -9.7168, 1.18.2022 20:24:35.700
346, 1.83791, 0.135382, 84.8629, 0, 0, 0, -0.0517578, 0.323242, -9.69531, 1.18.2022 20:24:35.708
347, 1.83791, 0.135382, 84.8629, -0.000976562, -0.000976562, 0.000976562, 0.0429688, 0.280273, -9.72852, 1.18.2022 20:24:35.716
348, 1.83791, 0.135382, 84.8629, 0, -0.000976562, 0.000976562, -0.0498047, 0.30957, -9.72852, 1.18.2022 20:24:35.724
349, 1.83791, 0.135382, 84.8629, -0.000976562, 0, 0, 0.00488281, 0.305664, -9.76562, 1.18.2022 20:24:35.732
350, 1.83815, 0.135294, 84.8625, -0.000976562, -0.000976562, 0, -0.0117188, 0.285156, -9.7373, 1.18.2022 20:24:35.740
351, 1.83815, 0.135294, 84.8625, -0.000976562, -0.000976562, 0, -0.0996094, 0.337891, -9.72949, 1.18.2022 20:24:35.748
352, 1.83815, 0.135294, 84.8625, -0.000976562, 0, 0, -0.00292969, 0.31543, -9.75977, 1.18.2022 20:24:35.756
353, 1.83815, 0.135294, 84.8625, -0.000976562, 0, 0, -0.0136719, 0.304688, -9.72754, 1.18.2022 20:24:35.764
354, 1.83815, 0.135294, 84.8625, 0, -0.000976562, -0.00195312, -0.0302734, 0.326172, -9.73145, 1.18.2022 20:24:35.772
355, 1.83791, 0.135382, 84.8629, -0.000976562, -0.000976562, 0, -0.00683594, 0.279297, -9.75391, 1.18.2022 20:24:35.780
356, 1.83791, 0.135382, 84.8629, -0.000976562, -0.000976562, 0, -0.0546875, 0.319336, -9.75488, 1.18.2022 20:24:35.788
357, 1.83791, 0.135382, 84.8629, 0, 0, -0.00195312, -0.0283203, 0.304688, -9.73145, 1.18.2022 20:24:35.796
358, 1.83791, 0.135382, 84.8629, -0.000976562, 0, 0, -0.00488281, 0.302734, -9.75391, 1.18.2022 20:24:35.804
359, 1.83816, 0.135452, 84.8728, 0, -0.000976562, 0, -0.078125, 0.319336, -9.75195, 1.18.2022 20:24:35.812
360, 1.83816, 0.135452, 84.8728, 0, 0, 0, -0.00195312, 0.308594, -9.70605, 1.18.2022 20:24:35.820
361, 1.83816, 0.135452, 84.8728, -0.000976562, 0, 0, -0.015625, 0.318359, -9.71973, 1.18.2022 20:24:35.828
362, 1.83816, 0.135452, 84.8728, 0, 0, 0.000976562, -0.0751953, 0.333008, -9.71582, 1.18.2022 20:24:35.836
363, 1.83816, 0.135452, 84.8728, 0, -0.000976562, 0, 0.0361328, 0.288086, -9.73047, 1.18.2022 20:24:35.844
364, 1.83816, 0.135452, 84.8728, -0.000976562, 0, 0, -0.0419922, 0.299805, -9.72461, 1.18.2022 20:24:35.852
365, 1.83816, 0.135452, 84.8728, -0.000976562, -0.000976562, 0, -0.0302734, 0.314453, -9.72656, 1.18.2022 20:24:35.860
366, 1.83816, 0.135452, 84.8728, -0.000976562, -0.000976562, 0, 0.0195312, 0.296875, -9.72754, 1.18.2022 20:24:35.868
367, 1.83816, 0.135452, 84.8728, -0.000976562, -0.000976562, 0, -0.0654297, 0.310547, -9.7002, 1.18.2022 20:24:35.876
368, 1.83816, 0.135452, 84.8728, -0.000976562, -0.000976562, -0.000976562, 0, 0.302734, -9.7373, 1.18.2022 20:24:35.884
369, 1.83816, 0.135452, 84.8728, -0.000976562, -0.000976562, -0.000976562, -0.0117188, 0.311523, -9.71973, 1.18.2022 20:24:35.892
370, 1.83816, 0.135452, 84.8728, -0.000976562, 0, -0.000976562, -0.0761719, 0.351562, -9.7627, 1.18.2022 20:24:35.900
371, 1.83816, 0.135452, 84.8728, -0.000976562, 0, -0.000976562, 0.0195312, 0.291992, -9.7207, 1.18.2022 20:24:35.908
372, 1.83816, 0.135452, 84.8728, -0.000976562, 0, -0.000976562, -0.0449219, 0.296875, -9.71094, 1.18.2022 20:24:35.916
373, 1.83792, 0.13554, 84.8733, -0.000976562, 0, -0.000976562, -0.0332031, 0.308594, -9.76953, 1.18.2022 20:24:35.924
374, 1.83792, 0.13554, 84.8733, -0.000976562, -0.000976562, -0.000976562, 0.0146484, 0.285156, -9.71875, 1.18.2022 20:24:35.932
375, 1.83792, 0.13554, 84.8733, -0.000976562, 0, -0.00195312, -0.0615234, 0.324219, -9.72852, 1.18.2022 20:24:35.940
376, 1.83816, 0.13561, 84.8831, -0.00195312, 0, 0, -0.0117188, 0.353516, -9.75684, 1.18.2022 20:24:35.948
377, 1.83816, 0.13561, 84.8831, -0.000976562, 0, -0.000976562, -0.00488281, 0.31543, -9.75977, 1.18.2022 20:24:35.956
378, 1.83816, 0.13561, 84.8831, 0, -0.00195312, -0.000976562, -0.078125, 0.322266, -9.74902, 1.18.2022 20:24:35.964
379, 1.83816, 0.13561, 84.8831, -0.000976562, -0.000976562, 0.000976562, 0.0195312, 0.298828, -9.70898, 1.18.2022 20:24:35.972
380, 1.83816, 0.13561, 84.8831, -0.000976562, -0.000976562, -0.000976562, -0.0234375, 0.280273, -9.72266, 1.18.2022 20:24:35.980
381, 1.83816, 0.13561, 84.8831, -0.000976562, -0.000976562, -0.000976562, -0.0449219, 0.333008, -9.7334, 1.18.2022 20:24:35.988
382, 1.83816, 0.13561, 84.8831, -0.000976562, -0.000976562, -0.000976562, 0.0224609, 0.277344, -9.69043, 1.18.2022 20:24:35.996
383, 1.83816, 0.13561, 84.8831, -0.000976562, -0.000976562, -0.000976562, -0.046875, 0.306641, -9.72168, 1.18.2022 20:24:36.004
384, 1.83816, 0.13561, 84.8831, -0.000976562, 0, -0.000976562, -0.0332031, 0.307617, -9.73828, 1.18.2022 20:24:36.012
385, 1.83793, 0.135698, 84.8836, -0.000976562, -0.000976562, -0.000976562, 0, 0.292969, -9.7373, 1.18.2022 20:24:36.020
386, 1.83793, 0.135698, 84.8836, 0, -0.000976562, -0.000976562, -0.121094, 0.326172, -9.71289, 1.18.2022 20:24:36.028
387, 1.83793, 0.135698, 84.8836, -0.000976562, -0.000976562, -0.000976562, 0, 0.319336, -9.74609, 1.18.2022 20:24:36.036
388, 1.83793, 0.135698, 84.8836, 0, -0.000976562, -0.000976562, -0.0283203, 0.304688, -9.72461, 1.18.2022 20:24:36.044
389, 1.83793, 0.135698, 84.8836, 0, -0.000976562, -0.000976562, -0.0615234, 0.332031, -9.75879, 1.18.2022 20:24:36.052
390, 1.83817, 0.135768, 84.8934, -0.000976562, -0.000976562, -0.00195312, 0.015625, 0.28418, -9.70508, 1.18.2022 20:24:36.060
391, 1.83817, 0.135768, 84.8934, -0.000976562, -0.000976562, -0.000976562, -0.0644531, 0.3125, -9.75, 1.18.2022 20:24:36.068
392, 1.83817, 0.135768, 84.8934, -0.000976562, 0, -0.000976562, -0.0332031, 0.319336, -9.74512, 1.18.2022 20:24:36.076
393, 1.83817, 0.135768, 84.8934, 0, 0, 0.000976562, 0.0175781, 0.316406, -9.72949, 1.18.2022 20:24:36.084
394, 1.83817, 0.135768, 84.8934, -0.000976562, -0.000976562, -0.000976562, -0.09375, 0.308594, -9.77539, 1.18.2022 20:24:36.092
395, 1.83817, 0.135768, 84.8934, -0.000976562, -0.000976562, -0.000976562, -0.00390625, 0.337891, -9.73633, 1.18.2022 20:24:36.100
396, 1.83817, 0.135768, 84.8934, -0.000976562, -0.000976562, -0.00195312, 0.00488281, 0.310547, -9.77441, 1.18.2022 20:24:36.108
397, 1.83794, 0.135856, 84.8939, -0.000976562, -0.000976562, -0.000976562, -0.0664062, 0.334961, -9.71582, 1.18.2022 20:24:36.116
398, 1.83794, 0.135856, 84.8939, 0, 0, -0.000976562, -0.00292969, 0.274414, -9.75684, 1.18.2022 20:24:36.124
399, 1.83794, 0.135856, 84.8939, 0, -0.000976562, -0.000976562, -0.0410156, 0.269531, -9.75879, 1.18.2022 20:24:36.132
400, 1.83794, 0.135856, 84.8939, 0, -0.000976562, 0, -0.0576172, 0.322266, -9.75879, 1.18.2022 20:24:36.140
401, 1.83322, 0.141016, 84.8939, 0, -0.000976562, 0, 0.0195312, 0.319336, -9.74414, 1.18.2022 20:24:36.148
402, 1.83322, 0.141016, 84.8939, -0.000976562, -0.000976562, 0.000976562, -0.0546875, 0.306641, -9.72656, 1.18.2022 20:24:36.156
403, 1.83322, 0.141016, 84.8939, -0.000976562, 0, 0, -0.0117188, 0.319336, -9.73828, 1.18.2022 20:24:36.164
404, 1.83322, 0.141016, 84.8939, 0, 0, 0, 0.00292969, 0.345703, -9.74316, 1.18.2022 20:24:36.172
405, 1.83322, 0.141016, 84.8939, -0.000976562, 0, 0, -0.0742188, 0.327148, -9.74902, 1.18.2022 20:24:36.180
406, 1.83794, 0.135856, 84.8939, 0, 0, 0, 0.0175781, 0.31543, -9.70605, 1.18.2022 20:24:36.188
407, 1.83794, 0.135856, 84.8939, 0, 0, -0.00195312, -0.015625, 0.334961, -9.72168, 1.18.2022 20:24:36.196
408, 1.83794, 0.135856, 84.8939, -0.000976562, 0, 0, -0.0429688, 0.335938, -9.74219, 1.18.2022 20:24:36.204
409, 1.83794, 0.135856, 84.8939, -0.000976562, -0.000976562, 0, 0.0175781, 0.291992, -9.7168, 1.18.2022 20:24:36.210
410, 1.83794, 0.135856, 84.8939, 0, -0.000976562, 0, -0.0859375, 0.323242, -9.78711, 1.18.2022 20:24:36.218
411, 1.83322, 0.141016, 84.8939, -0.000976562, -0.000976562, 0, -0.0117188, 0.327148, -9.76172, 1.18.2022 20:24:36.226
412, 1.83322, 0.141016, 84.8939, -0.000976562, -0.000976562, 0, 0.0234375, 0.300781, -9.77051, 1.18.2022 20:24:36.234
413, 1.83346, 0.140928, 84.8934, -0.000976562, -0.000976562, 0, -0.0761719, 0.3125, -9.76367, 1.18.2022 20:24:36.242
414, 1.83346, 0.140928, 84.8934, -0.000976562, 0, 0.000976562, 0.0175781, 0.311523, -9.71387, 1.18.2022 20:24:36.250
415, 1.83817, 0.135768, 84.8934, -0.000976562, 0, 0, 0.00976562, 0.301758, -9.72754, 1.18.2022 20:24:36.258
416, 1.83817, 0.135768, 84.8934, -0.000976562, 0, 0, -0.0566406, 0.335938, -9.74707, 1.18.2022 20:24:36.266
417, 1.83817, 0.135768, 84.8934, -0.000976562, 0, 0, 0.0410156, 0.297852, -9.74219, 1.18.2022 20:24:36.274
418, 1.83817, 0.135768, 84.8934, -0.000976562, 0, 0, -0.0478516, 0.314453, -9.75195, 1.18.2022 20:24:36.282
419, 1.83817, 0.135768, 84.8934, -0.000976562, 0, 0.000976562, -0.0332031, 0.329102, -9.74023, 1.18.2022 20:24:36.290
420, 1.83817, 0.135768, 84.8934, 0, 0, 0.000976562, 0.0117188, 0.3125, -9.74121, 1.18.2022 20:24:36.298
421, 1.83817, 0.135768, 84.8934, -0.000976562, 0, 0, -0.0673828, 0.310547, -9.7666, 1.18.2022 20:24:36.306
422, 1.83817, 0.135768, 84.8934, 0, -0.000976562, 0, 0.00488281, 0.294922, -9.73242, 1.18.2022 20:24:36.314
423, 1.83817, 0.135768, 84.8934, 0, 0, -0.00195312, -0.0078125, 0.279297, -9.77344, 1.18.2022 20:24:36.322
424, 1.83817, 0.135768, 84.8934, -0.000976562, 0, 0, -0.0546875, 0.30957, -9.74023, 1.18.2022 20:24:36.330
425, 1.83817, 0.135768, 84.8934, -0.000976562, -0.000976562, 0, 0.0166016, 0.291016, -9.76074, 1.18.2022 20:24:36.338
426, 1.83817, 0.135768, 84.8934, 0, -0.000976562, 0, -0.0195312, 0.31543, -9.75781, 1.18.2022 20:24:36.346
427, 1.83817, 0.135768, 84.8934, 0, -0.000976562, 0, -0.0136719, 0.331055, -9.72461, 1.18.2022 20:24:36.354
428, 1.83817, 0.135768, 84.8934, 0, -0.000976562, 0, 0.0361328, 0.290039, -9.72168, 1.18.2022 20:24:36.362
429, 1.83817, 0.135768, 84.8934, -0.000976562, -0.000976562, 0, -0.0683594, 0.324219, -9.74023, 1.18.2022 20:24:36.370
430, 1.83817, 0.135768, 84.8934, -0.000976562, -0.000976562, 0, 0.00292969, 0.342773, -9.71973, 1.18.2022 20:24:36.378
431, 1.83817, 0.135768, 84.8934, 0, -0.000976562, -0.00195312, 0.0126953, 0.297852, -9.7373, 1.18.2022 20:24:36.386
432, 1.83794, 0.135856, 84.8939, -0.000976562, -0.000976562, -0.000976562, -0.0693359, 0.317383, -9.77051, 1.18.2022 20:24:36.394
433, 1.83794, 0.135856, 84.8939, -0.000976562, -0.000976562, -0.000976562, 0.0166016, 0.291016, -9.76855, 1.18.2022 20:24:36.402
434, 1.83794, 0.135856, 84.8939, -0.000976562, 0, -0.00195312, -0.0253906, 0.296875, -9.71777, 1.18.2022 20:24:36.410
435, 1.83794, 0.135856, 84.8939, -0.000976562, -0.00195312, -0.00195312, -0.0732422, 0.299805, -9.72363, 1.18.2022 20:24:36.418
436, 1.83794, 0.135856, 84.8939, 0, -0.000976562, -0.000976562, 0.0341797, 0.295898, -9.68848, 1.18.2022 20:24:36.426
437, 1.83322, 0.141016, 84.8939, 0, -0.000976562, -0.000976562, -0.0498047, 0.304688, -9.73633, 1.18.2022 20:24:36.434
438, 1.83322, 0.141016, 84.8939, 0, -0.000976562, -0.000976562, -0.0107422, 0.318359, -9.71484, 1.18.2022 20:24:36.442
439, 1.83322, 0.141016, 84.8939, 0, -0.000976562, -0.00195312, 0.0117188, 0.323242, -9.79102, 1.18.2022 20:24:36.450
440, 1.83347, 0.141085, 84.9037, -0.000976562, -0.000976562, -0.000976562, -0.0576172, 0.336914, -9.75879, 1.18.2022 20:24:36.458
441, 1.83347, 0.141085, 84.9037, -0.000976562, 0, 0.000976562, -0.00195312, 0.319336, -9.73633, 1.18.2022 20:24:36.466
442, 1.83347, 0.141085, 84.9037, -0.000976562, -0.000976562, -0.000976562, 0, 0.304688, -9.72949, 1.18.2022 20:24:36.474
443, 1.83347, 0.141085, 84.9037, -0.000976562, 0, -0.000976562, -0.0566406, 0.291016, -9.74121, 1.18.2022 20:24:36.482
444, 1.83347, 0.141085, 84.9037, 0, 0, -0.000976562, 0.0166016, 0.304688, -9.7373, 1.18.2022 20:24:36.490
445, 1.83347, 0.141085, 84.9037, -0.000976562, -0.000976562, 0.000976562, -0.0527344, 0.305664, -9.75488, 1.18.2022 20:24:36.498
446, 1.83347, 0.141085, 84.9037, -0.000976562, -0.000976562, -0.00195312, -0.0332031, 0.322266, -9.74512, 1.18.2022 20:24:36.506
447, 1.83347, 0.141085, 84.9037, -0.00195312, -0.000976562, -0.000976562, 0.0341797, 0.273438, -9.72168, 1.18.2022 20:24:36.514
448, 1.83347, 0.141085, 84.9037, -0.000976562, -0.00195312, -0.000976562, -0.0791016, 0.322266, -9.76074, 1.18.2022 20:24:36.522
449, 1.83347, 0.141085, 84.9037, -0.000976562, 0, -0.000976562, 0.00292969, 0.313477, -9.71582, 1.18.2022 20:24:36.530
450, 1.83818, 0.135926, 84.9038, -0.000976562, -0.000976562, 0.000976562, 0.00976562, 0.282227, -9.71387, 1.18.2022 20:24:36.538
451, 1.83818, 0.135926, 84.9038, -0.000976562, 0, 0.000976562, -0.0703125, 0.328125, -9.7041, 1.18.2022 20:24:36.546
452, 1.83818, 0.135926, 84.9038, 0, 0, -0.000976562, 0.00292969, 0.30957, -9.72266, 1.18.2022 20:24:36.554
453, 1.83818, 0.135926, 84.9038, -0.000976562, 0, -0.000976562, -0.0654297, 0.318359, -9.70508, 1.18.2022 20:24:36.562
454, 1.83818, 0.135926, 84.9038, -0.000976562, -0.000976562, -0.000976562, -0.0283203, 0.329102, -9.73828, 1.18.2022 20:24:36.570
455, 1.83818, 0.135926, 84.9038, -0.00195312, 0, 0.000976562, 0.0146484, 0.302734, -9.74414, 1.18.2022 20:24:36.578
456, 1.83818, 0.135926, 84.9038, -0.000976562, -0.000976562, -0.000976562, -0.0771484, 0.303711, -9.68848, 1.18.2022 20:24:36.586
457, 1.83818, 0.135926, 84.9038, -0.000976562, -0.000976562, -0.000976562, -0.015625, 0.301758, -9.71289, 1.18.2022 20:24:36.594
458, 1.83818, 0.135926, 84.9038, -0.000976562, -0.000976562, -0.000976562, 0.00683594, 0.291016, -9.75586, 1.18.2022 20:24:36.602
459, 1.83818, 0.135926, 84.9038, 0, -0.000976562, 0.000976562, -0.0732422, 0.324219, -9.7373, 1.18.2022 20:24:36.610
460, 1.83818, 0.135926, 84.9038, -0.000976562, -0.000976562, -0.000976562, 0.0283203, 0.31543, -9.77051, 1.18.2022 20:24:36.618
461, 1.83818, 0.135926, 84.9038, -0.000976562, -0.000976562, -0.000976562, -0.0429688, 0.317383, -9.75684, 1.18.2022 20:24:36.626
462, 1.83818, 0.135926, 84.9038, -0.000976562, 0, -0.000976562, -0.0673828, 0.327148, -9.76562, 1.18.2022 20:24:36.634
463, 1.83818, 0.135926, 84.9038, -0.000976562, 0, -0.000976562, 0.0078125, 0.306641, -9.73242, 1.18.2022 20:24:36.642
464, 1.83818, 0.135926, 84.9038, 0, 0, -0.000976562, -0.0576172, 0.334961, -9.76855, 1.18.2022 20:24:36.650
465, 1.83818, 0.135926, 84.9038, -0.000976562, -0.000976562, -0.00195312, -0.0332031, 0.316406, -9.72656, 1.18.2022 20:24:36.658
466, 1.83818, 0.135926, 84.9038, -0.000976562, -0.000976562, -0.000976562, 0.00878906, 0.287109, -9.77539, 1.18.2022 20:24:36.666
467, 1.83818, 0.135926, 84.9038, -0.00195312, -0.000976562, -0.000976562, -0.0595703, 0.314453, -9.72656, 1.18.2022 20:24:36.674
468, 1.83818, 0.135926, 84.9038, -0.000976562, -0.000976562, -0.000976562, -0.00390625, 0.291992, -9.70898, 1.18.2022 20:24:36.682
469, 1.83818, 0.135926, 84.9038, 0, -0.000976562, -0.00195312, -0.0166016, 0.30957, -9.74609, 1.18.2022 20:24:36.690
470, 1.83818, 0.135926, 84.9038, -0.000976562, -0.000976562, -0.000976562, -0.0322266, 0.313477, -9.70312, 1.18.2022 20:24:36.698
471, 1.83818, 0.135926, 84.9038, 0, -0.000976562, -0.000976562, 0.0332031, 0.283203, -9.73535, 1.18.2022 20:24:36.706
472, 1.83818, 0.135926, 84.9038, 0, -0.000976562, 0.000976562, -0.0585938, 0.287109, -9.70605, 1.18.2022 20:24:36.714
473, 1.83818, 0.135926, 84.9038, -0.000976562, -0.000976562, -0.000976562, -0.0146484, 0.292969, -9.75781, 1.18.2022 20:24:36.722
474, 1.83818, 0.135926, 84.9038, -0.000976562, 0, -0.000976562, -0.0117188, 0.30957, -9.72266, 1.18.2022 20:24:36.730
475, 1.83818, 0.135926, 84.9038, 0, 0, -0.000976562, -0.0664062, 0.319336, -9.73047, 1.18.2022 20:24:36.738
476, 1.83794, 0.135856, 84.8939, 0, -0.000976562, -0.000976562, -0.000976562, 0.296875, -9.69727, 1.18.2022 20:24:36.746
477, 1.83794, 0.135856, 84.8939, 0, -0.000976562, -0.000976562, -0.0332031, 0.305664, -9.75977, 1.18.2022 20:24:36.754
478, 1.83794, 0.135856, 84.8939, 0, 0, -0.000976562, -0.0488281, 0.308594, -9.70996, 1.18.2022 20:24:36.762
479, 1.83794, 0.135856, 84.8939, -0.000976562, 0, -0.000976562, 0.00976562, 0.299805, -9.74219, 1.18.2022 20:24:36.770
480, 1.83794, 0.135856, 84.8939, 0, 0, -0.000976562, -0.0585938, 0.311523, -9.7168, 1.18.2022 20:24:36.778
481, 1.83794, 0.135856, 84.8939, -0.000976562, -0.000976562, 0.000976562, -0.0478516, 0.317383, -9.76172, 1.18.2022 20:24:36.786
482, 1.83794, 0.135856, 84.8939, -0.000976562, 0, -0.000976562, 0.0332031, 0.305664, -9.78223, 1.18.2022 20:24:36.794
483, 1.83794, 0.135856, 84.8939, 0, 0, -0.000976562, -0.09375, 0.31543, -9.6875, 1.18.2022 20:24:36.802
484, 1.83794, 0.135856, 84.8939, -0.000976562, -0.000976562, -0.000976562, -0.00390625, 0.331055, -9.72168, 1.18.2022 20:24:36.810
485, 1.83794, 0.135856, 84.8939, -0.000976562, -0.000976562, -0.000976562, -0.0253906, 0.326172, -9.71973, 1.18.2022 20:24:36.818
486, 1.83794, 0.135856, 84.8939, -0.000976562, -0.000976562, 0.000976562, -0.0849609, 0.306641, -9.72852, 1.18.2022 20:24:36.826
487, 1.83794, 0.135856, 84.8939, -0.000976562, 0, -0.000976562, 0.0361328, 0.297852, -9.75391, 1.18.2022 20:24:36.834
488, 1.83794, 0.135856, 84.8939, -0.00195312, -0.000976562, -0.000976562, -0.0400391, 0.321289, -9.74316, 1.18.2022 20:24:36.842
489, 1.83794, 0.135856, 84.8939, -0.00195312, -0.00195312, -0.00195312, -0.0644531, 0.333984, -9.74414, 1.18.2022 20:24:36.850
490, 1.83794, 0.135856, 84.8939, -0.000976562, -0.000976562, -0.000976562, 0.0117188, 0.293945, -9.77734, 1.18.2022 20:24:36.858
491, 1.83794, 0.135856, 84.8939, -0.000976562, -0.000976562, -0.000976562, -0.046875, 0.318359, -9.71973, 1.18.2022 20:24:36.866
492, 1.83794, 0.135856, 84.8939, 0, -0.000976562, -0.000976562, -0.0166016, 0.321289, -9.73145, 1.18.2022 20:24:36.874
493, 1.83322, 0.141016, 84.8939, 0, -0.000976562, -0.000976562, -0.00683594, 0.297852, -9.74609, 1.18.2022 20:24:36.882
494, 1.83322, 0.141016, 84.8939, 0, -0.000976562, -0.000976562, -0.0859375, 0.332031, -9.75391, 1.18.2022 20:24:36.890
495, 1.83322, 0.141016, 84.8939, -0.000976562, -0.000976562, 0.000976562, 0.0332031, 0.327148, -9.77734, 1.18.2022 20:24:36.898
496, 1.83346, 0.140928, 84.8934, -0.000976562, -0.000976562, -0.000976562, -0.0429688, 0.304688, -9.74121, 1.18.2022 20:24:36.906
497, 1.83346, 0.140928, 84.8934, -0.000976562, -0.000976562, -0.000976562, -0.0830078, 0.329102, -9.73047, 1.18.2022 20:24:36.914
498, 1.83346, 0.140928, 84.8934, -0.000976562, 0, 0.000976562, 0.0146484, 0.300781, -9.75879, 1.18.2022 20:24:36.922
499, 1.83346, 0.140928, 84.8934, -0.000976562, -0.000976562, -0.000976562, -0.0712891, 0.322266, -9.74219, 1.18.2022 20:24:36.930
500, 1.83346, 0.140928, 84.8934, -0.000976562, -0.000976562, -0.000976562, -0.0302734, 0.308594, -9.70996, 1.18.2022 20:24:36.938
501, 1.83346, 0.140928, 84.8934, -0.000976562, 0, 0, 0.0126953, 0.308594, -9.7041, 1.18.2022 20:24:36.946
502, 1.83346, 0.140928, 84.8934, -0.000976562, 0, 0, -0.0927734, 0.331055, -9.73047, 1.18.2022 20:24:36.954
503, 1.83817, 0.135768, 84.8934, -0.000976562, -0.000976562, -0.000976562, 0.00488281, 0.304688, -9.73438, 1.18.2022 20:24:36.962
504, 1.83346, 0.140928, 84.8934, -0.000976562, -0.000976562, -0.000976562, -0.0234375, 0.271484, -9.73535, 1.18.2022 20:24:36.970
505, 1.83817, 0.135768, 84.8934, -0.000976562, 0, 0, -0.0664062, 0.331055, -9.7207, 1.18.2022 20:24:36.978
506, 1.83817, 0.135768, 84.8934, 0, -0.000976562, -0.000976562, 0.0292969, 0.306641, -9.70703, 1.18.2022 20:24:36.986
507, 1.83346, 0.140928, 84.8934, 0, -0.000976562, -0.000976562, -0.0449219, 0.295898, -9.75488, 1.18.2022 20:24:36.994
508, 1.83346, 0.140928, 84.8934, -0.000976562, -0.000976562, -0.00195312, -0.0478516, 0.336914, -9.77051, 1.18.2022 20:24:37.002
509, 1.83346, 0.140928, 84.8934, -0.000976562, 0, 0, -0.00683594, 0.319336, -9.73145, 1.18.2022 20:24:37.010
510, 1.83346, 0.140928, 84.8934, -0.000976562, -0.000976562, 0.000976562, -0.0878906, 0.324219, -9.75391, 1.18.2022 20:24:37.018
511, 1.83346, 0.140928, 84.8934, -0.000976562, -0.000976562, -0.000976562, -0.03125, 0.301758, -9.79785, 1.18.2022 20:24:37.026
512, 1.83346, 0.140928, 84.8934, -0.000976562, -0.000976562, -0.000976562, 0.0126953, 0.290039, -9.72363, 1.18.2022 20:24:37.034
513, 1.83817, 0.135768, 84.8934, -0.000976562, 0, 0, -0.0546875, 0.328125, -9.73047, 1.18.2022 20:24:37.042
514, 1.83817, 0.135768, 84.8934, -0.000976562, 0, 0, 0.03125, 0.293945, -9.71191, 1.18.2022 20:24:37.050
515, 1.83817, 0.135768, 84.8934, 0, 0, 0.000976562, -0.0234375, 0.319336, -9.75, 1.18.2022 20:24:37.058
516, 1.83817, 0.135768, 84.8934, 0, -0.000976562, 0.000976562, -0.0556641, 0.332031, -9.78223, 1.18.2022 20:24:37.066
517, 1.83817, 0.135768, 84.8934, -0.000976562, 0, 0, 0.0283203, 0.317383, -9.75391, 1.18.2022 20:24:37.074
518, 1.83817, 0.135768, 84.8934, -0.000976562, 0, 0, -0.0878906, 0.314453, -9.73535, 1.18.2022 20:24:37.082
519, 1.83817, 0.135768, 84.8934, -0.000976562, 0, 0, -0.00683594, 0.325195, -9.71484, 1.18.2022 20:24:37.090
520, 1.83817, 0.135768, 84.8934, -0.000976562, -0.000976562, -0.00195312, -0.0185547, 0.297852, -9.75098, 1.18.2022 20:24:37.098
521, 1.83794, 0.135856, 84.8939, -0.000976562, -0.000976562, -0.00195312, -0.0878906, 0.314453, -9.75195, 1.18.2022 20:24:37.106
522, 1.83794, 0.135856, 84.8939, -0.000976562, -0.000976562, -0.000976562, 0.00878906, 0.300781, -9.77539, 1.18.2022 20:24:37.114
523, 1.83794, 0.135856, 84.8939, 0, -0.000976562, -0.000976562, -0.0244141, 0.306641, -9.78809, 1.18.2022 20:24:37.122
524, 1.83817, 0.135768, 84.8934, 0, 0, -0.000976562, -0.0615234, 0.317383, -9.74512, 1.18.2022 20:24:37.130
525, 1.83817, 0.135768, 84.8934, 0, 0, -0.000976562, 0.0244141, 0.307617, -9.74707, 1.18.2022 20:24:37.138
526, 1.83817, 0.135768, 84.8934, 0, 0, -0.000976562, -0.0566406, 0.321289, -9.73047, 1.18.2022 20:24:37.146
527, 1.83817, 0.135768, 84.8934, -0.000976562, -0.000976562, -0.000976562, -0.0527344, 0.327148, -9.75684, 1.18.2022 20:24:37.154
528, 1.83817, 0.135768, 84.8934, -0.000976562, 0, -0.000976562, 0.0195312, 0.304688, -9.73047, 1.18.2022 20:24:37.162
529, 1.83817, 0.135768, 84.8934, 0, -0.000976562, -0.00195312, -0.0957031, 0.323242, -9.79395, 1.18.2022 20:24:37.170
530, 1.83817, 0.135768, 84.8934, -0.000976562, -0.000976562, -0.000976562, -0.0117188, 0.304688, -9.74414, 1.18.2022 20:24:37.176
531, 1.83817, 0.135768, 84.8934, -0.000976562, -0.000976562, -0.000976562, -0.00683594, 0.306641, -9.73242, 1.18.2022 20:24:37.184
532, 1.83793, 0.135698, 84.8836, -0.000976562, -0.000976562, -0.000976562, -0.0400391, 0.299805, -9.73438, 1.18.2022 20:24:37.192
533, 1.83793, 0.135698, 84.8836, -0.000976562, 0, -0.000976562, 0.0263672, 0.27832, -9.74316, 1.18.2022 20:24:37.200
534, 1.83793, 0.135698, 84.8836, 0, 0, -0.000976562, -0.0644531, 0.310547, -9.76172, 1.18.2022 20:24:37.208
535, 1.83321, 0.140859, 84.8836, 0, -0.000976562, -0.000976562, -0.0683594, 0.323242, -9.72559, 1.18.2022 20:24:37.216
536, 1.83345, 0.14077, 84.8831, -0.000976562, -0.000976562, -0.000976562, 0.0244141, 0.3125, -9.74902, 1.18.2022 20:24:37.224
537, 1.83345, 0.14077, 84.8831, -0.000976562, -0.000976562, -0.000976562, -0.0546875, 0.326172, -9.72559, 1.18.2022 20:24:37.232
538, 1.83345, 0.14077, 84.8831, -0.000976562, -0.000976562, -0.000976562, -0.0283203, 0.3125, -9.75977, 1.18.2022 20:24:37.240
539, 1.83345, 0.14077, 84.8831, 0, -0.000976562, -0.000976562, 0.0146484, 0.30957, -9.75098, 1.18.2022 20:24:37.248
540, 1.83345, 0.14077, 84.8831, -0.000976562, -0.000976562, -0.000976562, -0.0712891, 0.311523, -9.7334, 1.18.2022 20:24:37.256
541, 1.83345, 0.14077, 84.8831, -0.000976562, -0.000976562, -0.000976562, 0.0224609, 0.318359, -9.7207, 1.18.2022 20:24:37.264
542, 1.83345, 0.14077, 84.8831, -0.000976562, -0.000976562, -0.000976562, -0.03125, 0.302734, -9.75977, 1.18.2022 20:24:37.272
543, 1.83345, 0.14077, 84.8831, -0.000976562, -0.000976562, -0.000976562, -0.0585938, 0.308594, -9.69336, 1.18.2022 20:24:37.280
544, 1.83345, 0.14077, 84.8831, -0.000976562, -0.000976562, -0.000976562, 0.0166016, 0.299805, -9.73535, 1.18.2022 20:24:37.288
545, 1.83345, 0.14077, 84.8831, 0, -0.000976562, -0.000976562, -0.0751953, 0.337891, -9.71875, 1.18.2022 20:24:37.296
546, 1.83345, 0.14077, 84.8831, 0, -0.000976562, -0.000976562, -0.00683594, 0.345703, -9.7334, 1.18.2022 20:24:37.304
547, 1.83321, 0.140701, 84.8733, -0.000976562, -0.000976562, 0.000976562, -0.00292969, 0.317383, -9.77246, 1.18.2022 20:24:37.312
548, 1.83321, 0.140701, 84.8733, -0.000976562, -0.000976562, -0.000976562, -0.0732422, 0.321289, -9.7168, 1.18.2022 20:24:37.320
549, 1.83321, 0.140701, 84.8733, -0.000976562, 0, -0.000976562, 0.0166016, 0.310547, -9.75879, 1.18.2022 20:24:37.328
550, 1.83321, 0.140701, 84.8733, -0.000976562, -0.000976562, -0.000976562, -0.0361328, 0.310547, -9.75488, 1.18.2022 20:24:37.336
551, 1.83345, 0.14077, 84.8831, 0, -0.000976562, -0.000976562, -0.0644531, 0.34375, -9.74707, 1.18.2022 20:24:37.344
552, 1.83345, 0.14077, 84.8831, -0.000976562, -0.000976562, -0.000976562, 0.0263672, 0.301758, -9.72559, 1.18.2022 20:24:37.352
553, 1.83345, 0.14077, 84.8831, -0.00195312, -0.000976562, 0.000976562, -0.0458984, 0.34375, -9.76562, 1.18.2022 20:24:37.360
554, 1.83345, 0.14077, 84.8831, -0.00195312, -0.000976562, 0.000976562, -0.0205078, 0.328125, -9.7168, 1.18.2022 20:24:37.368
555, 1.83345, 0.14077, 84.8831, -0.000976562, -0.000976562, -0.000976562, -0.0117188, 0.310547, -9.76465, 1.18.2022 20:24:37.376
556, 1.83345, 0.14077, 84.8831, -0.000976562, 0, -0.000976562, -0.0634766, 0.308594, -9.70312, 1.18.2022 20:24:37.384
557, 1.83345, 0.14077, 84.8831, -0.000976562, -0.000976562, -0.000976562, 0.000976562, 0.285156, -9.70703, 1.18.2022 20:24:37.392
558, 1.83861, 0.145489, 84.8829, -0.000976562, -0.000976562, -0.000976562, -0.00195312, 0.271484, -9.72852, 1.18.2022 20:24:37.400
559, 1.83861, 0.145489, 84.8829, -0.000976562, 0, -0.000976562, -0.0742188, 0.298828, -9.7666, 1.18.2022 20:24:37.408
560, 1.83861, 0.145489, 84.8829, 0, 0, -0.000976562, 0.0361328, 0.266602, -9.75293, 1.18.2022 20:24:37.416
561, 1.83345, 0.14077, 84.8831, 0, -0.000976562, -0.000976562, -0.0498047, 0.322266, -9.76367, 1.18.2022 20:24:37.424
562, 1.83321, 0.140859, 84.8836, 0, 0, -0.00195312, -0.0351562, 0.331055, -9.73828, 1.18.2022 20:24:37.432
563, 1.83321, 0.140859, 84.8836, -0.000976562, 0, -0.000976562, 0.0390625, 0.306641, -9.71582, 1.18.2022 20:24:37.440
564, 1.83321, 0.140859, 84.8836, -0.000976562, -0.000976562, -0.000976562, -0.0566406, 0.333008, -9.72852, 1.18.2022 20:24:37.448
565, 1.83321, 0.140859, 84.8836, -0.000976562, 0, 0.000976562, -0.00488281, 0.320312, -9.76465, 1.18.2022 20:24:37.456
566, 1.83321, 0.140859, 84.8836, -0.000976562, 0, 0.000976562, 0.00976562, 0.295898, -9.74902, 1.18.2022 20:24:37.464
567, 1.83321, 0.140859, 84.8836, 0, 0, -0.000976562, -0.0712891, 0.339844, -9.7207, 1.18.2022 20:24:37.472
568, 1.83321, 0.140859, 84.8836, 0, -0.000976562, -0.000976562, 0.0341797, 0.291992, -9.72559, 1.18.2022 20:24:37.480
569, 1.83321, 0.140859, 84.8836, -0.000976562, 0, -0.00195312, -0.0146484, 0.292969, -9.75781, 1.18.2022 20:24:37.488
570, 1.83321, 0.140859, 84.8836, -0.00195312, 0, -0.000976562, -0.0595703, 0.322266, -9.74219, 1.18.2022 20:24:37.496
571, 1.83345, 0.14077, 84.8831, -0.000976562, 0.000976562, 0.000976562, -0.0166016, 0.307617, -9.75293, 1.18.2022 20:24:37.504
572, 1.83345, 0.14077, 84.8831, 0, 0, 0.000976562, -0.0654297, 0.301758, -9.70312, 1.18.2022 20:24:37.512
573, 1.83345, 0.14077, 84.8831, -0.000976562, -0.000976562, 0.000976562, -0.0351562, 0.307617, -9.74121, 1.18.2022 20:24:37.520
574, 1.83345, 0.14077, 84.8831, 0, -0.000976562, -0.000976562, -0.00488281, 0.299805, -9.73926, 1.18.2022 20:24:37.528
575, 1.83345, 0.14077, 84.8831, -0.00195312, -0.000976562, 0.000976562, -0.0732422, 0.308594, -9.71191, 1.18.2022 20:24:37.536
576, 1.83816, 0.13561, 84.8831, -0.00195312, 0, -0.000976562, 0.00585938, 0.293945, -9.70703, 1.18.2022 20:24:37.544
577, 1.83816, 0.13561, 84.8831, -0.000976562, 0, -0.000976562, -0.0214844, 0.305664, -9.76465, 1.18.2022 20:24:37.552
578, 1.83816, 0.13561, 84.8831, 0, 0, -0.000976562, -0.0712891, 0.34082, -9.75098, 1.18.2022 20:24:37.560
579, 1.83816, 0.13561, 84.8831, 0, -0.000976562, -0.00195312, 0.0234375, 0.300781, -9.75195, 1.18.2022 20:24:37.568
580, 1.83792, 0.13554, 84.8733, 0, -0.000976562, -0.000976562, -0.0410156, 0.317383, -9.76465, 1.18.2022 20:24:37.576
581, 1.83792, 0.13554, 84.8733, -0.000976562, -0.000976562, -0.000976562, -0.0126953, 0.313477, -9.77637, 1.18.2022 20:24:37.584
582, 1.83321, 0.140701, 84.8733, -0.000976562, -0.00195312, -0.000976562, 0.00976562, 0.3125, -9.74609, 1.18.2022 20:24:37.592
583, 1.83321, 0.140701, 84.8733, -0.000976562, -0.000976562, -0.000976562, -0.0898438, 0.324219, -9.72559, 1.18.2022 20:24:37.600
584, 1.83344, 0.140613, 84.8728, -0.000976562, -0.000976562, -0.000976562, 0.0263672, 0.304688, -9.72559, 1.18.2022 20:24:37.608
585, 1.83344, 0.140613, 84.8728, 0, 0, -0.00195312, -0.00488281, 0.3125, -9.74121, 1.18.2022 20:24:37.616
586, 1.83344, 0.140613, 84.8728, -0.000976562, 0, -0.000976562, -0.0234375, 0.313477, -9.70801, 1.18.2022 20:24:37.624
587, 1.83344, 0.140613, 84.8728, 0, -0.000976562, -0.000976562, 0.0449219, 0.291016, -9.75977, 1.18.2022 20:24:37.632
588, 1.83344, 0.140613, 84.8728, -0.000976562, 0, -0.000976562, -0.0302734, 0.302734, -9.73438, 1.18.2022 20:24:37.640
589, 1.83344, 0.140613, 84.8728, 0, 0, -0.000976562, -0.0302734, 0.331055, -9.72852, 1.18.2022 20:24:37.648
590, 1.83791, 0.135382, 84.8629, -0.000976562, 0, -0.000976562, 0.0449219, 0.295898, -9.76172, 1.18.2022 20:24:37.656
591, 1.83815, 0.135294, 84.8625, -0.000976562, 0, -0.000976562, -0.0917969, 0.308594, -9.71387, 1.18.2022 20:24:37.664
592, 1.83815, 0.135294, 84.8625, -0.000976562, 0, -0.00195312, 0.0107422, 0.327148, -9.68457, 1.18.2022 20:24:37.672
593, 1.83815, 0.135294, 84.8625, -0.000976562, 0, -0.000976562, -0.00976562, 0.283203, -9.74707, 1.18.2022 20:24:37.680
594, 1.83815, 0.135294, 84.8625, -0.000976562, 0, -0.000976562, -0.0458984, 0.31543, -9.76465, 1.18.2022 20:24:37.688
595, 1.83815, 0.135294, 84.8625, -0.000976562, -0.000976562, 0.000976562, 0.0263672, 0.299805, -9.73535, 1.18.2022 20:24:37.696
596, 1.83815, 0.135294, 84.8625, -0.000976562, 0, -0.000976562, -0.0273438, 0.337891, -9.71191, 1.18.2022 20:24:37.704
597, 1.83815, 0.135294, 84.8625, -0.000976562, 0, -0.000976562, -0.0283203, 0.352539, -9.72559, 1.18.2022 20:24:37.712
598, 1.83815, 0.135294, 84.8625, 0, 0, -0.000976562, 0.0332031, 0.311523, -9.73926, 1.18.2022 20:24:37.720
599, 1.8379, 0.135224, 84.8526, -0.000976562, -0.000976562, -0.000976562, -0.0810547, 0.357422, -9.74805, 1.18.2022 20:24:37.728
600, 1.8379, 0.135224, 84.8526, -0.000976562, -0.000976562, -0.000976562, -0.0361328, 0.327148, -9.75195, 1.18.2022 20:24:37.736
601, 1.83814, 0.135136, 84.8521, 0, -0.000976562, -0.000976562, -0.00195312, 0.291992, -9.72559, 1.18.2022 20:24:37.744
602, 1.83814, 0.135136, 84.8521, 0, 0, -0.000976562, -0.0849609, 0.348633, -9.68262, 1.18.2022 20:24:37.752
603, 1.83814, 0.135136, 84.8521, -0.00195312, 0, 0, 0.0292969, 0.313477, -9.69727, 1.18.2022 20:24:37.760
604, 1.83814, 0.135136, 84.8521, -0.00195312, -0.000976562, -0.000976562, -0.0166016, 0.30957, -9.73926, 1.18.2022 20:24:37.768
605, 1.83814, 0.135136, 84.8521, -0.000976562, -0.000976562, -0.000976562, -0.0644531, 0.360352, -9.75098, 1.18.2022 20:24:37.776
606, 1.83814, 0.135136, 84.8521, -0.000976562, 0, -0.000976562, 0.00585938, 0.308594, -9.7207, 1.18.2022 20:24:37.784
607, 1.83814, 0.135136, 84.8521, 0, -0.000976562, -0.000976562, -0.0537109, 0.323242, -9.71875, 1.18.2022 20:24:37.792
608, 1.83814, 0.135136, 84.8521, -0.000976562, -0.000976562, -0.000976562, -0.00585938, 0.323242, -9.70312, 1.18.2022 20:24:37.800
609, 1.83814, 0.135136, 84.8521, -0.000976562, -0.000976562, 0.000976562, -0.00488281, 0.304688, -9.74414, 1.18.2022 20:24:37.808
610, 1.83814, 0.135136, 84.8521, 0, 0, -0.000976562, -0.0742188, 0.324219, -9.74707, 1.18.2022 20:24:37.816
611, 1.83814, 0.135136, 84.8521, 0, -0.000976562, -0.000976562, 0.0078125, 0.320312, -9.69141, 1.18.2022 20:24:37.824
612, 1.83814, 0.135136, 84.8521, 0, -0.000976562, -0.000976562, -0.0146484, 0.302734, -9.76074, 1.18.2022 20:24:37.832
613, 1.83814, 0.135136, 84.8521, 0, -0.000976562, -0.000976562, -0.046875, 0.333008, -9.70215, 1.18.2022 20:24:37.840
614, 1.83814, 0.135136, 84.8521, 0, -0.000976562, -0.000976562, 0.0332031, 0.271484, -9.75293, 1.18.2022 20:24:37.848
615, 1.83814, 0.135136, 84.8521, 0, 0, -0.000976562, -0.0517578, 0.328125, -9.71387, 1.18.2022 20:24:37.856
616, 1.83814, 0.135136, 84.8521, -0.000976562, 0, -0.000976562, -0.0537109, 0.328125, -9.70215, 1.18.2022 20:24:37.864
617, 1.83814, 0.135136, 84.8521, -0.000976562, -0.000976562, -0.000976562, 0.0390625, 0.321289, -9.72559, 1.18.2022 20:24:37.872
618, 1.83814, 0.135136, 84.8521, -0.000976562, 0, -0.000976562, -0.046875, 0.333008, -9.72559, 1.18.2022 20:24:37.880
619, 1.83814, 0.135136, 84.8521, 0, 0, -0.000976562, 0.0185547, 0.305664, -9.76367, 1.18.2022 20:24:37.888
620, 1.83789, 0.135066, 84.8423, -0.000976562, -0.000976562, 0.000976562, -0.0146484, 0.325195, -9.7666, 1.18.2022 20:24:37.896
621, 1.83813, 0.134978, 84.8418, -0.000976562, -0.000976562, -0.000976562, -0.0693359, 0.332031, -9.75879, 1.18.2022 20:24:37.904
622, 1.83813, 0.134978, 84.8418, 0, -0.000976562, -0.00195312, 0.0195312, 0.294922, -9.74023, 1.18.2022 20:24:37.912
623, 1.83813, 0.134978, 84.8418, -0.000976562, -0.000976562, -0.000976562, -0.0283203, 0.3125, -9.7666, 1.18.2022 20:24:37.920
624, 1.83813, 0.134978, 84.8418, -0.000976562, -0.000976562, -0.000976562, -0.015625, 0.310547, -9.70312, 1.18.2022 20:24:37.928
625, 1.83813, 0.134978, 84.8418, -0.000976562, 0, -0.000976562, 0.03125, 0.292969, -9.74023, 1.18.2022 20:24:37.936
626, 1.83813, 0.134978, 84.8418, -0.000976562, -0.000976562, -0.000976562, -0.0634766, 0.316406, -9.72363, 1.18.2022 20:24:37.944
627, 1.83813, 0.134978, 84.8418, -0.000976562, -0.000976562, 0.000976562, -0.0371094, 0.311523, -9.7168, 1.18.2022 20:24:37.952
628, 1.83813, 0.134978, 84.8418, -0.000976562, -0.000976562, 0.000976562, -0.00488281, 0.302734, -9.74902, 1.18.2022 20:24:37.960
629, 1.83813, 0.134978, 84.8418, -0.000976562, -0.000976562, -0.000976562, -0.0664062, 0.323242, -9.72363, 1.18.2022 20:24:37.968
630, 1.83813, 0.134978, 84.8418, 0, -0.000976562, -0.000976562, -0.00195312, 0.306641, -9.72266, 1.18.2022 20:24:37.976
631, 1.83813, 0.134978, 84.8418, -0.000976562, 0, 0.000976562, -0.0371094, 0.333984, -9.68359, 1.18.2022 20:24:37.984
632, 1.83813, 0.134978, 84.8418, 0, -0.000976562, -0.00195312, -0.0566406, 0.324219, -9.74219, 1.18.2022 20:24:37.992
633, 1.83813, 0.134978, 84.8418, 0, -0.000976562, -0.00195312, 0.00976562, 0.293945, -9.76074, 1.18.2022 20:24:38.000
634, 1.83813, 0.134978, 84.8418, -0.000976562, -0.000976562, -0.000976562, -0.0585938, 0.331055, -9.72559, 1.18.2022 20:24:38.008
635, 1.83813, 0.134978, 84.8418, -0.000976562, 0, -0.000976562, -0.0195312, 0.322266, -9.76172, 1.18.2022 20:24:38.016
636, 1.83814, 0.135136, 84.8521, 0, -0.000976562, -0.000976562, -0.00292969, 0.320312, -9.77148, 1.18.2022 20:24:38.024
637, 1.83814, 0.135136, 84.8521, 0, -0.000976562, -0.000976562, -0.0585938, 0.339844, -9.71387, 1.18.2022 20:24:38.032
638, 1.83814, 0.135136, 84.8521, -0.000976562, -0.000976562, -0.000976562, 0.00488281, 0.3125, -9.74121, 1.18.2022 20:24:38.040
639, 1.83814, 0.135136, 84.8521, -0.000976562, -0.000976562, -0.000976562, -0.0117188, 0.323242, -9.72168, 1.18.2022 20:24:38.048
640, 1.83814, 0.135136, 84.8521, -0.00195312, 0, -0.000976562, -0.0605469, 0.333008, -9.78906, 1.18.2022 20:24:38.056
641, 1.83814, 0.135136, 84.8521, -0.000976562, -0.000976562, -0.000976562, 0.0361328, 0.299805, -9.73047, 1.18.2022 20:24:38.064
642, 1.83814, 0.135136, 84.8521, -0.000976562, 0, -0.000976562, -0.0400391, 0.3125, -9.75, 1.18.2022 20:24:38.072
643, 1.83814, 0.135136, 84.8521, -0.000976562, 0, -0.000976562, -0.0488281, 0.320312, -9.70703, 1.18.2022 20:24:38.080
644, 1.83814, 0.135136, 84.8521, -0.000976562, 0, -0.000976562, -0.0166016, 0.294922, -9.73926, 1.18.2022 20:24:38.088
645, 1.83814, 0.135136, 84.8521, 0, 0, -0.000976562, -0.0898438, 0.331055, -9.7373, 1.18.2022 20:24:38.096
646, 1.83814, 0.135136, 84.8521, -0.000976562, -0.000976562, -0.000976562, 0, 0.297852, -9.75391, 1.18.2022 20:24:38.104
647, 1.83814, 0.135136, 84.8521, 0, -0.000976562, -0.000976562, -0.03125, 0.307617, -9.75781, 1.18.2022 20:24:38.112
648, 1.83814, 0.135136, 84.8521, 0, -0.000976562, -0.000976562, -0.0224609, 0.332031, -9.7002, 1.18.2022 20:24:38.120
649, 1.8379, 0.135224, 84.8526, 0, 0, 0.000976562, 0.0292969, 0.313477, -9.72559, 1.18.2022 20:24:38.128
650, 1.8379, 0.135224, 84.8526, 0, 0, -0.000976562, -0.0283203, 0.314453, -9.74609, 1.18.2022 20:24:38.136
651, 1.8379, 0.135224, 84.8526, 0, 0, 0.000976562, -0.0429688, 0.304688, -9.74609, 1.18.2022 20:24:38.144
652, 1.83815, 0.135294, 84.8625, -0.000976562, 0, -0.000976562, 0, 0.290039, -9.73242, 1.18.2022 20:24:38.152
653, 1.83815, 0.135294, 84.8625, -0.000976562, -0.000976562, -0.000976562, -0.0810547, 0.314453, -9.75195, 1.18.2022 20:24:38.160
654, 1.83815, 0.135294, 84.8625, -0.000976562, -0.000976562, -0.000976562, -0.0146484, 0.336914, -9.76855, 1.18.2022 20:24:38.166
655, 1.83815, 0.135294, 84.8625, 0, -0.000976562, -0.000976562, 0.00488281, 0.307617, -9.76758, 1.18.2022 20:24:38.174
656, 1.83815, 0.135294, 84.8625, 0, -0.000976562, -0.000976562, -0.078125, 0.339844, -9.69922, 1.18.2022 20:24:38.184
657, 1.83815, 0.135294, 84.8625, 0, -0.000976562, -0.000976562, 0.0341797, 0.349609, -9.70312, 1.18.2022 20:24:38.190
658, 1.83815, 0.135294, 84.8625, -0.000976562, -0.000976562, 0, -0.0302734, 0.318359, -9.72461, 1.18.2022 20:24:38.198
659, 1.83815, 0.135294, 84.8625, 0, 0, -0.000976562, -0.0712891, 0.311523, -9.7334, 1.18.2022 20:24:38.206
660, 1.83815, 0.135294, 84.8625, 0, 0, -0.000976562, 0.0126953, 0.294922, -9.7207, 1.18.2022 20:24:38.214
661, 1.83815, 0.135294, 84.8625, -0.000976562, 0, -0.000976562, -0.0839844, 0.303711, -9.77344, 1.18.2022 20:24:38.222
662, 1.83791, 0.135382, 84.8629, -0.000976562, -0.000976562, -0.000976562, -0.0136719, 0.297852, -9.74121, 1.18.2022 20:24:38.230
663, 1.83791, 0.135382, 84.8629, 0, -0.000976562, -0.000976562, -0.00683594, 0.300781, -9.75586, 1.18.2022 20:24:38.238
664, 1.83791, 0.135382, 84.8629, 0, 0, -0.000976562, -0.0898438, 0.316406, -9.73242, 1.18.2022 20:24:38.246
665, 1.83791, 0.135382, 84.8629, -0.000976562, -0.000976562, -0.000976562, -0.0078125, 0.295898, -9.76758, 1.18.2022 20:24:38.254
666, 1.83791, 0.135382, 84.8629, -0.000976562, -0.000976562, 0, -0.0400391, 0.324219, -9.75, 1.18.2022 20:24:38.262
667, 1.83791, 0.135382, 84.8629, -0.000976562, -0.000976562, -0.000976562, -0.0517578, 0.319336, -9.73535, 1.18.2022 20:24:38.270
668, 1.83791, 0.135382, 84.8629, 0, -0.000976562, -0.000976562, -0.0283203, 0.297852, -9.73633, 1.18.2022 20:24:38.278
669, 1.83791, 0.135382, 84.8629, -0.000976562, 0, 0.000976562, -0.0625, 0.341797, -9.77734, 1.18.2022 20:24:38.286
670, 1.83791, 0.135382, 84.8629, 0, -0.000976562, 0, -0.046875, 0.345703, -9.73047, 1.18.2022 20:24:38.294
671, 1.83815, 0.135294, 84.8625, -0.000976562, -0.000976562, -0.000976562, -0.00390625, 0.320312, -9.70605, 1.18.2022 20:24:38.302
672, 1.83815, 0.135294, 84.8625, -0.000976562, -0.000976562, 0, -0.0810547, 0.350586, -9.76074, 1.18.2022 20:24:38.310
673, 1.83815, 0.135294, 84.8625, 0, -0.000976562, -0.000976562, -0.0117188, 0.307617, -9.74609, 1.18.2022 20:24:38.318
674, 1.83815, 0.135294, 84.8625, 0, -0.000976562, 0, -0.0166016, 0.300781, -9.76074, 1.18.2022 20:24:38.326
675, 1.83815, 0.135294, 84.8625, 0, -0.000976562, 0, -0.0458984, 0.325195, -9.79004, 1.18.2022 20:24:38.334
676, 1.83815, 0.135294, 84.8625, 0, -0.00195312, -0.000976562, 0.0478516, 0.291016, -9.75, 1.18.2022 20:24:38.342
677, 1.83815, 0.135294, 84.8625, -0.000976562, -0.000976562, -0.000976562, -0.0478516, 0.3125, -9.74805, 1.18.2022 20:24:38.350
678, 1.83815, 0.135294, 84.8625, -0.000976562, -0.000976562, -0.000976562, -0.0234375, 0.329102, -9.75, 1.18.2022 20:24:38.358
679, 1.83815, 0.135294, 84.8625, -0.000976562, -0.000976562, -0.00195312, 0, 0.302734, -9.76074, 1.18.2022 20:24:38.366
680, 1.83815, 0.135294, 84.8625, -0.000976562, 0, -0.000976562, -0.0830078, 0.34082, -9.74609, 1.18.2022 20:24:38.374
681, 1.83815, 0.135294, 84.8625, -0.000976562, -0.000976562, 0, -0.0185547, 0.325195, -9.70801, 1.18.2022 20:24:38.382
682, 1.83815, 0.135294, 84.8625, -0.000976562, 0, -0.000976562, -0.0166016, 0.28125, -9.74219, 1.18.2022 20:24:38.390
683, 1.83815, 0.135294, 84.8625, 0, -0.000976562, 0, -0.0615234, 0.323242, -9.72363, 1.18.2022 20:24:38.398
684, 1.8379, 0.135224, 84.8526, -0.000976562, -0.000976562, 0, 0.0126953, 0.328125, -9.73438, 1.18.2022 20:24:38.406
685, 1.83814, 0.135136, 84.8521, 0, 0, -0.000976562, -0.00976562, 0.297852, -9.74609, 1.18.2022 20:24:38.414
686, 1.83814, 0.135136, 84.8521, 0, 0, -0.000976562, -0.046875, 0.345703, -9.74023, 1.18.2022 20:24:38.422
687, 1.83814, 0.135136, 84.8521, 0.000976562, -0.000976562, -0.000976562, 0.00292969, 0.294922, -9.7207, 1.18.2022 20:24:38.430
688, 1.83814, 0.135136, 84.8521, -0.000976562, 0, -0.000976562, -0.0546875, 0.331055, -9.72363, 1.18.2022 20:24:38.438
689, 1.83814, 0.135136, 84.8521, -0.000976562, 0, -0.000976562, -0.0185547, 0.317383, -9.75293, 1.18.2022 20:24:38.446
690, 1.83814, 0.135136, 84.8521, -0.000976562, -0.000976562, -0.000976562, 0.0195312, 0.302734, -9.73926, 1.18.2022 20:24:38.454
691, 1.83814, 0.135136, 84.8521, 0, -0.000976562, -0.000976562, -0.100586, 0.324219, -9.75586, 1.18.2022 20:24:38.462
692, 1.83814, 0.135136, 84.8521, -0.000976562, -0.000976562, -0.000976562, 0.00878906, 0.301758, -9.78418, 1.18.2022 20:24:38.470
693, 1.83814, 0.135136, 84.8521, 0, -0.000976562, -0.000976562, -0.00878906, 0.301758, -9.72461, 1.18.2022 20:24:38.478
694, 1.83814, 0.135136, 84.8521, 0, -0.000976562, -0.000976562, -0.0566406, 0.333984, -9.74902, 1.18.2022 20:24:38.486
695, 1.83814, 0.135136, 84.8521, -0.000976562, -0.000976562, -0.000976562, 0.0263672, 0.283203, -9.74512, 1.18.2022 20:24:38.494
696, 1.8433, 0.139853, 84.852, -0.000976562, 0, -0.000976562, -0.0429688, 0.329102, -9.75195, 1.18.2022 20:24:38.502
697, 1.8433, 0.139853, 84.852, -0.000976562, 0, -0.000976562, -0.046875, 0.352539, -9.73047, 1.18.2022 20:24:38.510
698, 1.8433, 0.139853, 84.852, -0.000976562, -0.000976562, -0.000976562, 0.00292969, 0.304688, -9.72266, 1.18.2022 20:24:38.518
699, 1.8433, 0.139853, 84.852, 0, -0.000976562, -0.00195312, -0.0683594, 0.356445, -9.71289, 1.18.2022 20:24:38.526
700, 1.8433, 0.139853, 84.852, 0, -0.000976562, -0.000976562, -0.0419922, 0.299805, -9.71484, 1.18.2022 20:24:38.534
701, 1.8433, 0.139853, 84.852, -0.000976562, -0.000976562, -0.00195312, -0.00976562, 0.28418, -9.75391, 1.18.2022 20:24:38.542
702, 1.8433, 0.139853, 84.852, -0.000976562, -0.000976562, -0.000976562, -0.0566406, 0.304688, -9.74121, 1.18.2022 20:24:38.550
703, 1.8433, 0.139853, 84.852, 0, -0.000976562, -0.00195312, 0.0234375, 0.286133, -9.75195, 1.18.2022 20:24:38.558
704, 1.8433, 0.139853, 84.852, 0, -0.000976562, -0.000976562, -0.0429688, 0.307617, -9.75293, 1.18.2022 20:24:38.566
705, 1.8433, 0.139853, 84.852, -0.000976562, -0.000976562, -0.000976562, -0.046875, 0.318359, -9.7168, 1.18.2022 20:24:38.574
706, 1.8433, 0.139853, 84.852, -0.000976562, -0.000976562, -0.000976562, 0.0117188, 0.283203, -9.74512, 1.18.2022 20:24:38.582
707, 1.8433, 0.139853, 84.852, 0, -0.000976562, -0.000976562, -0.0712891, 0.34082, -9.72754, 1.18.2022 20:24:38.590
708, 1.8433, 0.139853, 84.852, 0, -0.000976562, -0.000976562, 0.0166016, 0.316406, -9.74121, 1.18.2022 20:24:38.598
709, 1.8433, 0.139853, 84.852, 0, 0, -0.000976562, 0.00488281, 0.311523, -9.72754, 1.18.2022 20:24:38.606
710, 1.8433, 0.139853, 84.852, -0.000976562, -0.000976562, 0, -0.0849609, 0.313477, -9.70508, 1.18.2022 20:24:38.614
711, 1.84306, 0.139942, 84.8524, -0.000976562, -0.000976562, -0.00195312, 0.0185547, 0.325195, -9.78418, 1.18.2022 20:24:38.622
712, 1.84306, 0.139942, 84.8524, 0, -0.000976562, -0.000976562, -0.0380859, 0.341797, -9.76855, 1.18.2022 20:24:38.630
713, 1.8433, 0.140012, 84.8623, 0, -0.000976562, -0.000976562, -0.0429688, 0.34375, -9.76855, 1.18.2022 20:24:38.638
714, 1.8433, 0.140012, 84.8623, -0.000976562, -0.000976562, -0.000976562, 0.0341797, 0.287109, -9.7168, 1.18.2022 20:24:38.646
715, 1.8433, 0.140012, 84.8623, 0, 0, -0.000976562, -0.0576172, 0.338867, -9.76855, 1.18.2022 20:24:38.654
716, 1.8433, 0.140012, 84.8623, -0.000976562, 0, -0.000976562, -0.0166016, 0.306641, -9.72754, 1.18.2022 20:24:38.662
717, 1.8433, 0.140012, 84.8623, -0.000976562, 0, -0.000976562, 0.00292969, 0.296875, -9.72754, 1.18.2022 20:24:38.670
718, 1.8433, 0.140012, 84.8623, -0.000976562, -0.000976562, -0.000976562, -0.0693359, 0.360352, -9.75098, 1.18.2022 20:24:38.678
719, 1.8433, 0.140012, 84.8623, -0.000976562, 0, -0.000976562, 0.00488281, 0.316406, -9.73633, 1.18.2022 20:24:38.686
720, 1.8433, 0.140012, 84.8623, -0.000976562, -0.00195312, 0, -0.0185547, 0.295898, -9.74414, 1.18.2022 20:24:38.694
721, 1.8433, 0.140012, 84.8623, -0.000976562, -0.000976562, 0, -0.0253906, 0.335938, -9.73828, 1.18.2022 20:24:38.702
722, 1.8433, 0.140012, 84.8623, -0.00195312, 0, 0.000976562, 0.0185547, 0.28418, -9.77539, 1.18.2022 20:24:38.710
723, 1.8433, 0.140012, 84.8623, 0, -0.000976562, 0, -0.078125, 0.306641, -9.72363, 1.18.2022 20:24:38.718
724, 1.8433, 0.140012, 84.8623, 0, 0, 0.000976562, -0.046875, 0.310547, -9.7002, 1.18.2022 20:24:38.726
725, 1.8433, 0.140012, 84.8623, -0.000976562, -0.000976562, 0, 0.00976562, 0.291016, -9.75879, 1.18.2022 20:24:38.734
726, 1.8433, 0.140012, 84.8623, -0.000976562, 0, 0, -0.0615234, 0.332031, -9.75195, 1.18.2022 20:24:38.742
727, 1.8433, 0.140012, 84.8623, 0, 0, 0, -0.00585938, 0.330078, -9.70312, 1.18.2022 20:24:38.750
728, 1.8433, 0.140012, 84.8623, 0, -0.000976562, 0, -0.0302734, 0.288086, -9.73242, 1.18.2022 20:24:38.758
729, 1.8433, 0.140012, 84.8623, -0.000976562, -0.00195312, 0, -0.0429688, 0.319336, -9.74316, 1.18.2022 20:24:38.766
730, 1.8433, 0.140012, 84.8623, -0.000976562, -0.000976562, 0, 0.03125, 0.292969, -9.7373, 1.18.2022 20:24:38.774
731, 1.8433, 0.140012, 84.8623, -0.000976562, -0.000976562, 0, -0.0253906, 0.341797, -9.70703, 1.18.2022 20:24:38.782
732, 1.8433, 0.140012, 84.8623, -0.000976562, -0.000976562, -0.000976562, -0.0253906, 0.325195, -9.68652, 1.18.2022 20:24:38.790
733, 1.8433, 0.140012, 84.8623, -0.000976562, 0, 0, 0.00292969, 0.283203, -9.74219, 1.18.2022 20:24:38.798
734, 1.8433, 0.140012, 84.8623, 0, 0, 0, -0.0595703, 0.31543, -9.75684, 1.18.2022 20:24:38.806
735, 1.8433, 0.140012, 84.8623, 0, -0.000976562, -0.00195312, -0.0117188, 0.314453, -9.73145, 1.18.2022 20:24:38.814
736, 1.8433, 0.140012, 84.8623, -0.000976562, -0.000976562, 0, -0.0244141, 0.282227, -9.79102, 1.18.2022 20:24:38.822
737, 1.8433, 0.140012, 84.8623, -0.000976562, -0.000976562, 0.000976562, -0.0654297, 0.34668, -9.69727, 1.18.2022 20:24:38.830
738, 1.8433, 0.140012, 84.8623, 0, -0.000976562, 0, 0.03125, 0.295898, -9.75391, 1.18.2022 20:24:38.838
739, 1.8433, 0.140012, 84.8623, -0.000976562, 0, 0, -0.0234375, 0.303711, -9.70801, 1.18.2022 20:24:38.846
740, 1.8433, 0.140012, 84.8623, -0.000976562, -0.000976562, 0, -0.0537109, 0.311523, -9.71191, 1.18.2022 20:24:38.854
741, 1.8433, 0.140012, 84.8623, -0.000976562, -0.000976562, -0.000976562, -0.00488281, 0.291016, -9.75879, 1.18.2022 20:24:38.862
742, 1.8433, 0.140012, 84.8623, 0, -0.000976562, 0, -0.0546875, 0.338867, -9.74219, 1.18.2022 20:24:38.870
743, 1.8433, 0.140012, 84.8623, 0, 0, 0, -0.0117188, 0.302734, -9.7627, 1.18.2022 20:24:38.878
744, 1.8433, 0.140012, 84.8623, -0.000976562, 0, 0, 0.00683594, 0.298828, -9.77539, 1.18.2022 20:24:38.886
745, 1.84306, 0.139942, 84.8524, 0, -0.000976562, 0, -0.0585938, 0.334961, -9.7041, 1.18.2022 20:24:38.894
746, 1.84306, 0.139942, 84.8524, 0, -0.000976562, 0, -0.00976562, 0.314453, -9.75293, 1.18.2022 20:24:38.902
747, 1.8433, 0.139853, 84.852, -0.000976562, -0.00195312, 0, -0.0273438, 0.289062, -9.69629, 1.18.2022 20:24:38.910
748, 1.8433, 0.139853, 84.852, -0.000976562, -0.00195312, 0, -0.0546875, 0.301758, -9.72461, 1.18.2022 20:24:38.918
749, 1.8433, 0.139853, 84.852, 0, -0.000976562, 0, 0.0332031, 0.302734, -9.75391, 1.18.2022 20:24:38.926
750, 1.8433, 0.139853, 84.852, -0.000976562, 0, -0.000976562, -0.0400391, 0.323242, -9.71973, 1.18.2022 20:24:38.934
751, 1.8433, 0.139853, 84.852, -0.000976562, -0.000976562, 0, 0.0078125, 0.321289, -9.71973, 1.18.2022 20:24:38.942
752, 1.8433, 0.139853, 84.852, -0.000976562, 0, -0.000976562, -0.00390625, 0.299805, -9.71582, 1.18.2022 20:24:38.950
753, 1.84306, 0.139942, 84.8524, 0, 0, -0.00195312, -0.0849609, 0.313477, -9.70215, 1.18.2022 20:24:38.958
754, 1.84306, 0.139942, 84.8524, -0.000976562, 0, -0.000976562, -0.00195312, 0.324219, -9.75098, 1.18.2022 20:24:38.966
755, 1.8433, 0.140012, 84.8623, -0.000976562, -0.000976562, 0, -0.00390625, 0.296875, -9.71094, 1.18.2022 20:24:38.974
756, 1.8433, 0.140012, 84.8623, -0.00195312, 0, 0, -0.0761719, 0.326172, -9.73535, 1.18.2022 20:24:38.982
757, 1.8433, 0.140012, 84.8623, 0, -0.000976562, 0.000976562, 0.0498047, 0.289062, -9.78027, 1.18.2022 20:24:38.990
758, 1.8433, 0.140012, 84.8623, 0, 0, 0, -0.0419922, 0.326172, -9.72852, 1.18.2022 20:24:38.998
759, 1.8433, 0.140012, 84.8623, 0, -0.000976562, 0.000976562, -0.0273438, 0.339844, -9.71191, 1.18.2022 20:24:39.006
760, 1.8433, 0.140012, 84.8623, -0.000976562, 0, 0, 0.0380859, 0.28125, -9.76172, 1.18.2022 20:24:39.014
761, 1.8433, 0.140012, 84.8623, -0.000976562, 0, 0.000976562, -0.0878906, 0.335938, -9.73438, 1.18.2022 20:24:39.022
762, 1.8433, 0.140012, 84.8623, 0, -0.000976562, 0, 0.0126953, 0.318359, -9.71289, 1.18.2022 20:24:39.030
763, 1.8433, 0.140012, 84.8623, -0.000976562, -0.000976562, -0.00195312, 0, 0.292969, -9.74902, 1.18.2022 20:24:39.038
764, 1.8433, 0.140012, 84.8623, 0, -0.000976562, -0.00195312, -0.0693359, 0.322266, -9.74219, 1.18.2022 20:24:39.046
765, 1.8433, 0.140012, 84.8623, 0, -0.000976562, 0, 0.0253906, 0.313477, -9.78418, 1.18.2022 20:24:39.054
766, 1.8433, 0.140012, 84.8623, -0.000976562, 0, 0.000976562, -0.0449219, 0.304688, -9.7334, 1.18.2022 20:24:39.062
767, 1.8433, 0.140012, 84.8623, -0.000976562, -0.000976562, 0, -0.0283203, 0.338867, -9.74219, 1.18.2022 20:24:39.070
768, 1.8433, 0.140012, 84.8623, 0, -0.00195312, 0.000976562, 0.0107422, 0.28125, -9.67676, 1.18.2022 20:24:39.078
769, 1.8433, 0.140012, 84.8623, -0.000976562, 0, 0, -0.0751953, 0.333008, -9.7041, 1.18.2022 20:24:39.086
770, 1.8433, 0.140012, 84.8623, 0, -0.000976562, -0.00195312, -0.0166016, 0.34082, -9.75195, 1.18.2022 20:24:39.094
771, 1.8433, 0.140012, 84.8623, -0.000976562, -0.000976562, 0, -0.03125, 0.304688, -9.74805, 1.18.2022 20:24:39.102
772, 1.8433, 0.140012, 84.8623, -0.000976562, 0, 0, -0.0976562, 0.325195, -9.75879, 1.18.2022 20:24:39.110
773, 1.8433, 0.140012, 84.8623, -0.000976562, 0, 0.000976562, 0.00488281, 0.295898, -9.75879, 1.18.2022 20:24:39.118
774, 1.8433, 0.140012, 84.8623, -0.000976562, -0.000976562, -0.00195312, -0.0185547, 0.307617, -9.74414, 1.18.2022 20:24:39.126
775, 1.8433, 0.140012, 84.8623, -0.000976562, 0, 0, -0.0449219, 0.289062, -9.75293, 1.18.2022 20:24:39.134
776, 1.8433, 0.140012, 84.8623, -0.000976562, 0, 0, 0.0292969, 0.285156, -9.73047, 1.18.2022 20:24:39.140
777, 1.8433, 0.140012, 84.8623, -0.000976562, 0, 0.000976562, -0.0566406, 0.306641, -9.72852, 1.18.2022 20:24:39.148
778, 1.8433, 0.140012, 84.8623, -0.000976562, -0.000976562, 0, -0.0302734, 0.347656, -9.7168, 1.18.2022 20:24:39.156
779, 1.8433, 0.140012, 84.8623, -0.000976562, -0.000976562, 0, 0, 0.319336, -9.72949, 1.18.2022 20:24:39.164
780, 1.8433, 0.140012, 84.8623, -0.000976562, 0, 0, -0.0546875, 0.322266, -9.77344, 1.18.2022 20:24:39.172
781, 1.8433, 0.140012, 84.8623, 0, 0.000976562, 0, 0.00683594, 0.310547, -9.78418, 1.18.2022 20:24:39.180
782, 1.84802, 0.13485, 84.8623, 0, 0, 0, -0.00195312, 0.304688, -9.72559, 1.18.2022 20:24:39.188
783, 1.8433, 0.140012, 84.8623, 0, -0.00195312, 0, -0.0830078, 0.323242, -9.7207, 1.18.2022 20:24:39.196
784, 1.8433, 0.140012, 84.8623, -0.000976562, 0, -0.000976562, 0.0214844, 0.289062, -9.75879, 1.18.2022 20:24:39.204
785, 1.8433, 0.140012, 84.8623, 0, 0, -0.000976562, -0.0478516, 0.31543, -9.7666, 1.18.2022 20:24:39.212
786, 1.8433, 0.140012, 84.8623, -0.000976562, -0.000976562, 0.000976562, -0.0517578, 0.319336, -9.72852, 1.18.2022 20:24:39.220
787, 1.8433, 0.140012, 84.8623, -0.000976562, -0.000976562, -0.000976562, 0.0332031, 0.30957, -9.74414, 1.18.2022 20:24:39.228
788, 1.8433, 0.140012, 84.8623, -0.000976562, -0.000976562, -0.00195312, -0.0693359, 0.353516, -9.77246, 1.18.2022 20:24:39.236
789, 1.8433, 0.140012, 84.8623, -0.000976562, -0.00195312, -0.000976562, -0.00683594, 0.316406, -9.73926, 1.18.2022 20:24:39.244
790, 1.84307, 0.140101, 84.8628, -0.000976562, -0.00195312, -0.000976562, -0.0253906, 0.301758, -9.72266, 1.18.2022 20:24:39.252
791, 1.84307, 0.140101, 84.8628, 0, 0, -0.000976562, -0.0722656, 0.313477, -9.79199, 1.18.2022 20:24:39.260
792, 1.84331, 0.14017, 84.8726, -0.000976562, 0, 0.000976562, 0.0195312, 0.285156, -9.73047, 1.18.2022 20:24:39.268
793, 1.84331, 0.14017, 84.8726, 0, 0, -0.00195312, -0.0253906, 0.311523, -9.72266, 1.18.2022 20:24:39.276
794, 1.84331, 0.14017, 84.8726, -0.000976562, 0, -0.00195312, -0.0449219, 0.34082, -9.74512, 1.18.2022 20:24:39.284
795, 1.84331, 0.14017, 84.8726, 0, 0, -0.000976562, 0.0244141, 0.304688, -9.74414, 1.18.2022 20:24:39.292
796, 1.84331, 0.14017, 84.8726, -0.000976562, 0, -0.00195312, -0.0947266, 0.327148, -9.69434, 1.18.2022 20:24:39.300
797, 1.84331, 0.14017, 84.8726, -0.000976562, -0.000976562, -0.000976562, -0.0332031, 0.332031, -9.75977, 1.18.2022 20:24:39.308
798, 1.84331, 0.14017, 84.8726, -0.00195312, -0.000976562, -0.000976562, -0.00976562, 0.305664, -9.75586, 1.18.2022 20:24:39.316
799, 1.84308, 0.140259, 84.8731, -0.000976562, -0.000976562, -0.000976562, -0.0527344, 0.332031, -9.76172, 1.18.2022 20:24:39.324
800, 1.84308, 0.140259, 84.8731, -0.000976562, -0.000976562, -0.00195312, 0.0214844, 0.304688, -9.74219, 1.18.2022 20:24:39.332
801, 1.84308, 0.140259, 84.8731, 0, 0, 0.000976562, -0.0214844, 0.307617, -9.75781, 1.18.2022 20:24:39.340
802, 1.84308, 0.140259, 84.8731, 0, 0, 0.000976562, -0.0585938, 0.328125, -9.7207, 1.18.2022 20:24:39.348
803, 1.84308, 0.140259, 84.8731, -0.000976562, 0, -0.000976562, 0.0410156, 0.304688, -9.74219, 1.18.2022 20:24:39.356
804, 1.8478, 0.135098, 84.8731, -0.000976562, 0.000976562, 0, -0.0683594, 0.301758, -9.71973, 1.18.2022 20:24:39.364
805, 1.84804, 0.135168, 84.883, 0, 0, -0.000976562, -0.0351562, 0.339844, -9.7168, 1.18.2022 20:24:39.372
806, 1.84804, 0.135168, 84.883, -0.000976562, 0, -0.000976562, 0.0380859, 0.299805, -9.74219, 1.18.2022 20:24:39.380
807, 1.84804, 0.135168, 84.883, -0.000976562, 0, -0.000976562, -0.0634766, 0.318359, -9.69531, 1.18.2022 20:24:39.388
808, 1.84804, 0.135168, 84.883, -0.000976562, 0, -0.000976562, -0.00390625, 0.321289, -9.72461, 1.18.2022 20:24:39.396
809, 1.84804, 0.135168, 84.883, -0.000976562, 0, -0.000976562, -0.00683594, 0.293945, -9.7627, 1.18.2022 20:24:39.404
810, 1.84804, 0.135168, 84.883, -0.000976562, 0, -0.000976562, -0.0449219, 0.316406, -9.7168, 1.18.2022 20:24:39.412
811, 1.84804, 0.135168, 84.883, -0.000976562, 0, -0.000976562, 0.0078125, 0.303711, -9.71387, 1.18.2022 20:24:39.420
812, 1.84804, 0.135168, 84.883, 0, 0, -0.000976562, -0.0546875, 0.3125, -9.76855, 1.18.2022 20:24:39.428
813, 1.84781, 0.135257, 84.8834, -0.000976562, -0.000976562, -0.00195312, -0.0400391, 0.319336, -9.72852, 1.18.2022 20:24:39.436
814, 1.84781, 0.135257, 84.8834, 0, -0.000976562, -0.000976562, 0.00292969, 0.301758, -9.72949, 1.18.2022 20:24:39.444
815, 1.84781, 0.135257, 84.8834, 0, 0, -0.000976562, -0.0878906, 0.335938, -9.7207, 1.18.2022 20:24:39.452
816, 1.84265, 0.130537, 84.8836, 0, -0.000976562, 0.000976562, -0.0234375, 0.326172, -9.74805, 1.18.2022 20:24:39.460
817, 1.84265, 0.130537, 84.8836, -0.000976562, 0, 0, -0.0185547, 0.297852, -9.75098, 1.18.2022 20:24:39.468
818, 1.84289, 0.130607, 84.8934, -0.000976562, 0, 0, -0.0566406, 0.342773, -9.73242, 1.18.2022 20:24:39.476
819, 1.84805, 0.135327, 84.8933, -0.000976562, -0.000976562, 0, 0.0380859, 0.295898, -9.76367, 1.18.2022 20:24:39.484
820, 1.84805, 0.135327, 84.8933, 0, 0, 0, -0.0449219, 0.319336, -9.72656, 1.18.2022 20:24:39.492
821, 1.84289, 0.130607, 84.8934, -0.000976562, 0, -0.00195312, -0.0166016, 0.316406, -9.73145, 1.18.2022 20:24:39.500
822, 1.84289, 0.130607, 84.8934, -0.000976562, 0, 0, 0.0263672, 0.288086, -9.74512, 1.18.2022 20:24:39.508
823, 1.84289, 0.130607, 84.8934, 0, 0, 0, -0.0761719, 0.292969, -9.7334, 1.18.2022 20:24:39.516
824, 1.84289, 0.130607, 84.8934, 0, -0.000976562, -0.000976562, -0.0283203, 0.329102, -9.74023, 1.18.2022 20:24:39.524
825, 1.84289, 0.130607, 84.8934, 0, 0, 0, -0.0195312, 0.305664, -9.75781, 1.18.2022 20:24:39.532
826, 1.84289, 0.130607, 84.8934, -0.000976562, -0.000976562, 0.000976562, -0.0761719, 0.345703, -9.74902, 1.18.2022 20:24:39.540
827, 1.84289, 0.130607, 84.8934, -0.000976562, 0, 0, 0.00976562, 0.3125, -9.74902, 1.18.2022 20:24:39.548
828, 1.84289, 0.130607, 84.8934, -0.000976562, -0.00195312, -0.000976562, -0.0166016, 0.301758, -9.73242, 1.18.2022 20:24:39.556
829, 1.84805, 0.135327, 84.8933, -0.000976562, -0.000976562, 0, -0.0644531, 0.31543, -9.75684, 1.18.2022 20:24:39.564
830, 1.84805, 0.135327, 84.8933, -0.000976562, -0.000976562, 0, 0.0341797, 0.265625, -9.72461, 1.18.2022 20:24:39.572
831, 1.84805, 0.135327, 84.8933, -0.000976562, -0.000976562, 0, -0.0400391, 0.300781, -9.75293, 1.18.2022 20:24:39.580
832, 1.84805, 0.135327, 84.8933, -0.000976562, -0.000976562, 0, -0.0332031, 0.294922, -9.72949, 1.18.2022 20:24:39.588
833, 1.84805, 0.135327, 84.8933, 0, -0.000976562, -0.000976562, 0.0195312, 0.291016, -9.74707, 1.18.2022 20:24:39.596
834, 1.84805, 0.135327, 84.8933, 0, -0.000976562, 0.000976562, -0.0634766, 0.306641, -9.71973, 1.18.2022 20:24:39.604
835, 1.84805, 0.135327, 84.8933, -0.000976562, -0.000976562, 0.000976562, 0.0263672, 0.30957, -9.73047, 1.18.2022 20:24:39.612
836, 1.84333, 0.140487, 84.8933, 0, -0.00195312, -0.000976562, -0.0449219, 0.302734, -9.73828, 1.18.2022 20:24:39.620
837, 1.84333, 0.140487, 84.8933, 0, -0.000976562, -0.000976562, -0.0517578, 0.335938, -9.72363, 1.18.2022 20:24:39.628
838, 1.84333, 0.140487, 84.8933, 0, 0, 0, 0.0507812, 0.290039, -9.72168, 1.18.2022 20:24:39.636
839, 1.84333, 0.140487, 84.8933, -0.000976562, -0.000976562, 0, -0.0742188, 0.314453, -9.75, 1.18.2022 20:24:39.644
840, 1.84333, 0.140487, 84.8933, -0.000976562, -0.000976562, -0.00195312, 0, 0.331055, -9.73633, 1.18.2022 20:24:39.652
841, 1.8431, 0.140576, 84.8937, -0.000976562, -0.00195312, -0.00195312, 0.0146484, 0.307617, -9.74609, 1.18.2022 20:24:39.660
842, 1.8431, 0.140576, 84.8937, 0, 0, -0.00195312, -0.0458984, 0.336914, -9.76562, 1.18.2022 20:24:39.668
843, 1.8431, 0.140576, 84.8937, -0.000976562, -0.000976562, 0, 0.00976562, 0.318359, -9.71582, 1.18.2022 20:24:39.676
844, 1.8431, 0.140576, 84.8937, 0, -0.000976562, 0.000976562, 0.00976562, 0.318359, -9.71582, 1.18.2022 20:24:39.684
845, 1.8431, 0.140576, 84.8937, -0.000976562, -0.000976562, 0, -0.0859375, 0.333984, -9.74414, 1.18.2022 20:24:39.692
846, 1.8431, 0.140576, 84.8937, -0.000976562, 0, 0, 0.0126953, 0.301758, -9.72559, 1.18.2022 20:24:39.700
847, 1.8431, 0.140576, 84.8937, -0.000976562, -0.000976562, 0, -0.0263672, 0.335938, -9.75195, 1.18.2022 20:24:39.708
848, 1.8431, 0.140576, 84.8937, -0.000976562, -0.000976562, -0.000976562, -0.0546875, 0.332031, -9.75195, 1.18.2022 20:24:39.716
849, 1.8431, 0.140576, 84.8937, -0.000976562, 0, 0, 0.0146484, 0.297852, -9.75879, 1.18.2022 20:24:39.724
850, 1.8431, 0.140576, 84.8937, -0.000976562, 0, 0, -0.0712891, 0.333008, -9.73047, 1.18.2022 20:24:39.732
851, 1.84334, 0.140645, 84.9036, -0.000976562, -0.000976562, -0.000976562, -0.0166016, 0.317383, -9.74316, 1.18.2022 20:24:39.740
852, 1.84334, 0.140645, 84.9036, 0, -0.00195312, -0.000976562, -0.00195312, 0.298828, -9.7041, 1.18.2022 20:24:39.748
853, 1.84334, 0.140645, 84.9036, 0, -0.000976562, -0.00195312, -0.0429688, 0.314453, -9.75293, 1.18.2022 20:24:39.756
854, 1.84334, 0.140645, 84.9036, 0, -0.000976562, -0.00195312, 0.0146484, 0.292969, -9.74219, 1.18.2022 20:24:39.764
855, 1.84334, 0.140645, 84.9036, -0.000976562, -0.000976562, -0.000976562, -0.03125, 0.314453, -9.74805, 1.18.2022 20:24:39.772
856, 1.84334, 0.140645, 84.9036, 0, -0.000976562, -0.000976562, -0.0605469, 0.320312, -9.69531, 1.18.2022 20:24:39.780
857, 1.84334, 0.140645, 84.9036, 0, -0.00195312, -0.000976562, 0.0126953, 0.311523, -9.7373, 1.18.2022 20:24:39.788
858, 1.84334, 0.140645, 84.9036, -0.000976562, -0.00195312, -0.000976562, -0.0761719, 0.30957, -9.73535, 1.18.2022 20:24:39.796
859, 1.84334, 0.140645, 84.9036, -0.000976562, -0.000976562, -0.000976562, -0.0332031, 0.314453, -9.72461, 1.18.2022 20:24:39.804
860, 1.84334, 0.140645, 84.9036, 0, -0.000976562, 0.000976562, 0.0078125, 0.291992, -9.72363, 1.18.2022 20:24:39.812
861, 1.84334, 0.140645, 84.9036, 0, 0, 0, -0.078125, 0.334961, -9.70215, 1.18.2022 20:24:39.820
862, 1.84334, 0.140645, 84.9036, -0.000976562, 0, -0.00195312, 0.0078125, 0.301758, -9.72266, 1.18.2022 20:24:39.828
863, 1.84334, 0.140645, 84.9036, -0.000976562, 0, 0, -0.0175781, 0.31543, -9.78125, 1.18.2022 20:24:39.836
864, 1.84334, 0.140645, 84.9036, -0.000976562, 0, -0.00195312, -0.0644531, 0.329102, -9.74512, 1.18.2022 20:24:39.844
865, 1.84334, 0.140645, 84.9036, 0, 0, 0, 0.0126953, 0.304688, -9.73438, 1.18.2022 20:24:39.852
866, 1.84334, 0.140645, 84.9036, -0.000976562, 0, 0, -0.0546875, 0.30957, -9.72656, 1.18.2022 20:24:39.860
867, 1.84334, 0.140645, 84.9036, -0.000976562, -0.000976562, -0.000976562, -0.0185547, 0.331055, -9.73633, 1.18.2022 20:24:39.868
868, 1.84334, 0.140645, 84.9036, -0.000976562, 0, 0, 0.0078125, 0.289062, -9.7002, 1.18.2022 20:24:39.876
869, 1.84334, 0.140645, 84.9036, 0, 0, 0, -0.0693359, 0.322266, -9.76172, 1.18.2022 20:24:39.884
870, 1.84334, 0.140645, 84.9036, 0, -0.000976562, -0.000976562, -0.00195312, 0.322266, -9.75977, 1.18.2022 20:24:39.892
871, 1.84334, 0.140645, 84.9036, -0.000976562, 0, 0.000976562, 0.00976562, 0.311523, -9.73926, 1.18.2022 20:24:39.900
872, 1.84334, 0.140645, 84.9036, -0.000976562, -0.000976562, -0.000976562, -0.0615234, 0.342773, -9.73926, 1.18.2022 20:24:39.908
873, 1.84334, 0.140645, 84.9036, -0.000976562, -0.000976562, -0.000976562, 0.0410156, 0.314453, -9.74902, 1.18.2022 20:24:39.916
874, 1.84334, 0.140645, 84.9036, -0.000976562, -0.000976562, -0.000976562, -0.0380859, 0.335938, -9.73535, 1.18.2022 20:24:39.924
875, 1.84334, 0.140645, 84.9036, -0.000976562, 0, 0, -0.0429688, 0.30957, -9.74121, 1.18.2022 20:24:39.932
876, 1.84334, 0.140645, 84.9036, -0.00195312, -0.000976562, 0, 0.0263672, 0.276367, -9.7334, 1.18.2022 20:24:39.940
877, 1.84334, 0.140645, 84.9036, -0.000976562, -0.000976562, -0.000976562, -0.0664062, 0.352539, -9.7373, 1.18.2022 20:24:39.948
878, 1.84334, 0.140645, 84.9036, 0, -0.000976562, -0.000976562, 0.0146484, 0.308594, -9.71777, 1.18.2022 20:24:39.956
879, 1.8431, 0.140576, 84.8937, 0, -0.00195312, -0.000976562, 0.0224609, 0.311523, -9.71582, 1.18.2022 20:24:39.964
880, 1.8431, 0.140576, 84.8937, -0.000976562, -0.00195312, 0, -0.0859375, 0.317383, -9.75195, 1.18.2022 20:24:39.972
881, 1.8431, 0.140576, 84.8937, -0.000976562, -0.000976562, 0, 0.00488281, 0.306641, -9.72754, 1.18.2022 20:24:39.980
882, 1.8431, 0.140576, 84.8937, 0, -0.000976562, 0, 0.00292969, 0.301758, -9.7207, 1.18.2022 20:24:39.988
883, 1.8431, 0.140576, 84.8937, -0.000976562, -0.000976562, 0, -0.0380859, 0.324219, -9.74316, 1.18.2022 20:24:39.996
884, 1.8431, 0.140576, 84.8937, -0.000976562, -0.000976562, 0, 0.0166016, 0.273438, -9.74707, 1.18.2022 20:24:40.004
885, 1.8431, 0.140576, 84.8937, -0.000976562, 0, 0, -0.0830078, 0.322266, -9.74219, 1.18.2022 20:24:40.012
886, 1.8431, 0.140576, 84.8937, -0.000976562, 0, 0, -0.0644531, 0.345703, -9.75586, 1.18.2022 20:24:40.020
887, 1.8431, 0.140576, 84.8937, -0.000976562, -0.000976562, 0, -0.00488281, 0.30957, -9.73633, 1.18.2022 20:24:40.028
888, 1.8431, 0.140576, 84.8937, -0.00195312, -0.000976562, 0, -0.0810547, 0.322266, -9.77246, 1.18.2022 20:24:40.036
889, 1.8431, 0.140576, 84.8937, -0.000976562, -0.000976562, 0, 0.0244141, 0.291992, -9.71387, 1.18.2022 20:24:40.044
890, 1.8431, 0.140576, 84.8937, -0.000976562, -0.000976562, 0, -0.00683594, 0.299805, -9.73242, 1.18.2022 20:24:40.052
891, 1.8431, 0.140576, 84.8937, -0.000976562, -0.000976562, 0, -0.0332031, 0.314453, -9.72461, 1.18.2022 20:24:40.060
892, 1.8431, 0.140576, 84.8937, 0, -0.000976562, 0, 0.0166016, 0.290039, -9.74023, 1.18.2022 20:24:40.068
893, 1.8431, 0.140576, 84.8937, 0.000976562, 0, 0, -0.0654297, 0.310547, -9.69824, 1.18.2022 20:24:40.076
894, 1.8431, 0.140576, 84.8937, 0.000976562, 0, 0.000976562, -0.0332031, 0.327148, -9.75, 1.18.2022 20:24:40.084
895, 1.8431, 0.140576, 84.8937, 0, -0.000976562, 0, 0.0263672, 0.27832, -9.73828, 1.18.2022 20:24:40.092
896, 1.8431, 0.140576, 84.8937, 0, -0.000976562, 0.000976562, -0.0732422, 0.299805, -9.72363, 1.18.2022 20:24:40.100
897, 1.8431, 0.140576, 84.8937, 0, -0.000976562, 0, -0.00390625, 0.294922, -9.73047, 1.18.2022 20:24:40.106
898, 1.8431, 0.140576, 84.8937, -0.000976562, 0, 0.000976562, -0.00976562, 0.304688, -9.74414, 1.18.2022 20:24:40.116
899, 1.8431, 0.140576, 84.8937, -0.000976562, -0.000976562, 0.000976562, -0.0449219, 0.311523, -9.70996, 1.18.2022 20:24:40.122
900, 1.8431, 0.140576, 84.8937, -0.000976562, -0.000976562, 0, 0.0224609, 0.321289, -9.71777, 1.18.2022 20:24:40.130
901, 1.8431, 0.140576, 84.8937, -0.000976562, 0, 0, -0.0361328, 0.305664, -9.7627, 1.18.2022 20:24:40.138
902, 1.8431, 0.140576, 84.8937, 0, -0.000976562, 0, -0.0244141, 0.31543, -9.78125, 1.18.2022 20:24:40.146
903, 1.8431, 0.140576, 84.8937, -0.000976562, 0, -0.000976562, 0.0429688, 0.297852, -9.74707, 1.18.2022 20:24:40.154
904, 1.8431, 0.140576, 84.8937, -0.000976562, 0, -0.000976562, -0.0830078, 0.319336, -9.74902, 1.18.2022 20:24:40.162
905, 1.8431, 0.140576, 84.8937, 0, 0, 0, -0.0283203, 0.30957, -9.74121, 1.18.2022 20:24:40.170
906, 1.8431, 0.140576, 84.8937, 0, 0, 0, -0.0302734, 0.311523, -9.73145, 1.18.2022 20:24:40.178
907, 1.8431, 0.140576, 84.8937, -0.000976562, 0, 0, -0.078125, 0.320312, -9.7041, 1.18.2022 20:24:40.186
908, 1.84782, 0.135415, 84.8937, -0.000976562, -0.000976562, 0, 0.0380859, 0.317383, -9.77246, 1.18.2022 20:24:40.194
909, 1.84782, 0.135415, 84.8937, -0.000976562, -0.000976562, -0.00195312, -0.0234375, 0.317383, -9.75488, 1.18.2022 20:24:40.202
910, 1.84782, 0.135415, 84.8937, 0, 0, 0, -0.0527344, 0.338867, -9.75195, 1.18.2022 20:24:40.210
911, 1.84266, 0.130696, 84.8939, 0, 0, 0, 0.0214844, 0.304688, -9.73535, 1.18.2022 20:24:40.218
912, 1.84266, 0.130696, 84.8939, 0, 0, -0.000976562, -0.0742188, 0.324219, -9.74902, 1.18.2022 20:24:40.226
913, 1.84266, 0.130696, 84.8939, -0.000976562, 0, -0.000976562, -0.0166016, 0.323242, -9.72656, 1.18.2022 20:24:40.234
914, 1.84266, 0.130696, 84.8939, -0.000976562, -0.000976562, -0.000976562, -0.0234375, 0.310547, -9.75488, 1.18.2022 20:24:40.242
915, 1.84266, 0.130696, 84.8939, 0, -0.000976562, -0.000976562, -0.0693359, 0.30957, -9.74023, 1.18.2022 20:24:40.250
916, 1.84266, 0.130696, 84.8939, 0, -0.000976562, -0.000976562, 0.0244141, 0.311523, -9.72266, 1.18.2022 20:24:40.258
917, 1.84266, 0.130696, 84.8939, -0.000976562, 0, 0.000976562, -0.00195312, 0.288086, -9.74902, 1.18.2022 20:24:40.266
918, 1.84266, 0.130696, 84.8939, -0.000976562, -0.000976562, -0.000976562, -0.0732422, 0.305664, -9.69043, 1.18.2022 20:24:40.274
919, 1.84266, 0.130696, 84.8939, 0, -0.000976562, -0.000976562, 0.0126953, 0.288086, -9.72852, 1.18.2022 20:24:40.282
920, 1.84266, 0.130696, 84.8939, -0.000976562, -0.000976562, -0.000976562, -0.0498047, 0.327148, -9.75879, 1.18.2022 20:24:40.290
921, 1.83794, 0.135856, 84.8939, 0, -0.000976562, -0.000976562, -0.0234375, 0.304688, -9.73926, 1.18.2022 20:24:40.298
922, 1.83794, 0.135856, 84.8939, 0, 0, -0.000976562, 0.0195312, 0.299805, -9.72559, 1.18.2022 20:24:40.306
923, 1.83794, 0.135856, 84.8939, -0.000976562, 0, -0.00195312, -0.0615234, 0.326172, -9.71387, 1.18.2022 20:24:40.314
924, 1.84266, 0.130696, 84.8939, -0.000976562, 0, -0.000976562, 0.0078125, 0.321289, -9.71973, 1.18.2022 20:24:40.322
925, 1.84266, 0.130696, 84.8939, 0, 0, -0.000976562, -0.0263672, 0.302734, -9.74805, 1.18.2022 20:24:40.330
926, 1.84266, 0.130696, 84.8939, 0, 0, -0.000976562, -0.0673828, 0.338867, -9.76758, 1.18.2022 20:24:40.338
927, 1.84266, 0.130696, 84.8939, 0, -0.000976562, -0.000976562, 0.0244141, 0.303711, -9.71582, 1.18.2022 20:24:40.346
928, 1.84266, 0.130696, 84.8939, -0.000976562, -0.000976562, -0.000976562, -0.0517578, 0.30957, -9.72168, 1.18.2022 20:24:40.354
929, 1.84266, 0.130696, 84.8939, -0.000976562, -0.000976562, -0.000976562, -0.0498047, 0.338867, -9.75391, 1.18.2022 20:24:40.362
930, 1.84266, 0.130696, 84.8939, -0.000976562, -0.000976562, -0.000976562, 0.0166016, 0.297852, -9.75586, 1.18.2022 20:24:40.370
931, 1.84266, 0.130696, 84.8939, -0.000976562, -0.000976562, -0.000976562, -0.0585938, 0.318359, -9.72168, 1.18.2022 20:24:40.378
932, 1.83794, 0.135856, 84.8939, 0, -0.000976562, -0.000976562, 0.000976562, 0.316406, -9.72266, 1.18.2022 20:24:40.386
933, 1.83794, 0.135856, 84.8939, -0.000976562, 0, 0.000976562, -0.0107422, 0.293945, -9.70117, 1.18.2022 20:24:40.394
934, 1.83794, 0.135856, 84.8939, 0, -0.000976562, -0.000976562, -0.0683594, 0.294922, -9.72461, 1.18.2022 20:24:40.402
935, 1.83794, 0.135856, 84.8939, 0, 0, -0.000976562, 0.00976562, 0.288086, -9.74219, 1.18.2022 20:24:40.410
936, 1.83794, 0.135856, 84.8939, 0, 0, -0.00195312, -0.0117188, 0.304688, -9.73633, 1.18.2022 20:24:40.418
937, 1.83794, 0.135856, 84.8939, 0, -0.000976562, -0.000976562, -0.0302734, 0.318359, -9.7002, 1.18.2022 20:24:40.426
938, 1.83794, 0.135856, 84.8939, 0, 0, -0.000976562, 0.0126953, 0.28418, -9.69727, 1.18.2022 20:24:40.434
939, 1.83794, 0.135856, 84.8939, -0.000976562, 0, -0.000976562, -0.0859375, 0.307617, -9.74512, 1.18.2022 20:24:40.442
940, 1.83794, 0.135856, 84.8939, -0.000976562, 0, -0.00195312, 0.0078125, 0.321289, -9.73438, 1.18.2022 20:24:40.450
941, 1.84266, 0.130696, 84.8939, -0.000976562, -0.000976562, -0.00195312, -0.0146484, 0.310547, -9.7627, 1.18.2022 20:24:40.458
942, 1.83794, 0.135856, 84.8939, 0, -0.000976562, -0.000976562, -0.0585938, 0.311523, -9.71973, 1.18.2022 20:24:40.466
943, 1.83817, 0.135768, 84.8934, 0, -0.000976562, -0.000976562, 0.0361328, 0.30957, -9.75195, 1.18.2022 20:24:40.474
944, 1.83817, 0.135768, 84.8934, 0.000976562, 0, 0, -0.0117188, 0.302734, -9.73926, 1.18.2022 20:24:40.482
945, 1.83817, 0.135768, 84.8934, 0, -0.000976562, 0, -0.0546875, 0.332031, -9.75879, 1.18.2022 20:24:40.490
946, 1.83817, 0.135768, 84.8934, 0, -0.00195312, 0, 0.0166016, 0.302734, -9.73926, 1.18.2022 20:24:40.498
947, 1.83817, 0.135768, 84.8934, 0, -0.00195312, 0, -0.078125, 0.306641, -9.73047, 1.18.2022 20:24:40.506
948, 1.83817, 0.135768, 84.8934, 0, -0.000976562, -0.00195312, -0.0380859, 0.30957, -9.72949, 1.18.2022 20:24:40.514
949, 1.83793, 0.135698, 84.8836, -0.000976562, -0.000976562, -0.00195312, -0.0283203, 0.283203, -9.74902, 1.18.2022 20:24:40.522
950, 1.83793, 0.135698, 84.8836, 0, -0.000976562, 0, -0.0927734, 0.332031, -9.75098, 1.18.2022 20:24:40.530
951, 1.83793, 0.135698, 84.8836, -0.000976562, -0.000976562, -0.00195312, -0.00683594, 0.322266, -9.74805, 1.18.2022 20:24:40.538
952, 1.83793, 0.135698, 84.8836, 0, -0.00195312, 0, -0.00683594, 0.288086, -9.73535, 1.18.2022 20:24:40.546
953, 1.83793, 0.135698, 84.8836, 0, -0.000976562, 0, -0.0732422, 0.342773, -9.72266, 1.18.2022 20:24:40.554
954, 1.83816, 0.13561, 84.8831, 0, -0.000976562, 0, 0.0175781, 0.308594, -9.69922, 1.18.2022 20:24:40.562
955, 1.83816, 0.13561, 84.8831, 0, -0.000976562, 0, -0.0634766, 0.308594, -9.71484, 1.18.2022 20:24:40.570
956, 1.83816, 0.13561, 84.8831, -0.000976562, -0.000976562, 0, -0.046875, 0.321289, -9.72656, 1.18.2022 20:24:40.578
957, 1.83816, 0.13561, 84.8831, -0.000976562, 0, -0.000976562, 0, 0.300781, -9.77246, 1.18.2022 20:24:40.586
958, 1.83816, 0.13561, 84.8831, -0.000976562, 0, 0.000976562, -0.0830078, 0.3125, -9.74023, 1.18.2022 20:24:40.594
959, 1.83816, 0.13561, 84.8831, -0.000976562, 0, 0, -0.0302734, 0.316406, -9.74121, 1.18.2022 20:24:40.602
960, 1.83816, 0.13561, 84.8831, -0.000976562, -0.000976562, -0.00195312, -0.0517578, 0.295898, -9.74121, 1.18.2022 20:24:40.610
961, 1.83816, 0.13561, 84.8831, -0.000976562, -0.000976562, 0, -0.0947266, 0.326172, -9.72754, 1.18.2022 20:24:40.618
962, 1.83816, 0.13561, 84.8831, 0, 0, 0, 0.0146484, 0.3125, -9.75781, 1.18.2022 20:24:40.626
963, 1.83792, 0.13554, 84.8733, -0.000976562, -0.000976562, 0, -0.0449219, 0.323242, -9.72656, 1.18.2022 20:24:40.634
964, 1.83792, 0.13554, 84.8733, -0.000976562, -0.000976562, 0, -0.0478516, 0.350586, -9.74219, 1.18.2022 20:24:40.642
965, 1.83792, 0.13554, 84.8733, 0, -0.000976562, 0, 0.0244141, 0.27832, -9.71875, 1.18.2022 20:24:40.650
966, 1.84308, 0.140259, 84.8731, -0.000976562, -0.00195312, 0, -0.0712891, 0.321289, -9.7334, 1.18.2022 20:24:40.658
967, 1.84308, 0.140259, 84.8731, -0.000976562, -0.000976562, 0, -0.0166016, 0.299805, -9.72266, 1.18.2022 20:24:40.666
968, 1.84308, 0.140259, 84.8731, -0.00195312, 0, 0, 0.0126953, 0.290039, -9.72363, 1.18.2022 20:24:40.674
969, 1.84308, 0.140259, 84.8731, 0, 0, 0, -0.0927734, 0.321289, -9.72754, 1.18.2022 20:24:40.682
970, 1.84308, 0.140259, 84.8731, -0.000976562, 0, 0, 0.000976562, 0.298828, -9.7041, 1.18.2022 20:24:40.690
971, 1.84308, 0.140259, 84.8731, 0, 0, 0, -0.046875, 0.282227, -9.70117, 1.18.2022 20:24:40.698
972, 1.84308, 0.140259, 84.8731, -0.000976562, 0, 0, -0.0546875, 0.326172, -9.73047, 1.18.2022 20:24:40.706
973, 1.84308, 0.140259, 84.8731, -0.000976562, 0, 0, 0.0341797, 0.306641, -9.71582, 1.18.2022 20:24:40.714
974, 1.84308, 0.140259, 84.8731, -0.000976562, -0.000976562, 0, -0.078125, 0.311523, -9.72559, 1.18.2022 20:24:40.722
975, 1.84308, 0.140259, 84.8731, -0.000976562, 0, 0, -0.0429688, 0.294922, -9.72949, 1.18.2022 20:24:40.730
976, 1.84308, 0.140259, 84.8731, -0.000976562, 0, 0.000976562, 0.0146484, 0.302734, -9.73926, 1.18.2022 20:24:40.738
977, 1.84308, 0.140259, 84.8731, -0.00195312, -0.000976562, 0, -0.0566406, 0.326172, -9.72559, 1.18.2022 20:24:40.746
978, 1.84331, 0.14017, 84.8726, -0.000976562, 0, 0, 0.0283203, 0.300781, -9.76074, 1.18.2022 20:24:40.754
979, 1.84331, 0.14017, 84.8726, -0.000976562, -0.000976562, 0, -0.00292969, 0.295898, -9.77051, 1.18.2022 20:24:40.762
980, 1.84331, 0.14017, 84.8726, -0.000976562, -0.00195312, -0.00195312, -0.0761719, 0.348633, -9.75293, 1.18.2022 20:24:40.770
981, 1.84331, 0.14017, 84.8726, -0.000976562, -0.000976562, -0.000976562, 0.0146484, 0.301758, -9.72559, 1.18.2022 20:24:40.778
982, 1.84331, 0.14017, 84.8726, 0, -0.000976562, -0.00195312, -0.0625, 0.298828, -9.76953, 1.18.2022 20:24:40.786
983, 1.84331, 0.14017, 84.8726, 0, -0.000976562, -0.00195312, -0.0478516, 0.322266, -9.76172, 1.18.2022 20:24:40.794
984, 1.84331, 0.14017, 84.8726, -0.000976562, -0.000976562, 0, 0.0146484, 0.289062, -9.70898, 1.18.2022 20:24:40.802
985, 1.84331, 0.14017, 84.8726, -0.000976562, 0, 0, -0.078125, 0.319336, -9.73047, 1.18.2022 20:24:40.810
986, 1.84331, 0.14017, 84.8726, -0.00195312, 0, 0, -0.0273438, 0.298828, -9.70117, 1.18.2022 20:24:40.818
987, 1.84331, 0.14017, 84.8726, -0.000976562, 0, 0.000976562, -0.00878906, 0.306641, -9.70801, 1.18.2022 20:24:40.826
988, 1.84331, 0.14017, 84.8726, -0.000976562, 0, 0, -0.0732422, 0.288086, -9.72168, 1.18.2022 20:24:40.834
989, 1.84331, 0.14017, 84.8726, 0, 0, 0, 0.0341797, 0.299805, -9.7207, 1.18.2022 20:24:40.842
990, 1.84331, 0.14017, 84.8726, 0, -0.000976562, 0, -0.0419922, 0.287109, -9.69629, 1.18.2022 20:24:40.850
991, 1.84331, 0.14017, 84.8726, -0.000976562, 0, 0, -0.0400391, 0.357422, -9.74219, 1.18.2022 20:24:40.858
992, 1.84331, 0.14017, 84.8726, -0.000976562, -0.000976562, 0, 0.0244141, 0.30957, -9.74902, 1.18.2022 20:24:40.866
993, 1.84331, 0.14017, 84.8726, 0, -0.000976562, 0, -0.0810547, 0.317383, -9.76855, 1.18.2022 20:24:40.874
994, 1.84331, 0.14017, 84.8726, 0, 0, -0.000976562, -0.0283203, 0.331055, -9.74316, 1.18.2022 20:24:40.882
995, 1.84308, 0.140259, 84.8731, -0.000976562, 0, 0, 0.00195312, 0.288086, -9.75391, 1.18.2022 20:24:40.890
996, 1.84308, 0.140259, 84.8731, -0.000976562, 0, 0, -0.100586, 0.293945, -9.75879, 1.18.2022 20:24:40.898
997, 1.84308, 0.140259, 84.8731, -0.000976562, 0, 0, 0.00976562, 0.294922, -9.71582, 1.18.2022 20:24:40.906
998, 1.84332, 0.140329, 84.8829, 0, -0.000976562, -0.00195312, -0.0253906, 0.27832, -9.73047, 1.18.2022 20:24:40.914
999, 1.84332, 0.140329, 84.8829, -0.000976562, -0.000976562, 0, -0.0546875, 0.322266, -9.7666, 1.18.2022 20:24:40.922
1000, 1.84332, 0.140329, 84.8829, -0.000976562, -0.000976562, 0, 0.0283203, 0.28418, -9.75684, 1.18.2022 20:24:40.930
1001, 1.84332, 0.140329, 84.8829, -0.000976562, -0.000976562, 0, -0.0429688, 0.307617, -9.74121, 1.18.2022 20:24:40.938
1002, 1.84332, 0.140329, 84.8829, -0.000976562, -0.000976562, 0, -0.00195312, 0.318359, -9.70801, 1.18.2022 20:24:40.946
1003, 1.84332, 0.140329, 84.8829, 0, -0.000976562, -0.00195312, 0.0117188, 0.269531, -9.75195, 1.18.2022 20:24:40.954
1004, 1.84332, 0.140329, 84.8829, -0.000976562, -0.000976562, -0.000976562, -0.0810547, 0.294922, -9.73828, 1.18.2022 20:24:40.962
1005, 1.84332, 0.140329, 84.8829, -0.000976562, 0, -0.000976562, -0.00292969, 0.313477, -9.78125, 1.18.2022 20:24:40.970
1006, 1.84309, 0.140417, 84.8834, -0.000976562, -0.000976562, 0, 0.00488281, 0.303711, -9.76758, 1.18.2022 20:24:40.978
1007, 1.84309, 0.140417, 84.8834, -0.000976562, -0.000976562, 0, -0.0722656, 0.31543, -9.77832, 1.18.2022 20:24:40.986
1008, 1.84309, 0.140417, 84.8834, -0.000976562, -0.000976562, 0, 0.0332031, 0.319336, -9.74414, 1.18.2022 20:24:40.994
1009, 1.84309, 0.140417, 84.8834, -0.000976562, -0.000976562, 0, -0.0322266, 0.303711, -9.71484, 1.18.2022 20:24:41.002
1010, 1.84309, 0.140417, 84.8834, -0.000976562, -0.000976562, 0, -0.0449219, 0.298828, -9.70801, 1.18.2022 20:24:41.010
1011, 1.84309, 0.140417, 84.8834, -0.000976562, -0.000976562, 0, 0.0263672, 0.30957, -9.7373, 1.18.2022 20:24:41.018
1012, 1.84309, 0.140417, 84.8834, -0.000976562, 0, 0, -0.0703125, 0.349609, -9.69922, 1.18.2022 20:24:41.026
1013, 1.84309, 0.140417, 84.8834, -0.000976562, 0, 0, 0.00292969, 0.335938, -9.74316, 1.18.2022 20:24:41.034
1014, 1.84309, 0.140417, 84.8834, -0.000976562, 0, 0, -0.0283203, 0.313477, -9.72168, 1.18.2022 20:24:41.042
1015, 1.84309, 0.140417, 84.8834, -0.00195312, 0, 0, -0.0693359, 0.317383, -9.74512, 1.18.2022 20:24:41.050
1016, 1.84309, 0.140417, 84.8834, 0, 0, 0, 0.0078125, 0.296875, -9.71582, 1.18.2022 20:24:41.058
1017, 1.84309, 0.140417, 84.8834, -0.000976562, -0.000976562, 0, -0.0361328, 0.30957, -9.75, 1.18.2022 20:24:41.066
1018, 1.84332, 0.140329, 84.8829, -0.000976562, 0, 0, -0.0517578, 0.304688, -9.73145, 1.18.2022 20:24:41.074
1019, 1.84332, 0.140329, 84.8829, 0, 0, 0, 0.0166016, 0.295898, -9.76562, 1.18.2022 20:24:41.082
1020, 1.84332, 0.140329, 84.8829, 0, -0.000976562, 0, -0.0751953, 0.30957, -9.7168, 1.18.2022 20:24:41.088
1021, 1.84332, 0.140329, 84.8829, 0, 0, 0, 0.00292969, 0.306641, -9.72559, 1.18.2022 20:24:41.096
1022, 1.84332, 0.140329, 84.8829, 0, 0, 0, 0.0078125, 0.283203, -9.7373, 1.18.2022 20:24:41.104
1023, 1.83816, 0.13561, 84.8831, 0, 0, -0.000976562, -0.0732422, 0.322266, -9.74219, 1.18.2022 20:24:41.112
1024, 1.83816, 0.13561, 84.8831, -0.000976562, -0.000976562, 0.000976562, 0.0429688, 0.286133, -9.76172, 1.18.2022 20:24:41.120
1025, 1.83816, 0.13561, 84.8831, 0, 0, 0, -0.00683594, 0.291992, -9.70898, 1.18.2022 20:24:41.128
1026, 1.83816, 0.13561, 84.8831, 0, -0.000976562, 0, -0.0351562, 0.299805, -9.73145, 1.18.2022 20:24:41.136
1027, 1.83816, 0.13561, 84.8831, 0, -0.000976562, 0, 0.0429688, 0.331055, -9.74121, 1.18.2022 20:24:41.144
1028, 1.83816, 0.13561, 84.8831, 0, -0.000976562, 0.000976562, -0.0683594, 0.330078, -9.71387, 1.18.2022 20:24:41.152
1029, 1.83816, 0.13561, 84.8831, 0, -0.000976562, 0, -0.0351562, 0.331055, -9.7334, 1.18.2022 20:24:41.160
