Seq, Rot x, Rot y, Rot z, Vel x, Vel y, Vel z, Acc x, Acc y, Acc z, Time(m.d.y h:m:s.ms)
0, 1.80747, 0.164633, 206.356, 0, 0, 0.000976562, -0.0136719, 0.287109, -9.70898, 1.18.2022 18:55:43.305
1, 1.80747, 0.164633, 206.356, 0, 0.000976562, 0.000976562, -0.0263672, 0.31543, -9.77148, 1.18.2022 18:55:43.311
2, 1.80747, 0.164633, 206.356, 0, 0.000976562, 0.000976562, -0.0498047, 0.329102, -9.74219, 1.18.2022 18:55:43.319
3, 1.80747, 0.164633, 206.356, 0, 0, -0.000976562, 0.0361328, 0.314453, -9.76074, 1.18.2022 18:55:43.327
4, 1.80747, 0.164633, 206.356, -0.00195312, 0, -0.000976562, -0.0732422, 0.324219, -9.72852, 1.18.2022 18:55:43.335
5, 1.80747, 0.164633, 206.356, 0, 0, -0.000976562, -0.0322266, 0.308594, -9.69824, 1.18.2022 18:55:43.343
6, 1.81427, 0.166227, 206.356, 0, -0.000976562, -0.00195312, -0.0166016, 0.271484, -9.74707, 1.18.2022 18:55:43.351
7, 1.80747, 0.164633, 206.356, 0, 0, -0.00195312, -0.0576172, 0.319336, -9.75684, 1.18.2022 18:55:43.359
8, 1.80747, 0.164633, 206.356, -0.000976562, 0, -0.00195312, -0.0126953, 0.31543, -9.77441, 1.18.2022 18:55:43.367
9, 1.81427, 0.166227, 206.356, -0.000976562, 0, 0, -0.0253906, 0.314453, -9.72461, 1.18.2022 18:55:43.375
10, 1.81427, 0.166227, 206.356, -0.000976562, 0, -0.00195312, -0.0761719, 0.355469, -9.74805, 1.18.2022 18:55:43.383
11, 1.81427, 0.166227, 206.356, 0, 0, 0, -0.00683594, 0.314453, -9.72754, 1.18.2022 18:55:43.391
12, 1.81427, 0.166227, 206.356, -0.000976562, -0.00195312, 0, -0.0595703, 0.304688, -9.73828, 1.18.2022 18:55:43.399
13, 1.81427, 0.166227, 206.356, -0.000976562, -0.000976562, 0, -0.0429688, 0.295898, -9.74805, 1.18.2022 18:55:43.407
14, 1.81427, 0.166227, 206.356, -0.000976562, 0, 0, -0.00683594, 0.291992, -9.7207, 1.18.2022 18:55:43.415
15, 1.81436, 0.166117, 206.349, -0.000976562, 0, 0, -0.0927734, 0.316406, -9.73535, 1.18.2022 18:55:43.423
16, 1.81436, 0.166117, 206.349, -0.000976562, 0, 0, -0.0166016, 0.319336, -9.74121, 1.18.2022 18:55:43.431
17, 1.81436, 0.166117, 206.349, -0.00195312, 0, 0, -0.0126953, 0.310547, -9.7793, 1.18.2022 18:55:43.439
18, 1.81436, 0.166117, 206.349, -0.000976562, 0, 0, -0.0957031, 0.320312, -9.78223, 1.18.2022 18:55:43.447
19, 1.81436, 0.166117, 206.349, -0.000976562, 0, 0, 0.0185547, 0.28418, -9.76172, 1.18.2022 18:55:43.455
20, 1.81436, 0.166117, 206.349, -0.000976562, 0, -0.00195312, -0.0595703, 0.319336, -9.73047, 1.18.2022 18:55:43.463
21, 1.81436, 0.166117, 206.349, -0.000976562, 0.000976562, -0.000976562, -0.0566406, 0.338867, -9.74219, 1.18.2022 18:55:43.471
22, 1.81436, 0.166117, 206.349, -0.000976562, 0, 0, 0.0195312, 0.314453, -9.75391, 1.18.2022 18:55:43.479
23, 1.81436, 0.166117, 206.349, -0.000976562, -0.000976562, 0.000976562, -0.0996094, 0.334961, -9.71289, 1.18.2022 18:55:43.487
24, 1.81436, 0.166117, 206.349, -0.00195312, 0, 0, -0.046875, 0.301758, -9.71973, 1.18.2022 18:55:43.495
25, 1.81436, 0.166117, 206.349, -0.000976562, -0.000976562, 0, -0.00488281, 0.277344, -9.76855, 1.18.2022 18:55:43.503
26, 1.81436, 0.166117, 206.349, -0.000976562, -0.000976562, 0, -0.0849609, 0.311523, -9.72559, 1.18.2022 18:55:43.511
27, 1.81436, 0.166117, 206.349, -0.000976562, -0.000976562, 0, 0.0126953, 0.303711, -9.71582, 1.18.2022 18:55:43.519
28, 1.81436, 0.166117, 206.349, -0.000976562, 0, 0, -0.0576172, 0.310547, -9.7666, 1.18.2022 18:55:43.527
29, 1.81436, 0.166117, 206.349, -0.000976562, 0, 0, -0.0332031, 0.333984, -9.73828, 1.18.2022 18:55:43.535
30, 1.81436, 0.166117, 206.349, -0.000976562, 0, 0, 0.0234375, 0.302734, -9.76855, 1.18.2022 18:55:43.543
31, 1.81436, 0.166117, 206.349, 0, -0.000976562, 0, -0.0361328, 0.293945, -9.76953, 1.18.2022 18:55:43.551
32, 1.81436, 0.166117, 206.349, -0.000976562, 0, 0, 0.00292969, 0.319336, -9.74609, 1.18.2022 18:55:43.557
33, 1.81436, 0.166117, 206.349, -0.000976562, -0.000976562, -0.00195312, -0.00976562, 0.310547, -9.75586, 1.18.2022 18:55:43.565
34, 1.81436, 0.166117, 206.349, -0.000976562, 0, -0.00195312, -0.0693359, 0.317383, -9.74023, 1.18.2022 18:55:43.573
35, 1.81436, 0.166117, 206.349, -0.000976562, -0.000976562, 0, 0.0244141, 0.310547, -9.70605, 1.18.2022 18:55:43.581
36, 1.81436, 0.166117, 206.349, -0.000976562, -0.000976562, 0, -0.0439453, 0.296875, -9.70312, 1.18.2022 18:55:43.589
37, 1.81436, 0.166117, 206.349, -0.000976562, -0.000976562, 0.000976562, -0.0507812, 0.320312, -9.77148, 1.18.2022 18:55:43.597
38, 1.82116, 0.167711, 206.349, -0.000976562, 0, 0.000976562, 0.0361328, 0.306641, -9.73535, 1.18.2022 18:55:43.605
39, 1.82116, 0.167711, 206.349, 0, 0, 0, -0.0595703, 0.319336, -9.73535, 1.18.2022 18:55:43.613
40, 1.82116, 0.167711, 206.349, -0.000976562, -0.000976562, 0, -0.0283203, 0.299805, -9.71289, 1.18.2022 18:55:43.621
41, 1.82116, 0.167711, 206.349, 0, 0, 0, 0.0263672, 0.294922, -9.7373, 1.18.2022 18:55:43.629
42, 1.82116, 0.167711, 206.349, 0, 0, 0, -0.0654297, 0.349609, -9.70117, 1.18.2022 18:55:43.637
43, 1.82116, 0.167711, 206.349, 0, 0, 0, 0.0078125, 0.302734, -9.73926, 1.18.2022 18:55:43.645
44, 1.82116, 0.167711, 206.349, 0, 0, 0, 0.0166016, 0.3125, -9.76562, 1.18.2022 18:55:43.653
45, 1.82116, 0.167711, 206.349, 0, -0.000976562, 0, -0.0546875, 0.3125, -9.7666, 1.18.2022 18:55:43.661
46, 1.82116, 0.167711, 206.349, 0, 0, 0, 0.0361328, 0.319336, -9.75879, 1.18.2022 18:55:43.669
47, 1.82116, 0.167711, 206.349, -0.00195312, 0, 0, -0.0791016, 0.310547, -9.77539, 1.18.2022 18:55:43.677
48, 1.82116, 0.167711, 206.349, 0, 0, 0, -0.0517578, 0.323242, -9.71387, 1.18.2022 18:55:43.685
49, 1.82116, 0.167711, 206.349, -0.000976562, -0.000976562, -0.00195312, 0, 0.293945, -9.78223, 1.18.2022 18:55:43.693
50, 1.82116, 0.167711, 206.349, 0, 0, 0, -0.0566406, 0.301758, -9.72656, 1.18.2022 18:55:43.701
51, 1.82116, 0.167711, 206.349, 0, -0.000976562, 0, 0.00683594, 0.266602, -9.74316, 1.18.2022 18:55:43.709
52, 1.82116, 0.167711, 206.349, 0.000976562, -0.000976562, 0, -0.00878906, 0.298828, -9.71094, 1.18.2022 18:55:43.717
53, 1.82116, 0.167711, 206.349, -0.000976562, -0.000976562, 0, -0.0585938, 0.330078, -9.7002, 1.18.2022 18:55:43.725
54, 1.82116, 0.167711, 206.349, 0.000976562, 0, 0, 0.0107422, 0.295898, -9.68262, 1.18.2022 18:55:43.733
55, 1.82116, 0.167711, 206.349, 0, -0.000976562, 0, -0.0644531, 0.297852, -9.75488, 1.18.2022 18:55:43.741
56, 1.82125, 0.167601, 206.341, 0, 0, 0, -0.0527344, 0.329102, -9.75195, 1.18.2022 18:55:43.749
57, 1.82125, 0.167601, 206.341, 0, -0.000976562, 0, -0.00292969, 0.296875, -9.7793, 1.18.2022 18:55:43.757
58, 1.82125, 0.167601, 206.341, 0, 0, 0, -0.0859375, 0.304688, -9.7334, 1.18.2022 18:55:43.765
59, 1.82125, 0.167601, 206.341, 0.000976562, 0, 0.000976562, -0.0429688, 0.297852, -9.74609, 1.18.2022 18:55:43.773
60, 1.82125, 0.167601, 206.341, 0, -0.000976562, 0, -0.00976562, 0.274414, -9.75879, 1.18.2022 18:55:43.781
61, 1.82125, 0.167601, 206.341, 0, -0.000976562, 0, -0.0693359, 0.335938, -9.75195, 1.18.2022 18:55:43.789
62, 1.82125, 0.167601, 206.341, 0.000976562, 0, 0, 0.00683594, 0.322266, -9.7627, 1.18.2022 18:55:43.797
63, 1.81444, 0.166007, 206.341, 0, 0, 0, -0.0478516, 0.293945, -9.76953, 1.18.2022 18:55:43.805
64, 1.81444, 0.166007, 206.341, 0, 0, 0, -0.0117188, 0.310547, -9.77246, 1.18.2022 18:55:43.813
65, 1.81444, 0.166007, 206.341, 0, 0, 0, 0.0175781, 0.290039, -9.7168, 1.18.2022 18:55:43.821
66, 1.81436, 0.166117, 206.349, 0, -0.000976562, 0, -0.078125, 0.335938, -9.74902, 1.18.2022 18:55:43.829
67, 1.81436, 0.166117, 206.349, -0.000976562, 0, -0.000976562, -0.0166016, 0.324219, -9.73633, 1.18.2022 18:55:43.837
68, 1.81436, 0.166117, 206.349, 0, 0, 0, -0.0117188, 0.333008, -9.7334, 1.18.2022 18:55:43.845
69, 1.81436, 0.166117, 206.349, 0, 0, 0, -0.0644531, 0.320312, -9.76367, 1.18.2022 18:55:43.853
70, 1.81436, 0.166117, 206.349, -0.000976562, 0, -0.000976562, -0.00488281, 0.289062, -9.76074, 1.18.2022 18:55:43.861
71, 1.81436, 0.166117, 206.349, -0.000976562, -0.000976562, -0.00195312, -0.0429688, 0.322266, -9.75488, 1.18.2022 18:55:43.869
72, 1.82116, 0.167711, 206.349, -0.00195312, -0.000976562, -0.000976562, -0.0419922, 0.318359, -9.7168, 1.18.2022 18:55:43.877
73, 1.82116, 0.167711, 206.349, -0.000976562, 0, 0, 0.00195312, 0.293945, -9.78906, 1.18.2022 18:55:43.885
74, 1.82116, 0.167711, 206.349, -0.000976562, 0, 0, -0.0654297, 0.305664, -9.69824, 1.18.2022 18:55:43.893
75, 1.82116, 0.167711, 206.349, -0.00195312, 0, 0, -0.0234375, 0.316406, -9.73828, 1.18.2022 18:55:43.901
76, 1.82116, 0.167711, 206.349, -0.000976562, 0, 0, -0.00390625, 0.297852, -9.73242, 1.18.2022 18:55:43.909
77, 1.82116, 0.167711, 206.349, -0.000976562, 0, 0, -0.0859375, 0.321289, -9.73535, 1.18.2022 18:55:43.917
78, 1.82116, 0.167711, 206.349, -0.000976562, -0.000976562, 0, 0.0195312, 0.314453, -9.73926, 1.18.2022 18:55:43.925
79, 1.82116, 0.167711, 206.349, -0.000976562, -0.000976562, 0, 0.0117188, 0.295898, -9.75391, 1.18.2022 18:55:43.933
80, 1.82116, 0.167711, 206.349, -0.000976562, -0.00195312, 0, -0.0234375, 0.311523, -9.71973, 1.18.2022 18:55:43.941
81, 1.82116, 0.167711, 206.349, -0.000976562, -0.000976562, 0, 0.0214844, 0.314453, -9.72754, 1.18.2022 18:55:43.949
82, 1.82116, 0.167711, 206.349, 0, -0.000976562, 0, -0.0566406, 0.294922, -9.72656, 1.18.2022 18:55:43.957
83, 1.82116, 0.167711, 206.349, 0, 0, 0, -0.03125, 0.297852, -9.75977, 1.18.2022 18:55:43.965
84, 1.82116, 0.167711, 206.349, 0, 0, 0, 0.0214844, 0.298828, -9.77539, 1.18.2022 18:55:43.973
85, 1.82116, 0.167711, 206.349, -0.000976562, -0.000976562, 0, -0.0996094, 0.314453, -9.73535, 1.18.2022 18:55:43.981
86, 1.82116, 0.167711, 206.349, -0.00195312, -0.000976562, -0.000976562, 0.000976562, 0.306641, -9.71094, 1.18.2022 18:55:43.989
87, 1.82116, 0.167711, 206.349, -0.000976562, 0, 0, -0.0253906, 0.306641, -9.72266, 1.18.2022 18:55:43.997
88, 1.82116, 0.167711, 206.349, -0.000976562, -0.000976562, 0, -0.0683594, 0.308594, -9.70996, 1.18.2022 18:55:44.005
89, 1.82116, 0.167711, 206.349, -0.000976562, 0, 0, 0.0341797, 0.311523, -9.72266, 1.18.2022 18:55:44.013
90, 1.82116, 0.167711, 206.349, -0.000976562, 0.000976562, 0, -0.0527344, 0.298828, -9.7627, 1.18.2022 18:55:44.021
91, 1.82116, 0.167711, 206.349, -0.000976562, 0, 0, -0.0546875, 0.319336, -9.74023, 1.18.2022 18:55:44.029
92, 1.82116, 0.167711, 206.349, -0.000976562, -0.000976562, 0, 0.0117188, 0.291016, -9.74902, 1.18.2022 18:55:44.037
93, 1.82116, 0.167711, 206.349, -0.000976562, -0.000976562, 0, -0.0996094, 0.295898, -9.75, 1.18.2022 18:55:44.045
94, 1.82116, 0.167711, 206.349, -0.000976562, -0.00195312, 0, -0.0253906, 0.311523, -9.73438, 1.18.2022 18:55:44.053
95, 1.82116, 0.167711, 206.349, 0.000976562, -0.000976562, 0.000976562, -0.0214844, 0.305664, -9.75781, 1.18.2022 18:55:44.061
96, 1.81957, 0.174521, 206.349, -0.000976562, -0.00195312, 0, -0.0576172, 0.324219, -9.75879, 1.18.2022 18:55:44.069
97, 1.81957, 0.174521, 206.349, -0.000976562, 0, 0, 0.0244141, 0.30957, -9.7373, 1.18.2022 18:55:44.077
98, 1.81957, 0.174521, 206.349, -0.000976562, 0, 0, -0.0429688, 0.321289, -9.74023, 1.18.2022 18:55:44.085
99, 1.81957, 0.174521, 206.349, -0.000976562, 0, -0.000976562, -0.0400391, 0.333008, -9.72852, 1.18.2022 18:55:44.093
100, 1.81948, 0.174631, 206.356, -0.000976562, -0.000976562, -0.00195312, 0.0078125, 0.296875, -9.72559, 1.18.2022 18:55:44.101
101, 1.81948, 0.174631, 206.356, -0.000976562, 0, 0, -0.0664062, 0.329102, -9.75684, 1.18.2022 18:55:44.109
102, 1.81948, 0.174631, 206.356, 0, -0.000976562, 0, 0.00683594, 0.325195, -9.76953, 1.18.2022 18:55:44.117
103, 1.81948, 0.174631, 206.356, -0.000976562, 0, 0, -0.0185547, 0.30957, -9.73438, 1.18.2022 18:55:44.125
104, 1.82108, 0.167822, 206.356, -0.000976562, 0, 0, -0.0615234, 0.318359, -9.72363, 1.18.2022 18:55:44.133
105, 1.82108, 0.167822, 206.356, -0.000976562, 0, 0, 0.0175781, 0.313477, -9.72266, 1.18.2022 18:55:44.141
106, 1.82108, 0.167822, 206.356, -0.000976562, 0, 0, -0.0351562, 0.317383, -9.74512, 1.18.2022 18:55:44.149
107, 1.82108, 0.167822, 206.356, -0.000976562, 0.000976562, 0, -0.0498047, 0.328125, -9.72559, 1.18.2022 18:55:44.157
108, 1.82108, 0.167822, 206.356, -0.000976562, -0.000976562, 0, -0.00390625, 0.30957, -9.72949, 1.18.2022 18:55:44.165
109, 1.82108, 0.167822, 206.356, -0.000976562, 0, 0, -0.0878906, 0.314453, -9.73535, 1.18.2022 18:55:44.173
110, 1.82099, 0.167932, 206.364, -0.000976562, 0, 0, -0.0107422, 0.301758, -9.70605, 1.18.2022 18:55:44.181
111, 1.82099, 0.167932, 206.364, -0.000976562, 0.000976562, 0, -0.0117188, 0.301758, -9.72266, 1.18.2022 18:55:44.189
112, 1.82099, 0.167932, 206.364, -0.000976562, 0.000976562, 0, -0.0683594, 0.296875, -9.70801, 1.18.2022 18:55:44.197
113, 1.82099, 0.167932, 206.364, -0.000976562, 0, 0, 0.00488281, 0.300781, -9.77246, 1.18.2022 18:55:44.205
114, 1.82099, 0.167932, 206.364, -0.000976562, 0, 0, -0.0107422, 0.298828, -9.71094, 1.18.2022 18:55:44.213
115, 1.82099, 0.167932, 206.364, -0.000976562, 0, 0, -0.0566406, 0.297852, -9.74121, 1.18.2022 18:55:44.221
116, 1.82099, 0.167932, 206.364, -0.000976562, 0, 0.000976562, 0.0244141, 0.298828, -9.7041, 1.18.2022 18:55:44.229
117, 1.82099, 0.167932, 206.364, -0.000976562, -0.000976562, 0.000976562, -0.0283203, 0.3125, -9.76465, 1.18.2022 18:55:44.237
118, 1.82099, 0.167932, 206.364, -0.000976562, 0, 0, -0.0136719, 0.330078, -9.70996, 1.18.2022 18:55:44.245
119, 1.82099, 0.167932, 206.364, -0.000976562, -0.000976562, 0, 0.00488281, 0.297852, -9.74707, 1.18.2022 18:55:44.253
120, 1.82099, 0.167932, 206.364, -0.00195312, -0.000976562, 0, -0.0595703, 0.352539, -9.72949, 1.18.2022 18:55:44.261
121, 1.82099, 0.167932, 206.364, -0.00195312, 0, 0.000976562, -0.0136719, 0.306641, -9.72461, 1.18.2022 18:55:44.269
122, 1.82099, 0.167932, 206.364, -0.00195312, 0, 0.000976562, -0.0234375, 0.297852, -9.73242, 1.18.2022 18:55:44.277
123, 1.82099, 0.167932, 206.364, -0.000976562, 0, 0.000976562, -0.0634766, 0.308594, -9.71484, 1.18.2022 18:55:44.285
124, 1.82099, 0.167932, 206.364, -0.00195312, 0, 0, 0.0390625, 0.270508, -9.71973, 1.18.2022 18:55:44.293
125, 1.82099, 0.167932, 206.364, -0.000976562, -0.000976562, 0, -0.0615234, 0.294922, -9.71973, 1.18.2022 18:55:44.301
126, 1.82099, 0.167932, 206.364, 0.000976562, 0, 0, -0.0498047, 0.314453, -9.72852, 1.18.2022 18:55:44.309
127, 1.82099, 0.167932, 206.364, -0.000976562, -0.000976562, 0, 0.0166016, 0.307617, -9.74219, 1.18.2022 18:55:44.317
128, 1.82099, 0.167932, 206.364, -0.00195312, -0.000976562, 0, -0.0732422, 0.325195, -9.70898, 1.18.2022 18:55:44.325
129, 1.82099, 0.167932, 206.364, -0.000976562, -0.000976562, -0.00195312, -0.0117188, 0.310547, -9.76465, 1.18.2022 18:55:44.333
130, 1.82099, 0.167932, 206.364, -0.000976562, 0, 0, -0.0136719, 0.299805, -9.73926, 1.18.2022 18:55:44.341
131, 1.82099, 0.167932, 206.364, 0.000976562, 0.000976562, 0, -0.0595703, 0.322266, -9.75488, 1.18.2022 18:55:44.349
132, 1.82099, 0.167932, 206.364, 0.000976562, 0, 0, 0.0195312, 0.291992, -9.72559, 1.18.2022 18:55:44.357
133, 1.82258, 0.161123, 206.364, -0.000976562, 0, 0, -0.0654297, 0.313477, -9.7002, 1.18.2022 18:55:44.365
134, 1.82258, 0.161123, 206.364, -0.000976562, 0.000976562, 0, -0.0400391, 0.321289, -9.74023, 1.18.2022 18:55:44.373
135, 1.82258, 0.161123, 206.364, 0, 0, -0.000976562, -0.00683594, 0.299805, -9.71777, 1.18.2022 18:55:44.381
136, 1.82258, 0.161123, 206.364, 0, 0, -0.000976562, -0.0878906, 0.326172, -9.71875, 1.18.2022 18:55:44.389
137, 1.82258, 0.161123, 206.364, 0, 0, -0.000976562, -0.0117188, 0.302734, -9.74902, 1.18.2022 18:55:44.397
138, 1.82258, 0.161123, 206.364, 0, 0, -0.000976562, -0.00488281, 0.280273, -9.73242, 1.18.2022 18:55:44.405
139, 1.82258, 0.161123, 206.364, 0, 0, -0.000976562, -0.078125, 0.34668, -9.70898, 1.18.2022 18:55:44.413
140, 1.82258, 0.161123, 206.364, 0.000976562, 0, -0.000976562, 0, 0.28125, -9.7373, 1.18.2022 18:55:44.421
141, 1.82258, 0.161123, 206.364, 0, -0.000976562, -0.000976562, -0.0361328, 0.306641, -9.7832, 1.18.2022 18:55:44.429
142, 1.82258, 0.161123, 206.364, 0, 0, -0.00195312, -0.0517578, 0.335938, -9.74512, 1.18.2022 18:55:44.437
143, 1.82258, 0.161123, 206.364, 0, 0, -0.000976562, 0.0078125, 0.301758, -9.71387, 1.18.2022 18:55:44.445
144, 1.82258, 0.161123, 206.364, 0, 0, -0.000976562, -0.0585938, 0.337891, -9.71387, 1.18.2022 18:55:44.453
145, 1.82258, 0.161123, 206.364, 0, -0.000976562, -0.000976562, -0.0117188, 0.314453, -9.75098, 1.18.2022 18:55:44.461
146, 1.82258, 0.161123, 206.364, 0, 0, 0, -0.0214844, 0.307617, -9.74805, 1.18.2022 18:55:44.469
147, 1.82258, 0.161123, 206.364, 0, 0, -0.000976562, -0.0683594, 0.333008, -9.72363, 1.18.2022 18:55:44.477
148, 1.82258, 0.161123, 206.364, 0, 0, -0.000976562, 0.0126953, 0.311523, -9.73926, 1.18.2022 18:55:44.485
149, 1.82258, 0.161123, 206.364, 0.000976562, -0.00195312, 0, -0.0292969, 0.293945, -9.78906, 1.18.2022 18:55:44.493
150, 1.82099, 0.167932, 206.364, 0, -0.00195312, 0, -0.0654297, 0.308594, -9.69824, 1.18.2022 18:55:44.501
151, 1.82099, 0.167932, 206.364, 0, 0, -0.000976562, 0.0166016, 0.297852, -9.74707, 1.18.2022 18:55:44.509
152, 1.82099, 0.167932, 206.364, 0, 0, -0.000976562, -0.0664062, 0.319336, -9.72559, 1.18.2022 18:55:44.517
153, 1.82099, 0.167932, 206.364, 0, -0.000976562, -0.000976562, -0.0117188, 0.305664, -9.75098, 1.18.2022 18:55:44.525
154, 1.81419, 0.166338, 206.364, 0.000976562, 0.000976562, -0.000976562, -0.0136719, 0.291992, -9.70898, 1.18.2022 18:55:44.531
155, 1.81419, 0.166338, 206.364, 0, 0, -0.000976562, -0.0996094, 0.319336, -9.73926, 1.18.2022 18:55:44.539
156, 1.81419, 0.166338, 206.364, 0.000976562, 0.000976562, -0.000976562, 0.0263672, 0.304688, -9.7207, 1.18.2022 18:55:44.547
157, 1.81578, 0.159528, 206.364, 0.000976562, 0, -0.000976562, -0.0332031, 0.327148, -9.75195, 1.18.2022 18:55:44.555
158, 1.81578, 0.159528, 206.364, 0, 0, -0.000976562, -0.0488281, 0.316406, -9.71191, 1.18.2022 18:55:44.563
159, 1.81578, 0.159528, 206.364, 0, 0, -0.000976562, 0.00683594, 0.321289, -9.80078, 1.18.2022 18:55:44.571
160, 1.81419, 0.166338, 206.364, 0, -0.00195312, 0, -0.0478516, 0.327148, -9.75879, 1.18.2022 18:55:44.579
161, 1.81419, 0.166338, 206.364, -0.00195312, -0.000976562, -0.000976562, -0.0615234, 0.319336, -9.74023, 1.18.2022 18:55:44.587
162, 1.81419, 0.166338, 206.364, 0, -0.000976562, -0.000976562, -0.00683594, 0.291992, -9.71875, 1.18.2022 18:55:44.595
163, 1.81419, 0.166338, 206.364, 0, 0, -0.000976562, -0.0839844, 0.3125, -9.76367, 1.18.2022 18:55:44.603
164, 1.81419, 0.166338, 206.364, 0, -0.000976562, -0.000976562, 0.00195312, 0.314453, -9.75586, 1.18.2022 18:55:44.611
165, 1.81451, 0.166353, 206.362, 0, -0.000976562, -0.000976562, -0.0185547, 0.297852, -9.7373, 1.18.2022 18:55:44.619
166, 1.81442, 0.166463, 206.37, 0, -0.000976562, -0.000976562, -0.0351562, 0.319336, -9.7334, 1.18.2022 18:55:44.627
167, 1.81442, 0.166463, 206.37, -0.000976562, 0, 0, 0.0146484, 0.283203, -9.7373, 1.18.2022 18:55:44.635
168, 1.81442, 0.166463, 206.37, 0, -0.000976562, -0.00195312, -0.0429688, 0.322266, -9.75488, 1.18.2022 18:55:44.643
169, 1.81442, 0.166463, 206.37, 0, -0.000976562, -0.00195312, -0.0292969, 0.310547, -9.78125, 1.18.2022 18:55:44.651
170, 1.81442, 0.166463, 206.37, -0.000976562, -0.000976562, -0.000976562, 0.0107422, 0.301758, -9.7041, 1.18.2022 18:55:44.659
171, 1.81442, 0.166463, 206.37, -0.000976562, 0, -0.000976562, -0.0830078, 0.333984, -9.75879, 1.18.2022 18:55:44.667
172, 1.81442, 0.166463, 206.37, -0.000976562, -0.000976562, -0.000976562, -0.03125, 0.322266, -9.77148, 1.18.2022 18:55:44.675
173, 1.81442, 0.166463, 206.37, -0.000976562, -0.000976562, -0.000976562, -0.0185547, 0.308594, -9.70117, 1.18.2022 18:55:44.683
174, 1.81442, 0.166463, 206.37, -0.000976562, 0, -0.000976562, -0.0810547, 0.317383, -9.74219, 1.18.2022 18:55:44.691
175, 1.81442, 0.166463, 206.37, -0.000976562, -0.000976562, -0.000976562, 0.0410156, 0.299805, -9.74707, 1.18.2022 18:55:44.699
176, 1.81442, 0.166463, 206.37, -0.000976562, 0, -0.00195312, -0.0527344, 0.305664, -9.76953, 1.18.2022 18:55:44.707
177, 1.81442, 0.166463, 206.37, 0, -0.000976562, -0.00195312, -0.0380859, 0.316406, -9.73145, 1.18.2022 18:55:44.715
178, 1.81434, 0.166573, 206.377, -0.000976562, 0, -0.000976562, 0.00292969, 0.27832, -9.74512, 1.18.2022 18:55:44.723
179, 1.81434, 0.166573, 206.377, -0.000976562, 0, -0.000976562, -0.0859375, 0.299805, -9.73535, 1.18.2022 18:55:44.731
180, 1.81434, 0.166573, 206.377, -0.000976562, -0.000976562, 0, -0.0205078, 0.296875, -9.72266, 1.18.2022 18:55:44.739
181, 1.81434, 0.166573, 206.377, 0, -0.000976562, -0.000976562, -0.0332031, 0.297852, -9.74414, 1.18.2022 18:55:44.747
182, 1.81434, 0.166573, 206.377, -0.000976562, -0.000976562, 0, -0.0761719, 0.345703, -9.75391, 1.18.2022 18:55:44.755
183, 1.81434, 0.166573, 206.377, -0.000976562, -0.000976562, -0.00195312, -0.00976562, 0.291992, -9.77539, 1.18.2022 18:55:44.763
184, 1.81434, 0.166573, 206.377, -0.000976562, 0, -0.000976562, -0.0332031, 0.325195, -9.77148, 1.18.2022 18:55:44.771
185, 1.81434, 0.166573, 206.377, -0.000976562, -0.000976562, -0.000976562, -0.0498047, 0.333984, -9.76172, 1.18.2022 18:55:44.779
186, 1.81434, 0.166573, 206.377, 0, 0.000976562, -0.000976562, 0.0195312, 0.295898, -9.74707, 1.18.2022 18:55:44.787
187, 1.81434, 0.166573, 206.377, -0.000976562, 0.000976562, -0.00195312, -0.0419922, 0.333008, -9.72852, 1.18.2022 18:55:44.795
188, 1.81434, 0.166573, 206.377, -0.000976562, 0, -0.000976562, -0.0361328, 0.313477, -9.77832, 1.18.2022 18:55:44.803
189, 1.81434, 0.166573, 206.377, -0.000976562, 0, -0.000976562, -0.00683594, 0.319336, -9.73926, 1.18.2022 18:55:44.811
190, 1.81442, 0.166463, 206.37, -0.000976562, 0, -0.000976562, -0.0898438, 0.345703, -9.73926, 1.18.2022 18:55:44.819
191, 1.81442, 0.166463, 206.37, -0.000976562, 0, -0.000976562, 0.0126953, 0.311523, -9.72754, 1.18.2022 18:55:44.827
192, 1.81442, 0.166463, 206.37, -0.000976562, -0.000976562, -0.000976562, -0.0351562, 0.307617, -9.73828, 1.18.2022 18:55:44.835
193, 1.81442, 0.166463, 206.37, -0.000976562, 0, -0.00195312, -0.0302734, 0.301758, -9.71777, 1.18.2022 18:55:44.843
194, 1.82123, 0.168058, 206.37, -0.00195312, 0, -0.000976562, 0.00292969, 0.301758, -9.72949, 1.18.2022 18:55:44.851
195, 1.82123, 0.168058, 206.37, -0.000976562, -0.000976562, -0.000976562, -0.0419922, 0.345703, -9.67871, 1.18.2022 18:55:44.859
196, 1.82123, 0.168058, 206.37, -0.00195312, 0, -0.000976562, -0.0400391, 0.31543, -9.70508, 1.18.2022 18:55:44.867
197, 1.82123, 0.168058, 206.37, -0.000976562, -0.000976562, -0.000976562, -0.00488281, 0.291992, -9.77734, 1.18.2022 18:55:44.875
198, 1.82123, 0.168058, 206.37, -0.000976562, 0, -0.000976562, -0.0830078, 0.30957, -9.74023, 1.18.2022 18:55:44.883
199, 1.82123, 0.168058, 206.37, -0.000976562, 0, 0, 0.0117188, 0.3125, -9.74902, 1.18.2022 18:55:44.891
200, 1.82123, 0.168058, 206.37, -0.000976562, -0.000976562, 0, -0.0175781, 0.289062, -9.68945, 1.18.2022 18:55:44.899
201, 1.82123, 0.168058, 206.37, -0.000976562, 0, 0, -0.0634766, 0.338867, -9.68555, 1.18.2022 18:55:44.907
202, 1.82131, 0.167948, 206.362, -0.000976562, 0, 0, 0.0146484, 0.306641, -9.7207, 1.18.2022 18:55:44.915
203, 1.82099, 0.167932, 206.364, 0, 0, 0, -0.046875, 0.298828, -9.70801, 1.18.2022 18:55:44.923
204, 1.82099, 0.167932, 206.364, 0, 0, 0, -0.0283203, 0.292969, -9.74414, 1.18.2022 18:55:44.931
205, 1.82099, 0.167932, 206.364, 0, 0, 0, 0.00976562, 0.291016, -9.76855, 1.18.2022 18:55:44.939
206, 1.82099, 0.167932, 206.364, -0.000976562, 0, -0.000976562, -0.0605469, 0.339844, -9.69727, 1.18.2022 18:55:44.947
207, 1.82099, 0.167932, 206.364, -0.000976562, -0.000976562, 0, 0.00195312, 0.31543, -9.76953, 1.18.2022 18:55:44.955
208, 1.82099, 0.167932, 206.364, -0.000976562, 0, 0, -0.00878906, 0.301758, -9.7041, 1.18.2022 18:55:44.963
209, 1.82099, 0.167932, 206.364, -0.000976562, 0, 0, -0.0761719, 0.327148, -9.74414, 1.18.2022 18:55:44.971
210, 1.82099, 0.167932, 206.364, -0.000976562, 0, 0, 0.0214844, 0.288086, -9.75, 1.18.2022 18:55:44.979
211, 1.82099, 0.167932, 206.364, 0, -0.000976562, -0.000976562, -0.0595703, 0.333984, -9.74512, 1.18.2022 18:55:44.987
212, 1.82099, 0.167932, 206.364, 0, -0.000976562, 0, -0.0234375, 0.339844, -9.71387, 1.18.2022 18:55:44.995
213, 1.82099, 0.167932, 206.364, -0.000976562, 0, -0.000976562, -0.0214844, 0.304688, -9.74609, 1.18.2022 18:55:45.003
214, 1.82099, 0.167932, 206.364, -0.000976562, -0.000976562, 0, -0.0664062, 0.320312, -9.75879, 1.18.2022 18:55:45.011
215, 1.82108, 0.167822, 206.356, -0.000976562, 0, 0.000976562, 0.00488281, 0.314453, -9.75586, 1.18.2022 18:55:45.019
216, 1.82108, 0.167822, 206.356, -0.000976562, -0.000976562, 0.000976562, -0.0283203, 0.291016, -9.74609, 1.18.2022 18:55:45.027
217, 1.82108, 0.167822, 206.356, -0.000976562, 0, 0.000976562, -0.0595703, 0.319336, -9.73535, 1.18.2022 18:55:45.035
218, 1.82108, 0.167822, 206.356, -0.000976562, 0, -0.000976562, 0.0380859, 0.294922, -9.7334, 1.18.2022 18:55:45.043
219, 1.82108, 0.167822, 206.356, -0.000976562, 0, 0, -0.0283203, 0.317383, -9.75293, 1.18.2022 18:55:45.051
220, 1.82108, 0.167822, 206.356, -0.000976562, 0, 0, -0.0380859, 0.329102, -9.74707, 1.18.2022 18:55:45.059
221, 1.82108, 0.167822, 206.356, -0.00195312, -0.000976562, 0.000976562, 0.0078125, 0.316406, -9.72266, 1.18.2022 18:55:45.067
222, 1.82108, 0.167822, 206.356, -0.000976562, -0.00195312, 0.000976562, -0.0732422, 0.308594, -9.70996, 1.18.2022 18:55:45.075
223, 1.82108, 0.167822, 206.356, -0.000976562, 0.000976562, 0, -0.00195312, 0.319336, -9.74316, 1.18.2022 18:55:45.083
224, 1.82108, 0.167822, 206.356, -0.000976562, 0, 0, -0.0195312, 0.300781, -9.76758, 1.18.2022 18:55:45.091
225, 1.82108, 0.167822, 206.356, -0.000976562, 0.000976562, 0, -0.0898438, 0.317383, -9.74023, 1.18.2022 18:55:45.099
226, 1.82108, 0.167822, 206.356, -0.000976562, 0.000976562, 0, 0.00292969, 0.289062, -9.69727, 1.18.2022 18:55:45.107
227, 1.82108, 0.167822, 206.356, -0.000976562, 0, 0, -0.0283203, 0.299805, -9.73438, 1.18.2022 18:55:45.115
228, 1.82108, 0.167822, 206.356, -0.000976562, 0, 0.000976562, -0.0322266, 0.320312, -9.69824, 1.18.2022 18:55:45.123
229, 1.82108, 0.167822, 206.356, 0, 0, 0, 0.03125, 0.288086, -9.73047, 1.18.2022 18:55:45.131
230, 1.82108, 0.167822, 206.356, 0, 0, 0, -0.0302734, 0.326172, -9.72852, 1.18.2022 18:55:45.139
231, 1.82108, 0.167822, 206.356, 0, 0.000976562, -0.000976562, -0.0283203, 0.316406, -9.74121, 1.18.2022 18:55:45.147
232, 1.82108, 0.167822, 206.356, -0.000976562, 0.000976562, -0.000976562, -0.015625, 0.308594, -9.71973, 1.18.2022 18:55:45.155
233, 1.82108, 0.167822, 206.356, -0.000976562, 0, -0.00195312, -0.0859375, 0.34668, -9.76758, 1.18.2022 18:55:45.163
234, 1.82108, 0.167822, 206.356, -0.000976562, -0.000976562, -0.000976562, -0.00488281, 0.304688, -9.74609, 1.18.2022 18:55:45.171
235, 1.82108, 0.167822, 206.356, -0.00195312, -0.000976562, -0.000976562, -0.0185547, 0.319336, -9.73438, 1.18.2022 18:55:45.179
236, 1.82108, 0.167822, 206.356, -0.00195312, 0, 0.000976562, -0.0449219, 0.331055, -9.71875, 1.18.2022 18:55:45.187
237, 1.82108, 0.167822, 206.356, -0.000976562, 0, -0.000976562, 0.0195312, 0.297852, -9.73242, 1.18.2022 18:55:45.195
238, 1.82108, 0.167822, 206.356, -0.000976562, 0, -0.000976562, -0.0908203, 0.3125, -9.74512, 1.18.2022 18:55:45.203
239, 1.82099, 0.167932, 206.364, -0.000976562, 0, -0.000976562, -0.0234375, 0.316406, -9.73633, 1.18.2022 18:55:45.211
240, 1.82099, 0.167932, 206.364, -0.000976562, 0, -0.000976562, -0.0185547, 0.297852, -9.74609, 1.18.2022 18:55:45.219
241, 1.82099, 0.167932, 206.364, -0.00195312, -0.000976562, -0.000976562, -0.0517578, 0.331055, -9.71875, 1.18.2022 18:55:45.227
242, 1.82099, 0.167932, 206.364, -0.000976562, -0.000976562, -0.000976562, 0.00976562, 0.297852, -9.74902, 1.18.2022 18:55:45.235
243, 1.82099, 0.167932, 206.364, -0.000976562, 0, -0.000976562, -0.0244141, 0.293945, -9.76562, 1.18.2022 18:55:45.243
244, 1.82099, 0.167932, 206.364, -0.000976562, 0, -0.000976562, -0.0615234, 0.345703, -9.74902, 1.18.2022 18:55:45.251
245, 1.82099, 0.167932, 206.364, 0, 0, 0.000976562, 0.0263672, 0.27832, -9.7334, 1.18.2022 18:55:45.259
246, 1.82099, 0.167932, 206.364, -0.000976562, -0.000976562, 0, -0.0498047, 0.291992, -9.71484, 1.18.2022 18:55:45.267
247, 1.82099, 0.167932, 206.364, -0.000976562, 0, -0.000976562, -0.0351562, 0.31543, -9.70508, 1.18.2022 18:55:45.275
248, 1.82099, 0.167932, 206.364, -0.000976562, 0, -0.000976562, -0.00390625, 0.304688, -9.72461, 1.18.2022 18:55:45.283
249, 1.82099, 0.167932, 206.364, -0.000976562, 0, -0.000976562, -0.0712891, 0.332031, -9.76562, 1.18.2022 18:55:45.291
250, 1.82099, 0.167932, 206.364, -0.000976562, 0, -0.000976562, 0.00976562, 0.310547, -9.76953, 1.18.2022 18:55:45.299
251, 1.82099, 0.167932, 206.364, -0.000976562, 0, -0.000976562, -0.0244141, 0.298828, -9.7627, 1.18.2022 18:55:45.307
252, 1.82099, 0.167932, 206.364, -0.000976562, 0, -0.000976562, -0.0478516, 0.302734, -9.75293, 1.18.2022 18:55:45.315
253, 1.82099, 0.167932, 206.364, 0, 0, -0.000976562, 0.0351562, 0.307617, -9.76562, 1.18.2022 18:55:45.323
254, 1.82099, 0.167932, 206.364, 0, -0.000976562, -0.000976562, -0.0478516, 0.28125, -9.74121, 1.18.2022 18:55:45.331
255, 1.82099, 0.167932, 206.364, -0.000976562, -0.000976562, -0.000976562, -0.046875, 0.333008, -9.72852, 1.18.2022 18:55:45.339
256, 1.82099, 0.167932, 206.364, 0, -0.000976562, -0.000976562, -0.00878906, 0.287109, -9.70898, 1.18.2022 18:55:45.347
257, 1.82099, 0.167932, 206.364, -0.000976562, -0.000976562, 0, -0.0898438, 0.308594, -9.70215, 1.18.2022 18:55:45.355
258, 1.82108, 0.167822, 206.356, 0, -0.000976562, -0.00195312, -0.0234375, 0.298828, -9.7041, 1.18.2022 18:55:45.363
259, 1.82108, 0.167822, 206.356, -0.000976562, -0.000976562, -0.000976562, 0.00292969, 0.290039, -9.7373, 1.18.2022 18:55:45.371
260, 1.82108, 0.167822, 206.356, -0.000976562, -0.000976562, -0.00195312, -0.0478516, 0.322266, -9.74512, 1.18.2022 18:55:45.379
261, 1.82108, 0.167822, 206.356, -0.000976562, 0, -0.00195312, 0.0351562, 0.300781, -9.76367, 1.18.2022 18:55:45.387
262, 1.82108, 0.167822, 206.356, -0.000976562, 0, -0.000976562, -0.0351562, 0.317383, -9.74512, 1.18.2022 18:55:45.395
263, 1.82108, 0.167822, 206.356, -0.000976562, -0.000976562, -0.000976562, -0.0185547, 0.324219, -9.74512, 1.18.2022 18:55:45.403
264, 1.82108, 0.167822, 206.356, -0.000976562, -0.000976562, -0.000976562, 0.0332031, 0.274414, -9.77637, 1.18.2022 18:55:45.411
265, 1.82108, 0.167822, 206.356, -0.000976562, 0, 0, -0.0595703, 0.302734, -9.75684, 1.18.2022 18:55:45.419
266, 1.82108, 0.167822, 206.356, -0.000976562, 0, 0, -0.0234375, 0.304688, -9.74805, 1.18.2022 18:55:45.427
267, 1.82108, 0.167822, 206.356, -0.00195312, 0, 0, 0.0078125, 0.307617, -9.73926, 1.18.2022 18:55:45.435
268, 1.82108, 0.167822, 206.356, -0.000976562, -0.000976562, -0.000976562, -0.0996094, 0.314453, -9.72754, 1.18.2022 18:55:45.443
269, 1.82108, 0.167822, 206.356, -0.00195312, 0, 0, -0.00390625, 0.311523, -9.71289, 1.18.2022 18:55:45.451
270, 1.82108, 0.167822, 206.356, -0.000976562, 0, 0, -0.00976562, 0.291016, -9.75879, 1.18.2022 18:55:45.459
271, 1.82116, 0.167711, 206.349, -0.00195312, 0, 0.000976562, -0.0332031, 0.3125, -9.75781, 1.18.2022 18:55:45.467
272, 1.82116, 0.167711, 206.349, -0.000976562, -0.000976562, 0.000976562, 0.00976562, 0.292969, -9.75391, 1.18.2022 18:55:45.475
273, 1.82116, 0.167711, 206.349, -0.000976562, -0.000976562, -0.000976562, -0.0234375, 0.316406, -9.73828, 1.18.2022 18:55:45.483
274, 1.82116, 0.167711, 206.349, -0.00195312, 0, 0, -0.0214844, 0.305664, -9.75098, 1.18.2022 18:55:45.491
275, 1.82116, 0.167711, 206.349, -0.00195312, 0, 0, -0.000976562, 0.277344, -9.69531, 1.18.2022 18:55:45.497
276, 1.82116, 0.167711, 206.349, -0.000976562, -0.000976562, -0.000976562, -0.0810547, 0.321289, -9.73242, 1.18.2022 18:55:45.505
277, 1.82116, 0.167711, 206.349, -0.000976562, 0, 0, -0.0166016, 0.314453, -9.73633, 1.18.2022 18:55:45.513
278, 1.82116, 0.167711, 206.349, -0.000976562, 0, 0, -0.0527344, 0.293945, -9.77148, 1.18.2022 18:55:45.521
279, 1.82125, 0.167601, 206.341, -0.000976562, -0.000976562, 0.000976562, -0.046875, 0.324219, -9.7334, 1.18.2022 18:55:45.529
280, 1.82125, 0.167601, 206.341, 0.000976562, 0, -0.000976562, 0.0146484, 0.285156, -9.7334, 1.18.2022 18:55:45.537
281, 1.82125, 0.167601, 206.341, -0.000976562, 0, 0, -0.0351562, 0.30957, -9.72461, 1.18.2022 18:55:45.545
282, 1.82125, 0.167601, 206.341, -0.000976562, -0.000976562, 0.000976562, -0.0576172, 0.310547, -9.7832, 1.18.2022 18:55:45.553
283, 1.82125, 0.167601, 206.341, -0.000976562, 0, 0, -0.0166016, 0.304688, -9.73242, 1.18.2022 18:55:45.561
284, 1.82125, 0.167601, 206.341, 0, -0.000976562, -0.00195312, -0.0976562, 0.331055, -9.73242, 1.18.2022 18:55:45.569
285, 1.82125, 0.167601, 206.341, -0.00195312, 0, 0, -0.0136719, 0.301758, -9.72266, 1.18.2022 18:55:45.577
286, 1.82125, 0.167601, 206.341, -0.000976562, -0.000976562, -0.000976562, 0, 0.302734, -9.74219, 1.18.2022 18:55:45.585
287, 1.82125, 0.167601, 206.341, -0.00195312, -0.000976562, -0.000976562, -0.0693359, 0.332031, -9.75879, 1.18.2022 18:55:45.593
288, 1.82125, 0.167601, 206.341, -0.000976562, -0.000976562, -0.00195312, 0.00195312, 0.305664, -9.77441, 1.18.2022 18:55:45.601
289, 1.82125, 0.167601, 206.341, -0.00195312, -0.000976562, -0.000976562, -0.0644531, 0.318359, -9.77344, 1.18.2022 18:55:45.609
290, 1.82125, 0.167601, 206.341, 0.000976562, 0, -0.000976562, -0.00878906, 0.330078, -9.71484, 1.18.2022 18:55:45.617
291, 1.82125, 0.167601, 206.341, 0.000976562, 0, -0.000976562, 0.0166016, 0.302734, -9.74707, 1.18.2022 18:55:45.625
292, 1.82125, 0.167601, 206.341, -0.000976562, -0.000976562, -0.000976562, -0.0595703, 0.338867, -9.74023, 1.18.2022 18:55:45.633
293, 1.82125, 0.167601, 206.341, -0.000976562, 0, -0.00195312, 0.0117188, 0.303711, -9.76758, 1.18.2022 18:55:45.641
294, 1.82125, 0.167601, 206.341, -0.000976562, 0, 0, 0, 0.310547, -9.75586, 1.18.2022 18:55:45.649
295, 1.82125, 0.167601, 206.341, 0, 0, -0.000976562, -0.0771484, 0.339844, -9.78418, 1.18.2022 18:55:45.657
296, 1.82125, 0.167601, 206.341, 0, 0, -0.000976562, 0.03125, 0.302734, -9.74414, 1.18.2022 18:55:45.665
297, 1.82125, 0.167601, 206.341, 0, 0.000976562, 0, -0.0429688, 0.291016, -9.74609, 1.18.2022 18:55:45.673
298, 1.82125, 0.167601, 206.341, -0.000976562, 0, -0.000976562, -0.0546875, 0.322266, -9.74512, 1.18.2022 18:55:45.681
299, 1.82125, 0.167601, 206.341, 0, 0, 0.000976562, 0.0332031, 0.295898, -9.75879, 1.18.2022 18:55:45.689
300, 1.82125, 0.167601, 206.341, 0, 0, -0.000976562, -0.0751953, 0.333008, -9.71094, 1.18.2022 18:55:45.697
301, 1.82125, 0.167601, 206.341, 0.000976562, -0.000976562, -0.000976562, -0.0263672, 0.3125, -9.74121, 1.18.2022 18:55:45.705
302, 1.82125, 0.167601, 206.341, 0.000976562, -0.000976562, -0.000976562, 0.00488281, 0.269531, -9.76172, 1.18.2022 18:55:45.713
303, 1.82125, 0.167601, 206.341, 0, -0.000976562, -0.000976562, -0.0585938, 0.285156, -9.71484, 1.18.2022 18:55:45.721
304, 1.82125, 0.167601, 206.341, -0.000976562, -0.000976562, -0.00195312, 0.0175781, 0.287109, -9.72363, 1.18.2022 18:55:45.729
305, 1.82125, 0.167601, 206.341, -0.000976562, 0, -0.000976562, -0.00195312, 0.299805, -9.73438, 1.18.2022 18:55:45.737
306, 1.82125, 0.167601, 206.341, 0.000976562, 0, -0.000976562, -0.0400391, 0.321289, -9.73535, 1.18.2022 18:55:45.745
307, 1.82125, 0.167601, 206.341, 0, 0, -0.000976562, 0.0195312, 0.299805, -9.73047, 1.18.2022 18:55:45.753
308, 1.82125, 0.167601, 206.341, 0, -0.000976562, 0.000976562, -0.0566406, 0.306641, -9.70312, 1.18.2022 18:55:45.761
309, 1.82125, 0.167601, 206.341, 0, 0, -0.000976562, -0.0195312, 0.333008, -9.79492, 1.18.2022 18:55:45.769
310, 1.82125, 0.167601, 206.341, 0, 0, 0.000976562, -0.03125, 0.305664, -9.77148, 1.18.2022 18:55:45.777
311, 1.82125, 0.167601, 206.341, 0.000976562, 0, -0.000976562, -0.101562, 0.34082, -9.72266, 1.18.2022 18:55:45.785
312, 1.82125, 0.167601, 206.341, 0, -0.000976562, -0.000976562, -0.0185547, 0.302734, -9.73438, 1.18.2022 18:55:45.793
313, 1.82125, 0.167601, 206.341, -0.000976562, 0, -0.000976562, -0.0244141, 0.298828, -9.77734, 1.18.2022 18:55:45.801
314, 1.82116, 0.167711, 206.349, 0, 0.000976562, 0, -0.0664062, 0.305664, -9.75, 1.18.2022 18:55:45.809
315, 1.82276, 0.160902, 206.349, 0.000976562, 0, -0.000976562, 0.0244141, 0.275391, -9.72363, 1.18.2022 18:55:45.817
316, 1.82276, 0.160902, 206.349, 0.000976562, 0, -0.00195312, -0.0537109, 0.285156, -9.71094, 1.18.2022 18:55:45.825
317, 1.82276, 0.160902, 206.349, 0, -0.000976562, -0.000976562, -0.0332031, 0.297852, -9.74121, 1.18.2022 18:55:45.833
318, 1.82276, 0.160902, 206.349, 0, 0, -0.000976562, 0.000976562, 0.250977, -9.69824, 1.18.2022 18:55:45.841
319, 1.82276, 0.160902, 206.349, -0.000976562, 0, -0.000976562, -0.0800781, 0.326172, -9.72363, 1.18.2022 18:55:45.849
320, 1.82276, 0.160902, 206.349, 0, 0, -0.000976562, -0.015625, 0.306641, -9.71973, 1.18.2022 18:55:45.857
321, 1.82276, 0.160902, 206.349, 0, 0, -0.00195312, 0.00488281, 0.310547, -9.76758, 1.18.2022 18:55:45.865
322, 1.82276, 0.160902, 206.349, 0, 0, -0.000976562, -0.0419922, 0.306641, -9.71289, 1.18.2022 18:55:45.873
323, 1.82276, 0.160902, 206.349, 0, 0, -0.000976562, 0.0390625, 0.290039, -9.72168, 1.18.2022 18:55:45.881
324, 1.82276, 0.160902, 206.349, 0, 0, -0.00195312, -0.0585938, 0.313477, -9.7168, 1.18.2022 18:55:45.889
325, 1.82276, 0.160902, 206.349, 0, -0.000976562, -0.000976562, -0.0332031, 0.327148, -9.76367, 1.18.2022 18:55:45.897
326, 1.82276, 0.160902, 206.349, -0.000976562, -0.000976562, -0.000976562, 0.0166016, 0.314453, -9.74902, 1.18.2022 18:55:45.905
327, 1.82276, 0.160902, 206.349, 0, -0.000976562, 0, -0.0888672, 0.327148, -9.77246, 1.18.2022 18:55:45.913
328, 1.82276, 0.160902, 206.349, 0, 0, 0, 0.0078125, 0.304688, -9.74414, 1.18.2022 18:55:45.921
329, 1.82276, 0.160902, 206.349, -0.000976562, -0.000976562, 0, -0.0263672, 0.294922, -9.73926, 1.18.2022 18:55:45.929
330, 1.82276, 0.160902, 206.349, 0, 0, 0, -0.0400391, 0.330078, -9.71387, 1.18.2022 18:55:45.937
331, 1.82276, 0.160902, 206.349, -0.000976562, -0.000976562, -0.00195312, 0.0410156, 0.307617, -9.74023, 1.18.2022 18:55:45.945
332, 1.82276, 0.160902, 206.349, -0.000976562, -0.000976562, -0.00195312, -0.0546875, 0.305664, -9.7666, 1.18.2022 18:55:45.953
333, 1.82116, 0.167711, 206.349, 0.000976562, -0.000976562, -0.000976562, -0.0439453, 0.317383, -9.68164, 1.18.2022 18:55:45.961
334, 1.82116, 0.167711, 206.349, 0.000976562, 0, 0, 0.00976562, 0.287109, -9.7207, 1.18.2022 18:55:45.969
335, 1.82116, 0.167711, 206.349, -0.000976562, -0.000976562, 0, -0.0566406, 0.30957, -9.72656, 1.18.2022 18:55:45.977
336, 1.82116, 0.167711, 206.349, 0, 0, 0, 0.00292969, 0.307617, -9.74414, 1.18.2022 18:55:45.985
337, 1.82116, 0.167711, 206.349, -0.00195312, 0, 0, 0.00195312, 0.332031, -9.76953, 1.18.2022 18:55:45.993
338, 1.82116, 0.167711, 206.349, -0.000976562, -0.000976562, -0.00195312, -0.0712891, 0.314453, -9.72656, 1.18.2022 18:55:46.001
339, 1.82116, 0.167711, 206.349, -0.000976562, -0.000976562, -0.00195312, 0.0166016, 0.289062, -9.75879, 1.18.2022 18:55:46.009
340, 1.82108, 0.167822, 206.356, -0.000976562, -0.000976562, 0, -0.0253906, 0.304688, -9.72949, 1.18.2022 18:55:46.017
341, 1.82108, 0.167822, 206.356, 0.000976562, 0, 0, -0.0244141, 0.341797, -9.76855, 1.18.2022 18:55:46.025
342, 1.82108, 0.167822, 206.356, 0.00195312, 0, -0.00195312, 0.0292969, 0.288086, -9.72559, 1.18.2022 18:55:46.033
343, 1.81427, 0.166227, 206.356, -0.000976562, 0, -0.00195312, -0.0761719, 0.319336, -9.73047, 1.18.2022 18:55:46.041
344, 1.81427, 0.166227, 206.356, 0, 0, 0, -0.0253906, 0.319336, -9.72656, 1.18.2022 18:55:46.049
345, 1.81427, 0.166227, 206.356, 0, 0, 0.000976562, -0.00976562, 0.297852, -9.74902, 1.18.2022 18:55:46.057
346, 1.81427, 0.166227, 206.356, -0.000976562, 0, 0, -0.0722656, 0.326172, -9.65234, 1.18.2022 18:55:46.065
347, 1.81427, 0.166227, 206.356, 0, 0, 0, 0.0351562, 0.302734, -9.76367, 1.18.2022 18:55:46.073
348, 1.81427, 0.166227, 206.356, 0, 0, 0, -0.0136719, 0.321289, -9.72461, 1.18.2022 18:55:46.081
349, 1.81427, 0.166227, 206.356, -0.000976562, -0.000976562, 0, -0.0449219, 0.329102, -9.7334, 1.18.2022 18:55:46.089
350, 1.81427, 0.166227, 206.356, 0, 0, 0.000976562, 0.0117188, 0.297852, -9.75586, 1.18.2022 18:55:46.097
351, 1.81427, 0.166227, 206.356, 0, 0, 0, -0.0732422, 0.334961, -9.71387, 1.18.2022 18:55:46.105
352, 1.81419, 0.166338, 206.364, -0.00195312, 0, 0, -0.046875, 0.337891, -9.7207, 1.18.2022 18:55:46.113
353, 1.81578, 0.159528, 206.364, -0.000976562, -0.000976562, 0, -0.0117188, 0.287109, -9.7207, 1.18.2022 18:55:46.121
354, 1.81419, 0.166338, 206.364, 0, 0, 0, -0.0761719, 0.302734, -9.73145, 1.18.2022 18:55:46.129
355, 1.81578, 0.159528, 206.364, 0, 0, 0, -0.0166016, 0.314453, -9.72461, 1.18.2022 18:55:46.137
356, 1.81578, 0.159528, 206.364, 0, 0, 0, -0.0449219, 0.266602, -9.73535, 1.18.2022 18:55:46.145
357, 1.81578, 0.159528, 206.364, 0.000976562, -0.000976562, -0.000976562, -0.0693359, 0.31543, -9.76172, 1.18.2022 18:55:46.153
358, 1.81419, 0.166338, 206.364, 0.000976562, -0.000976562, -0.000976562, 0.03125, 0.28125, -9.74512, 1.18.2022 18:55:46.161
359, 1.81419, 0.166338, 206.364, 0, 0, 0, -0.0546875, 0.301758, -9.71973, 1.18.2022 18:55:46.169
360, 1.81419, 0.166338, 206.364, -0.000976562, 0, 0, -0.03125, 0.317383, -9.76172, 1.18.2022 18:55:46.177
361, 1.81578, 0.159528, 206.364, -0.000976562, 0.000976562, 0, 0.0146484, 0.279297, -9.75879, 1.18.2022 18:55:46.185
362, 1.81578, 0.159528, 206.364, -0.000976562, -0.000976562, -0.000976562, -0.0810547, 0.335938, -9.73242, 1.18.2022 18:55:46.193
363, 1.81578, 0.159528, 206.364, -0.000976562, -0.000976562, -0.000976562, -0.0185547, 0.288086, -9.72559, 1.18.2022 18:55:46.201
364, 1.81578, 0.159528, 206.364, -0.00195312, -0.000976562, 0.000976562, -0.015625, 0.308594, -9.71484, 1.18.2022 18:55:46.209
365, 1.81419, 0.166338, 206.364, -0.000976562, -0.000976562, 0, -0.0419922, 0.316406, -9.71973, 1.18.2022 18:55:46.217
366, 1.81419, 0.166338, 206.364, -0.000976562, 0, 0.000976562, 0.0126953, 0.310547, -9.68945, 1.18.2022 18:55:46.225
367, 1.81419, 0.166338, 206.364, -0.000976562, -0.000976562, -0.000976562, -0.0634766, 0.330078, -9.69531, 1.18.2022 18:55:46.233
368, 1.81419, 0.166338, 206.364, -0.000976562, -0.000976562, -0.000976562, -0.0380859, 0.333008, -9.73047, 1.18.2022 18:55:46.241
369, 1.81419, 0.166338, 206.364, -0.000976562, -0.000976562, 0, 0.0244141, 0.317383, -9.74902, 1.18.2022 18:55:46.249
370, 1.81419, 0.166338, 206.364, -0.000976562, 0, 0, -0.0830078, 0.31543, -9.75684, 1.18.2022 18:55:46.257
371, 1.81419, 0.166338, 206.364, -0.000976562, -0.000976562, 0, -0.00683594, 0.308594, -9.71094, 1.18.2022 18:55:46.265
372, 1.82099, 0.167932, 206.364, -0.000976562, -0.000976562, -0.000976562, 0.0078125, 0.299805, -9.72754, 1.18.2022 18:55:46.273
373, 1.82099, 0.167932, 206.364, -0.000976562, -0.000976562, 0, -0.0849609, 0.326172, -9.7207, 1.18.2022 18:55:46.281
374, 1.82099, 0.167932, 206.364, -0.000976562, -0.000976562, 0, 0.0214844, 0.290039, -9.74023, 1.18.2022 18:55:46.289
375, 1.82099, 0.167932, 206.364, -0.000976562, -0.000976562, 0, -0.0429688, 0.304688, -9.73633, 1.18.2022 18:55:46.297
376, 1.82099, 0.167932, 206.364, -0.000976562, -0.000976562, 0.000976562, -0.0351562, 0.320312, -9.70996, 1.18.2022 18:55:46.305
377, 1.82099, 0.167932, 206.364, -0.000976562, -0.000976562, 0, 0.0175781, 0.296875, -9.72754, 1.18.2022 18:55:46.313
378, 1.82099, 0.167932, 206.364, -0.000976562, -0.000976562, 0, -0.0712891, 0.337891, -9.72754, 1.18.2022 18:55:46.321
379, 1.82099, 0.167932, 206.364, -0.000976562, -0.000976562, 0, -0.0546875, 0.307617, -9.75684, 1.18.2022 18:55:46.329
380, 1.82099, 0.167932, 206.364, -0.000976562, 0, 0.000976562, -0.0117188, 0.324219, -9.73145, 1.18.2022 18:55:46.337
381, 1.82099, 0.167932, 206.364, -0.000976562, -0.000976562, 0, -0.078125, 0.319336, -9.7334, 1.18.2022 18:55:46.345
382, 1.82099, 0.167932, 206.364, 0, -0.000976562, -0.000976562, 0.00976562, 0.288086, -9.73242, 1.18.2022 18:55:46.353
383, 1.82099, 0.167932, 206.364, -0.000976562, -0.000976562, -0.000976562, -0.0253906, 0.282227, -9.70605, 1.18.2022 18:55:46.361
384, 1.82099, 0.167932, 206.364, -0.000976562, 0, 0, -0.0439453, 0.328125, -9.70703, 1.18.2022 18:55:46.369
385, 1.82099, 0.167932, 206.364, -0.000976562, -0.000976562, 0, 0.0117188, 0.305664, -9.75391, 1.18.2022 18:55:46.377
386, 1.82099, 0.167932, 206.364, -0.00195312, 0, 0, -0.0585938, 0.304688, -9.72168, 1.18.2022 18:55:46.385
387, 1.82099, 0.167932, 206.364, -0.000976562, -0.000976562, 0.000976562, -0.0166016, 0.314453, -9.74609, 1.18.2022 18:55:46.393
388, 1.82108, 0.167822, 206.356, -0.000976562, 0, 0, 0, 0.269531, -9.75488, 1.18.2022 18:55:46.401
389, 1.82108, 0.167822, 206.356, -0.000976562, 0, 0, -0.0888672, 0.325195, -9.78418, 1.18.2022 18:55:46.409
390, 1.82108, 0.167822, 206.356, -0.000976562, -0.000976562, 0, 0.00976562, 0.318359, -9.71973, 1.18.2022 18:55:46.417
391, 1.82108, 0.167822, 206.356, 0.000976562, 0, 0, -0.0273438, 0.293945, -9.68945, 1.18.2022 18:55:46.425
392, 1.82108, 0.167822, 206.356, -0.000976562, 0.000976562, -0.000976562, -0.0615234, 0.306641, -9.72363, 1.18.2022 18:55:46.433
393, 1.82108, 0.167822, 206.356, 0, -0.000976562, 0, 0.0195312, 0.304688, -9.7373, 1.18.2022 18:55:46.441
394, 1.82108, 0.167822, 206.356, -0.000976562, 0, -0.00195312, -0.0292969, 0.287109, -9.78223, 1.18.2022 18:55:46.449
395, 1.82099, 0.167932, 206.364, 0, 0, 0, -0.0146484, 0.303711, -9.78613, 1.18.2022 18:55:46.457
396, 1.82099, 0.167932, 206.364, 0.000976562, 0, 0, 0.00488281, 0.307617, -9.74121, 1.18.2022 18:55:46.463
397, 1.82099, 0.167932, 206.364, -0.00195312, -0.000976562, 0, -0.0761719, 0.299805, -9.73633, 1.18.2022 18:55:46.471
398, 1.82099, 0.167932, 206.364, 0, 0, 0, 0, 0.310547, -9.76465, 1.18.2022 18:55:46.479
399, 1.82099, 0.167932, 206.364, -0.000976562, -0.000976562, -0.00195312, -0.0078125, 0.317383, -9.76758, 1.18.2022 18:55:46.487
400, 1.82099, 0.167932, 206.364, 0, 0, 0, -0.0615234, 0.328125, -9.73047, 1.18.2022 18:55:46.495
401, 1.82099, 0.167932, 206.364, 0, 0, 0, -0.015625, 0.296875, -9.69922, 1.18.2022 18:55:46.503
402, 1.82099, 0.167932, 206.364, 0.000976562, -0.000976562, 0.000976562, -0.0273438, 0.325195, -9.70996, 1.18.2022 18:55:46.511
403, 1.82099, 0.167932, 206.364, 0, 0, 0.000976562, -0.0380859, 0.302734, -9.75977, 1.18.2022 18:55:46.519
404, 1.82099, 0.167932, 206.364, -0.00195312, -0.000976562, 0, 0.0126953, 0.289062, -9.70898, 1.18.2022 18:55:46.527
405, 1.82099, 0.167932, 206.364, -0.000976562, -0.000976562, -0.00195312, -0.0849609, 0.329102, -9.73242, 1.18.2022 18:55:46.535
406, 1.82099, 0.167932, 206.364, -0.000976562, 0, -0.00195312, -0.0117188, 0.314453, -9.72754, 1.18.2022 18:55:46.543
407, 1.82099, 0.167932, 206.364, 0, -0.000976562, 0, -0.00683594, 0.305664, -9.75293, 1.18.2022 18:55:46.551
408, 1.82099, 0.167932, 206.364, 0, 0, 0, -0.0664062, 0.328125, -9.72852, 1.18.2022 18:55:46.559
409, 1.82099, 0.167932, 206.364, 0, 0, 0.000976562, 0.0341797, 0.304688, -9.73535, 1.18.2022 18:55:46.567
410, 1.82099, 0.167932, 206.364, 0, -0.000976562, 0, -0.0185547, 0.294922, -9.71582, 1.18.2022 18:55:46.575
411, 1.82099, 0.167932, 206.364, 0, 0, 0, -0.0566406, 0.339844, -9.7207, 1.18.2022 18:55:46.583
412, 1.82258, 0.161123, 206.364, -0.00195312, 0, 0, 0.0214844, 0.311523, -9.73047, 1.18.2022 18:55:46.591
413, 1.82291, 0.161139, 206.362, -0.00195312, 0, 0, -0.0839844, 0.305664, -9.76855, 1.18.2022 18:55:46.599
414, 1.82291, 0.161139, 206.362, 0, 0, 0, -0.0351562, 0.316406, -9.72656, 1.18.2022 18:55:46.607
415, 1.82291, 0.161139, 206.362, -0.00195312, 0, 0, -0.0117188, 0.337891, -9.72656, 1.18.2022 18:55:46.615
416, 1.82282, 0.161249, 206.37, 0, -0.000976562, 0, -0.0712891, 0.319336, -9.72852, 1.18.2022 18:55:46.623
417, 1.82282, 0.161249, 206.37, -0.000976562, -0.000976562, 0, 0.015625, 0.274414, -9.68848, 1.18.2022 18:55:46.631
418, 1.82282, 0.161249, 206.37, 0, 0.000976562, 0.000976562, -0.0400391, 0.319336, -9.74023, 1.18.2022 18:55:46.639
419, 1.82282, 0.161249, 206.37, 0, 0.000976562, 0, -0.0380859, 0.326172, -9.74512, 1.18.2022 18:55:46.647
420, 1.82282, 0.161249, 206.37, -0.00195312, 0, 0, 0.0371094, 0.306641, -9.79883, 1.18.2022 18:55:46.655
421, 1.82282, 0.161249, 206.37, -0.00195312, 0, 0, -0.0859375, 0.332031, -9.75391, 1.18.2022 18:55:46.663
422, 1.82282, 0.161249, 206.37, 0.000976562, 0, 0, -0.0283203, 0.294922, -9.71094, 1.18.2022 18:55:46.671
423, 1.82282, 0.161249, 206.37, 0, 0, 0.000976562, 0.0166016, 0.295898, -9.75879, 1.18.2022 18:55:46.679
424, 1.82282, 0.161249, 206.37, 0.000976562, 0, -0.00195312, -0.0878906, 0.317383, -9.74707, 1.18.2022 18:55:46.687
425, 1.82282, 0.161249, 206.37, 0, 0, -0.00195312, 0, 0.268555, -9.74219, 1.18.2022 18:55:46.695
426, 1.82282, 0.161249, 206.37, 0, -0.000976562, -0.000976562, -0.0449219, 0.305664, -9.75293, 1.18.2022 18:55:46.703
427, 1.82274, 0.16136, 206.378, 0, -0.000976562, -0.00195312, -0.0703125, 0.339844, -9.79883, 1.18.2022 18:55:46.711
428, 1.82274, 0.16136, 206.378, 0.000976562, 0, -0.000976562, 0.0126953, 0.301758, -9.72266, 1.18.2022 18:55:46.719
429, 1.82274, 0.16136, 206.378, 0.000976562, -0.000976562, 0.000976562, -0.0791016, 0.327148, -9.76562, 1.18.2022 18:55:46.727
430, 1.82274, 0.16136, 206.378, 0, 0, 0, -0.00195312, 0.307617, -9.74414, 1.18.2022 18:55:46.735
431, 1.82274, 0.16136, 206.378, 0.000976562, 0, 0.000976562, 0.0117188, 0.279297, -9.76172, 1.18.2022 18:55:46.743
432, 1.81593, 0.159764, 206.378, 0, 0, 0, -0.0722656, 0.322266, -9.77344, 1.18.2022 18:55:46.751
433, 1.81593, 0.159764, 206.378, 0.000976562, -0.000976562, -0.000976562, 0.00488281, 0.306641, -9.73242, 1.18.2022 18:55:46.759
434, 1.81593, 0.159764, 206.378, -0.000976562, -0.000976562, -0.000976562, -0.0205078, 0.301758, -9.72754, 1.18.2022 18:55:46.767
435, 1.82274, 0.16136, 206.378, -0.000976562, -0.000976562, -0.000976562, -0.0771484, 0.310547, -9.67871, 1.18.2022 18:55:46.775
436, 1.82274, 0.16136, 206.378, 0, -0.00195312, -0.000976562, 0.00292969, 0.297852, -9.75098, 1.18.2022 18:55:46.783
437, 1.82274, 0.16136, 206.378, 0, 0, 0, -0.0214844, 0.307617, -9.76758, 1.18.2022 18:55:46.791
438, 1.82274, 0.16136, 206.378, 0.000976562, 0, -0.000976562, -0.0166016, 0.307617, -9.74805, 1.18.2022 18:55:46.799
439, 1.81593, 0.159764, 206.378, 0.000976562, 0, -0.000976562, 0.0146484, 0.283203, -9.74512, 1.18.2022 18:55:46.807
440, 1.81593, 0.159764, 206.378, 0, -0.000976562, -0.000976562, -0.0595703, 0.350586, -9.74414, 1.18.2022 18:55:46.815
441, 1.81593, 0.159764, 206.378, 0, -0.000976562, -0.000976562, 0.00292969, 0.314453, -9.73926, 1.18.2022 18:55:46.823
442, 1.81593, 0.159764, 206.378, -0.000976562, -0.000976562, -0.000976562, -0.0107422, 0.290039, -9.79883, 1.18.2022 18:55:46.831
443, 1.82274, 0.16136, 206.378, -0.000976562, -0.000976562, -0.000976562, -0.00195312, 0.294922, -9.73438, 1.18.2022 18:55:46.839
444, 1.82114, 0.168169, 206.377, 0, -0.000976562, -0.000976562, 0.0400391, 0.300781, -9.76367, 1.18.2022 18:55:46.847
445, 1.82114, 0.168169, 206.377, 0, 0, 0, -0.0429688, 0.300781, -9.75781, 1.18.2022 18:55:46.855
446, 1.81434, 0.166573, 206.377, 0.000976562, 0, -0.000976562, -0.0322266, 0.325195, -9.71191, 1.18.2022 18:55:46.863
447, 1.81434, 0.166573, 206.377, 0.000976562, -0.000976562, -0.000976562, 0.0214844, 0.317383, -9.76758, 1.18.2022 18:55:46.871
448, 1.81434, 0.166573, 206.377, 0.000976562, -0.000976562, 0.000976562, -0.0546875, 0.331055, -9.72363, 1.18.2022 18:55:46.879
449, 1.81434, 0.166573, 206.377, 0, 0, 0, -0.0117188, 0.331055, -9.73633, 1.18.2022 18:55:46.887
450, 1.81434, 0.166573, 206.377, 0, -0.000976562, -0.000976562, -0.0185547, 0.328125, -9.72168, 1.18.2022 18:55:46.895
451, 1.81434, 0.166573, 206.377, 0, -0.000976562, -0.000976562, -0.0566406, 0.335938, -9.7373, 1.18.2022 18:55:46.903
452, 1.81434, 0.166573, 206.377, 0, 0, 0, 0.03125, 0.299805, -9.73535, 1.18.2022 18:55:46.911
453, 1.81434, 0.166573, 206.377, 0, 0, 0, -0.0195312, 0.301758, -9.78125, 1.18.2022 18:55:46.919
454, 1.81434, 0.166573, 206.377, 0, 0, 0, -0.0273438, 0.308594, -9.70117, 1.18.2022 18:55:46.927
455, 1.81434, 0.166573, 206.377, -0.000976562, 0, 0, 0.0332031, 0.279297, -9.76465, 1.18.2022 18:55:46.935
456, 1.81434, 0.166573, 206.377, -0.00195312, 0.000976562, -0.00195312, -0.0683594, 0.314453, -9.73535, 1.18.2022 18:55:46.943
457, 1.81593, 0.159764, 206.378, -0.000976562, -0.000976562, -0.000976562, -0.0302734, 0.344727, -9.72363, 1.18.2022 18:55:46.951
458, 1.81593, 0.159764, 206.378, -0.000976562, -0.000976562, -0.000976562, 0.0244141, 0.30957, -9.74414, 1.18.2022 18:55:46.959
459, 1.81593, 0.159764, 206.378, -0.000976562, 0, 0, -0.0410156, 0.334961, -9.77051, 1.18.2022 18:55:46.967
460, 1.81593, 0.159764, 206.378, -0.000976562, 0.000976562, 0, 0.0283203, 0.302734, -9.74902, 1.18.2022 18:55:46.975
461, 1.81593, 0.159764, 206.378, -0.00195312, -0.000976562, 0, -0.00976562, 0.305664, -9.76953, 1.18.2022 18:55:46.983
462, 1.81593, 0.159764, 206.378, -0.00195312, -0.000976562, -0.00195312, -0.0185547, 0.311523, -9.73145, 1.18.2022 18:55:46.991
463, 1.82274, 0.16136, 206.378, -0.000976562, 0, -0.00195312, 0.0214844, 0.301758, -9.73047, 1.18.2022 18:55:46.999
464, 1.82274, 0.16136, 206.378, -0.00195312, 0, 0, -0.0615234, 0.304688, -9.72656, 1.18.2022 18:55:47.007
465, 1.82274, 0.16136, 206.378, 0, -0.000976562, -0.000976562, -0.0322266, 0.322266, -9.69531, 1.18.2022 18:55:47.015
466, 1.82274, 0.16136, 206.378, -0.000976562, -0.000976562, 0.000976562, -0.0185547, 0.307617, -9.74805, 1.18.2022 18:55:47.023
467, 1.82274, 0.16136, 206.378, -0.00195312, -0.000976562, 0, -0.078125, 0.296875, -9.70996, 1.18.2022 18:55:47.031
468, 1.82282, 0.161249, 206.37, -0.000976562, -0.000976562, -0.000976562, 0.0078125, 0.288086, -9.7373, 1.18.2022 18:55:47.039
469, 1.82282, 0.161249, 206.37, -0.000976562, 0, 0, -0.0166016, 0.298828, -9.76758, 1.18.2022 18:55:47.047
470, 1.82282, 0.161249, 206.37, 0, -0.000976562, -0.000976562, -0.0683594, 0.331055, -9.73535, 1.18.2022 18:55:47.055
471, 1.82282, 0.161249, 206.37, 0, -0.000976562, -0.000976562, 0.00195312, 0.298828, -9.77539, 1.18.2022 18:55:47.063
472, 1.82282, 0.161249, 206.37, -0.000976562, 0, 0, -0.0595703, 0.311523, -9.72852, 1.18.2022 18:55:47.071
473, 1.82282, 0.161249, 206.37, -0.000976562, 0, 0, -0.0527344, 0.300781, -9.74609, 1.18.2022 18:55:47.079
474, 1.82282, 0.161249, 206.37, -0.000976562, -0.000976562, -0.000976562, 0.00976562, 0.27832, -9.72559, 1.18.2022 18:55:47.087
475, 1.82282, 0.161249, 206.37, -0.000976562, -0.000976562, -0.000976562, -0.078125, 0.31543, -9.7002, 1.18.2022 18:55:47.095
476, 1.82282, 0.161249, 206.37, -0.000976562, 0, 0, -0.0136719, 0.311523, -9.71484, 1.18.2022 18:55:47.103
477, 1.82282, 0.161249, 206.37, -0.000976562, 0, 0, -0.0253906, 0.299805, -9.72949, 1.18.2022 18:55:47.111
478, 1.82282, 0.161249, 206.37, -0.000976562, 0, 0, -0.0800781, 0.347656, -9.71582, 1.18.2022 18:55:47.119
479, 1.82282, 0.161249, 206.37, -0.000976562, -0.000976562, -0.000976562, 0.0332031, 0.300781, -9.75195, 1.18.2022 18:55:47.127
480, 1.82282, 0.161249, 206.37, 0, -0.00195312, -0.00195312, -0.0322266, 0.328125, -9.71484, 1.18.2022 18:55:47.135
481, 1.82282, 0.161249, 206.37, 0, -0.00195312, -0.000976562, -0.0498047, 0.322266, -9.75488, 1.18.2022 18:55:47.143
482, 1.82282, 0.161249, 206.37, 0, 0, -0.00195312, 0.00976562, 0.299805, -9.73047, 1.18.2022 18:55:47.151
483, 1.82282, 0.161249, 206.37, 0, -0.000976562, -0.00195312, -0.0761719, 0.329102, -9.74219, 1.18.2022 18:55:47.159
484, 1.81602, 0.159654, 206.37, -0.000976562, 0, 0.000976562, -0.0166016, 0.326172, -9.74121, 1.18.2022 18:55:47.167
485, 1.81602, 0.159654, 206.37, -0.000976562, 0, 0.000976562, -0.03125, 0.28125, -9.74414, 1.18.2022 18:55:47.175
486, 1.81602, 0.159654, 206.37, -0.000976562, 0, -0.00195312, -0.0966797, 0.296875, -9.70996, 1.18.2022 18:55:47.183
487, 1.81602, 0.159654, 206.37, -0.000976562, 0, -0.000976562, 0.0166016, 0.291016, -9.76855, 1.18.2022 18:55:47.191
488, 1.81602, 0.159654, 206.37, -0.000976562, 0, 0, -0.0410156, 0.322266, -9.77148, 1.18.2022 18:55:47.199
489, 1.81602, 0.159654, 206.37, -0.000976562, 0, 0, -0.0351562, 0.344727, -9.72363, 1.18.2022 18:55:47.207
490, 1.81602, 0.159654, 206.37, -0.000976562, 0, 0.000976562, 0.0166016, 0.304688, -9.73926, 1.18.2022 18:55:47.215
491, 1.81602, 0.159654, 206.37, -0.000976562, 0, 0, -0.0712891, 0.320312, -9.76367, 1.18.2022 18:55:47.223
492, 1.81602, 0.159654, 206.37, -0.000976562, 0, 0, -0.0117188, 0.325195, -9.76465, 1.18.2022 18:55:47.231
493, 1.8161, 0.159544, 206.362, -0.000976562, 0, 0, -0.00683594, 0.304688, -9.73242, 1.18.2022 18:55:47.239
494, 1.81578, 0.159528, 206.364, -0.000976562, 0, 0, -0.0898438, 0.330078, -9.70605, 1.18.2022 18:55:47.247
495, 1.81578, 0.159528, 206.364, -0.000976562, -0.000976562, 0, 0.0273438, 0.303711, -9.69238, 1.18.2022 18:55:47.255
496, 1.81578, 0.159528, 206.364, -0.000976562, -0.000976562, 0.000976562, -0.00488281, 0.332031, -9.75977, 1.18.2022 18:55:47.263
497, 1.82258, 0.161123, 206.364, -0.000976562, -0.000976562, 0.000976562, -0.0683594, 0.321289, -9.70898, 1.18.2022 18:55:47.271
498, 1.82258, 0.161123, 206.364, -0.00195312, 0, 0, 0.0166016, 0.288086, -9.74219, 1.18.2022 18:55:47.279
499, 1.82258, 0.161123, 206.364, -0.000976562, -0.000976562, 0, -0.0878906, 0.319336, -9.72559, 1.18.2022 18:55:47.287
500, 1.82258, 0.161123, 206.364, -0.000976562, 0, -0.000976562, -0.0449219, 0.314453, -9.74805, 1.18.2022 18:55:47.295
501, 1.82258, 0.161123, 206.364, -0.000976562, -0.000976562, 0, 0.00976562, 0.299805, -9.74707, 1.18.2022 18:55:47.303
502, 1.82258, 0.161123, 206.364, -0.000976562, -0.000976562, 0, -0.0761719, 0.319336, -9.7373, 1.18.2022 18:55:47.311
503, 1.82258, 0.161123, 206.364, -0.000976562, 0, 0.000976562, -0.0136719, 0.324219, -9.7334, 1.18.2022 18:55:47.319
504, 1.82258, 0.161123, 206.364, -0.000976562, 0, 0, -0.0332031, 0.307617, -9.74316, 1.18.2022 18:55:47.327
505, 1.82291, 0.161139, 206.362, -0.000976562, 0, -0.000976562, -0.0351562, 0.326172, -9.72168, 1.18.2022 18:55:47.335
506, 1.82282, 0.161249, 206.37, -0.000976562, -0.000976562, 0, 0.0410156, 0.299805, -9.73047, 1.18.2022 18:55:47.343
507, 1.82282, 0.161249, 206.37, -0.00195312, -0.000976562, 0, -0.0478516, 0.286133, -9.75098, 1.18.2022 18:55:47.351
508, 1.82282, 0.161249, 206.37, -0.000976562, 0, -0.000976562, -0.0302734, 0.321289, -9.73828, 1.18.2022 18:55:47.359
509, 1.82282, 0.161249, 206.37, -0.000976562, 0, 0, 0, 0.288086, -9.73047, 1.18.2022 18:55:47.367
510, 1.82282, 0.161249, 206.37, -0.000976562, 0, 0.000976562, -0.0830078, 0.316406, -9.7207, 1.18.2022 18:55:47.375
511, 1.82282, 0.161249, 206.37, -0.000976562, 0, -0.000976562, -0.00292969, 0.298828, -9.76562, 1.18.2022 18:55:47.383
512, 1.82282, 0.161249, 206.37, -0.000976562, 0, 0, -0.00195312, 0.294922, -9.7373, 1.18.2022 18:55:47.391
513, 1.82282, 0.161249, 206.37, 0.000976562, 0, 0, -0.0712891, 0.336914, -9.75586, 1.18.2022 18:55:47.399
514, 1.82282, 0.161249, 206.37, -0.000976562, -0.000976562, -0.000976562, 0.0390625, 0.338867, -9.68457, 1.18.2022 18:55:47.407
515, 1.82282, 0.161249, 206.37, -0.000976562, -0.000976562, 0, -0.0634766, 0.30957, -9.73145, 1.18.2022 18:55:47.415
516, 1.82282, 0.161249, 206.37, -0.00195312, -0.000976562, 0, -0.0517578, 0.304688, -9.74316, 1.18.2022 18:55:47.423
517, 1.82282, 0.161249, 206.37, -0.00195312, -0.000976562, 0, 0.0078125, 0.294922, -9.7207, 1.18.2022 18:55:47.429
518, 1.82282, 0.161249, 206.37, -0.00195312, 0, 0, -0.0927734, 0.324219, -9.73242, 1.18.2022 18:55:47.437
519, 1.82282, 0.161249, 206.37, 0.000976562, 0, -0.000976562, -0.00488281, 0.292969, -9.74707, 1.18.2022 18:55:47.447
520, 1.82282, 0.161249, 206.37, 0, 0, -0.00195312, -0.0234375, 0.3125, -9.75781, 1.18.2022 18:55:47.453
521, 1.82282, 0.161249, 206.37, 0.000976562, 0, -0.00195312, -0.0849609, 0.342773, -9.71094, 1.18.2022 18:55:47.461
522, 1.82282, 0.161249, 206.37, 0, 0, 0, 0.0234375, 0.311523, -9.79395, 1.18.2022 18:55:47.469
523, 1.82274, 0.16136, 206.378, 0.000976562, 0, -0.000976562, -0.0498047, 0.317383, -9.74805, 1.18.2022 18:55:47.477
524, 1.82274, 0.16136, 206.378, -0.000976562, 0, 0, -0.0429688, 0.3125, -9.74316, 1.18.2022 18:55:47.485
525, 1.82433, 0.154551, 206.378, 0, 0, 0, 0.0292969, 0.288086, -9.74219, 1.18.2022 18:55:47.493
526, 1.82433, 0.154551, 206.378, 0, 0, 0, -0.0771484, 0.307617, -9.68164, 1.18.2022 18:55:47.501
527, 1.82433, 0.154551, 206.378, 0.000976562, -0.000976562, -0.000976562, -0.00683594, 0.307617, -9.73633, 1.18.2022 18:55:47.509
528, 1.82274, 0.16136, 206.378, 0.000976562, -0.000976562, -0.000976562, -0.0136719, 0.292969, -9.74414, 1.18.2022 18:55:47.517
529, 1.82274, 0.16136, 206.378, 0, -0.000976562, -0.00195312, -0.0957031, 0.305664, -9.75879, 1.18.2022 18:55:47.525
530, 1.82274, 0.16136, 206.378, 0.000976562, 0, -0.000976562, 0.00488281, 0.277344, -9.76855, 1.18.2022 18:55:47.533
531, 1.82274, 0.16136, 206.378, 0.000976562, 0, -0.000976562, -0.0361328, 0.295898, -9.75586, 1.18.2022 18:55:47.541
532, 1.82274, 0.16136, 206.378, 0, -0.000976562, -0.000976562, -0.0595703, 0.310547, -9.75488, 1.18.2022 18:55:47.549
533, 1.82274, 0.16136, 206.378, 0, -0.000976562, -0.000976562, 0.0322266, 0.301758, -9.7041, 1.18.2022 18:55:47.557
534, 1.82274, 0.16136, 206.378, 0, -0.000976562, -0.00195312, -0.078125, 0.30957, -9.73047, 1.18.2022 18:55:47.565
535, 1.82274, 0.16136, 206.378, 0, 0, -0.00195312, -0.0351562, 0.323242, -9.72852, 1.18.2022 18:55:47.573
536, 1.82274, 0.16136, 206.378, 0, 0, 0, -0.0166016, 0.307617, -9.75977, 1.18.2022 18:55:47.581
537, 1.82274, 0.16136, 206.378, -0.000976562, -0.000976562, -0.000976562, -0.102539, 0.306641, -9.72852, 1.18.2022 18:55:47.589
538, 1.82274, 0.16136, 206.378, 0, 0, 0, 0.00195312, 0.292969, -9.75879, 1.18.2022 18:55:47.597
539, 1.82274, 0.16136, 206.378, 0, 0, 0, -0.0136719, 0.290039, -9.73438, 1.18.2022 18:55:47.605
540, 1.82274, 0.16136, 206.378, 0, -0.00195312, -0.00195312, -0.0615234, 0.342773, -9.70898, 1.18.2022 18:55:47.613
541, 1.82274, 0.16136, 206.378, 0.000976562, -0.000976562, -0.000976562, 0.0224609, 0.298828, -9.71191, 1.18.2022 18:55:47.621
542, 1.82274, 0.16136, 206.378, 0, -0.000976562, -0.000976562, -0.0761719, 0.31543, -9.75391, 1.18.2022 18:55:47.629
543, 1.82274, 0.16136, 206.378, 0, 0, 0, -0.0234375, 0.339844, -9.7168, 1.18.2022 18:55:47.637
544, 1.81593, 0.159764, 206.378, 0.000976562, 0, -0.000976562, 0.00195312, 0.310547, -9.7627, 1.18.2022 18:55:47.645
545, 1.81593, 0.159764, 206.378, 0, 0, 0, -0.078125, 0.326172, -9.71875, 1.18.2022 18:55:47.653
546, 1.81593, 0.159764, 206.378, 0, 0, 0, 0.00488281, 0.294922, -9.7207, 1.18.2022 18:55:47.661
547, 1.81593, 0.159764, 206.378, 0, 0, -0.00195312, -0.0195312, 0.303711, -9.78613, 1.18.2022 18:55:47.669
548, 1.81585, 0.159874, 206.385, 0, -0.000976562, -0.00195312, -0.0351562, 0.342773, -9.7334, 1.18.2022 18:55:47.677
549, 1.81585, 0.159874, 206.385, 0, -0.000976562, -0.000976562, 0.0361328, 0.311523, -9.7207, 1.18.2022 18:55:47.685
550, 1.81585, 0.159874, 206.385, 0, -0.000976562, 0.000976562, -0.0517578, 0.302734, -9.7334, 1.18.2022 18:55:47.693
551, 1.81585, 0.159874, 206.385, -0.000976562, 0, 0, -0.0566406, 0.311523, -9.70801, 1.18.2022 18:55:47.701
552, 1.81585, 0.159874, 206.385, -0.000976562, 0, 0, -0.00195312, 0.264648, -9.74316, 1.18.2022 18:55:47.709
553, 1.81585, 0.159874, 206.385, -0.000976562, -0.000976562, 0, -0.0664062, 0.319336, -9.74219, 1.18.2022 18:55:47.717
554, 1.81585, 0.159874, 206.385, 0, 0.000976562, 0, -0.0136719, 0.285156, -9.72754, 1.18.2022 18:55:47.725
555, 1.81585, 0.159874, 206.385, -0.000976562, -0.000976562, -0.000976562, -0.0332031, 0.30957, -9.74609, 1.18.2022 18:55:47.733
556, 1.81585, 0.159874, 206.385, -0.000976562, 0, 0, -0.0712891, 0.311523, -9.71484, 1.18.2022 18:55:47.741
557, 1.81585, 0.159874, 206.385, -0.00195312, 0, 0, 0.0185547, 0.286133, -9.76172, 1.18.2022 18:55:47.749
558, 1.81585, 0.159874, 206.385, -0.000976562, 0, -0.000976562, -0.0371094, 0.294922, -9.71777, 1.18.2022 18:55:47.757
559, 1.81585, 0.159874, 206.385, 0, 0, 0, -0.0283203, 0.314453, -9.73828, 1.18.2022 18:55:47.765
560, 1.81585, 0.159874, 206.385, 0, -0.000976562, 0, 0.0332031, 0.307617, -9.74023, 1.18.2022 18:55:47.773
561, 1.81585, 0.159874, 206.385, 0, 0, 0, -0.0712891, 0.311523, -9.73047, 1.18.2022 18:55:47.781
562, 1.81585, 0.159874, 206.385, -0.000976562, 0, 0, -0.0185547, 0.302734, -9.73633, 1.18.2022 18:55:47.789
563, 1.81585, 0.159874, 206.385, -0.000976562, 0, 0.000976562, -0.0136719, 0.304688, -9.74414, 1.18.2022 18:55:47.797
564, 1.81585, 0.159874, 206.385, -0.000976562, 0, 0, -0.0791016, 0.330078, -9.78027, 1.18.2022 18:55:47.805
565, 1.81585, 0.159874, 206.385, -0.000976562, 0, 0, -0.0166016, 0.301758, -9.73242, 1.18.2022 18:55:47.813
566, 1.81585, 0.159874, 206.385, -0.000976562, -0.000976562, -0.000976562, -0.0214844, 0.285156, -9.73242, 1.18.2022 18:55:47.821
567, 1.81585, 0.159874, 206.385, -0.000976562, 0, -0.000976562, -0.0615234, 0.302734, -9.74512, 1.18.2022 18:55:47.829
568, 1.81585, 0.159874, 206.385, -0.000976562, 0, 0, 0.00683594, 0.300781, -9.75879, 1.18.2022 18:55:47.837
569, 1.81585, 0.159874, 206.385, -0.000976562, 0, 0, -0.0742188, 0.317383, -9.74707, 1.18.2022 18:55:47.845
570, 1.81585, 0.159874, 206.385, -0.00195312, -0.000976562, 0.000976562, -0.0146484, 0.305664, -9.76758, 1.18.2022 18:55:47.853
571, 1.81585, 0.159874, 206.385, -0.000976562, -0.000976562, 0, 0.00878906, 0.274414, -9.77344, 1.18.2022 18:55:47.861
572, 1.81585, 0.159874, 206.385, -0.000976562, -0.000976562, 0, -0.0644531, 0.314453, -9.7334, 1.18.2022 18:55:47.869
573, 1.81585, 0.159874, 206.385, -0.000976562, 0, 0, 0.0400391, 0.289062, -9.76855, 1.18.2022 18:55:47.877
574, 1.81585, 0.159874, 206.385, -0.000976562, 0, 0, -0.00683594, 0.297852, -9.75586, 1.18.2022 18:55:47.885
575, 1.82265, 0.161471, 206.385, -0.00195312, -0.000976562, 0.000976562, -0.0595703, 0.298828, -9.75977, 1.18.2022 18:55:47.893
576, 1.82265, 0.161471, 206.385, -0.000976562, 0, -0.000976562, 0.00292969, 0.286133, -9.74414, 1.18.2022 18:55:47.901
577, 1.82265, 0.161471, 206.385, -0.00195312, 0, -0.000976562, -0.0527344, 0.314453, -9.74805, 1.18.2022 18:55:47.909
578, 1.82265, 0.161471, 206.385, -0.00195312, -0.00195312, 0, -0.0185547, 0.347656, -9.72363, 1.18.2022 18:55:47.917
579, 1.82265, 0.161471, 206.385, 0, -0.000976562, 0, 0.0117188, 0.294922, -9.74023, 1.18.2022 18:55:47.925
580, 1.82265, 0.161471, 206.385, -0.000976562, 0, 0, -0.0615234, 0.326172, -9.74023, 1.18.2022 18:55:47.933
581, 1.82265, 0.161471, 206.385, 0, -0.000976562, 0.000976562, 0, 0.292969, -9.73926, 1.18.2022 18:55:47.941
582, 1.82265, 0.161471, 206.385, -0.000976562, -0.000976562, 0, 0.00195312, 0.274414, -9.76367, 1.18.2022 18:55:47.949
583, 1.82265, 0.161471, 206.385, -0.000976562, -0.000976562, 0, -0.0683594, 0.328125, -9.70215, 1.18.2022 18:55:47.957
584, 1.82265, 0.161471, 206.385, -0.000976562, 0, 0, 0.015625, 0.305664, -9.70215, 1.18.2022 18:55:47.965
585, 1.82265, 0.161471, 206.385, -0.000976562, 0, 0, -0.0488281, 0.298828, -9.70801, 1.18.2022 18:55:47.973
586, 1.82265, 0.161471, 206.385, -0.000976562, 0, 0, -0.0517578, 0.294922, -9.71777, 1.18.2022 18:55:47.981
587, 1.82265, 0.161471, 206.385, -0.000976562, -0.000976562, 0, 0.0234375, 0.289062, -9.76172, 1.18.2022 18:55:47.989
588, 1.82265, 0.161471, 206.385, -0.000976562, 0, 0, -0.0615234, 0.333984, -9.7373, 1.18.2022 18:55:47.997
589, 1.82265, 0.161471, 206.385, -0.000976562, -0.000976562, 0, 0.000976562, 0.304688, -9.72559, 1.18.2022 18:55:48.005
590, 1.82265, 0.161471, 206.385, -0.000976562, -0.000976562, 0, -0.00976562, 0.333984, -9.75293, 1.18.2022 18:55:48.013
591, 1.82265, 0.161471, 206.385, 0.000976562, 0, 0, -0.0498047, 0.333984, -9.74512, 1.18.2022 18:55:48.021
592, 1.81585, 0.159874, 206.385, -0.000976562, -0.000976562, 0, 0.0263672, 0.296875, -9.73047, 1.18.2022 18:55:48.029
593, 1.82265, 0.161471, 206.385, -0.00195312, 0, 0, -0.0380859, 0.328125, -9.72656, 1.18.2022 18:55:48.037
594, 1.82265, 0.161471, 206.385, -0.00195312, 0, 0, -0.0371094, 0.334961, -9.71875, 1.18.2022 18:55:48.045
595, 1.82265, 0.161471, 206.385, -0.000976562, -0.000976562, 0, 0.00976562, 0.260742, -9.71484, 1.18.2022 18:55:48.053
596, 1.82265, 0.161471, 206.385, -0.000976562, -0.000976562, 0, -0.0527344, 0.295898, -9.75098, 1.18.2022 18:55:48.061
597, 1.82265, 0.161471, 206.385, -0.000976562, -0.000976562, 0, -0.0322266, 0.320312, -9.70996, 1.18.2022 18:55:48.069
598, 1.82265, 0.161471, 206.385, -0.000976562, 0, 0, -0.0332031, 0.287109, -9.71777, 1.18.2022 18:55:48.077
599, 1.82256, 0.161581, 206.393, -0.000976562, -0.000976562, 0, -0.0810547, 0.333008, -9.73047, 1.18.2022 18:55:48.085
600, 1.82256, 0.161581, 206.393, -0.000976562, 0, 0, 0.0205078, 0.294922, -9.81055, 1.18.2022 18:55:48.093
601, 1.82256, 0.161581, 206.393, -0.000976562, 0, 0.000976562, -0.0107422, 0.306641, -9.71094, 1.18.2022 18:55:48.101
602, 1.82256, 0.161581, 206.393, -0.000976562, -0.000976562, 0, -0.0830078, 0.304688, -9.73828, 1.18.2022 18:55:48.109
603, 1.82256, 0.161581, 206.393, -0.000976562, 0, 0, 0.0175781, 0.299805, -9.72363, 1.18.2022 18:55:48.117
604, 1.82256, 0.161581, 206.393, -0.000976562, 0, 0, -0.0712891, 0.329102, -9.75879, 1.18.2022 18:55:48.125
605, 1.82256, 0.161581, 206.393, -0.000976562, -0.000976562, 0, -0.0205078, 0.328125, -9.72461, 1.18.2022 18:55:48.133
606, 1.82256, 0.161581, 206.393, -0.000976562, 0, 0, 0.00292969, 0.301758, -9.7207, 1.18.2022 18:55:48.141
607, 1.82256, 0.161581, 206.393, -0.000976562, 0.000976562, 0, -0.0654297, 0.325195, -9.69531, 1.18.2022 18:55:48.149
608, 1.82256, 0.161581, 206.393, -0.000976562, -0.000976562, 0, 0.0214844, 0.292969, -9.73242, 1.18.2022 18:55:48.157
609, 1.82256, 0.161581, 206.393, -0.000976562, -0.000976562, 0, -0.0371094, 0.311523, -9.7168, 1.18.2022 18:55:48.165
610, 1.82256, 0.161581, 206.393, -0.000976562, -0.000976562, 0, -0.046875, 0.314453, -9.72461, 1.18.2022 18:55:48.173
611, 1.81576, 0.159985, 206.393, 0.000976562, 0, 0, 0.0410156, 0.274414, -9.75293, 1.18.2022 18:55:48.181
612, 1.81576, 0.159985, 206.393, -0.000976562, -0.000976562, 0, -0.0566406, 0.34375, -9.75195, 1.18.2022 18:55:48.189
613, 1.81576, 0.159985, 206.393, -0.000976562, 0, 0.000976562, -0.0332031, 0.331055, -9.74512, 1.18.2022 18:55:48.197
614, 1.81576, 0.159985, 206.393, -0.000976562, 0, 0, 0.00976562, 0.288086, -9.7373, 1.18.2022 18:55:48.205
615, 1.81576, 0.159985, 206.393, -0.000976562, -0.000976562, -0.000976562, -0.0761719, 0.291016, -9.74316, 1.18.2022 18:55:48.213
616, 1.81567, 0.160095, 206.4, -0.00195312, -0.000976562, -0.00195312, 0.00683594, 0.307617, -9.75098, 1.18.2022 18:55:48.221
617, 1.8228, 0.161708, 206.399, -0.00195312, -0.000976562, -0.000976562, -0.03125, 0.3125, -9.75, 1.18.2022 18:55:48.229
618, 1.8228, 0.161708, 206.399, 0, 0, 0.000976562, -0.0517578, 0.301758, -9.72461, 1.18.2022 18:55:48.237
619, 1.8228, 0.161708, 206.399, -0.000976562, -0.000976562, -0.000976562, 0.0214844, 0.28418, -9.75879, 1.18.2022 18:55:48.245
620, 1.8228, 0.161708, 206.399, -0.000976562, -0.00195312, -0.000976562, -0.0683594, 0.291992, -9.71973, 1.18.2022 18:55:48.253
621, 1.8228, 0.161708, 206.399, -0.000976562, -0.000976562, -0.000976562, -0.0478516, 0.322266, -9.75, 1.18.2022 18:55:48.261
622, 1.8228, 0.161708, 206.399, -0.00195312, -0.000976562, -0.000976562, -0.0136719, 0.273438, -9.7207, 1.18.2022 18:55:48.269
623, 1.8228, 0.161708, 206.399, -0.000976562, -0.00195312, -0.000976562, -0.0957031, 0.31543, -9.77246, 1.18.2022 18:55:48.277
624, 1.8228, 0.161708, 206.399, -0.00195312, -0.000976562, -0.000976562, -0.0185547, 0.306641, -9.73438, 1.18.2022 18:55:48.285
625, 1.8228, 0.161708, 206.399, -0.00195312, -0.000976562, -0.000976562, -0.00390625, 0.285156, -9.71875, 1.18.2022 18:55:48.293
626, 1.8228, 0.161708, 206.399, -0.00195312, -0.000976562, -0.000976562, -0.0634766, 0.318359, -9.70508, 1.18.2022 18:55:48.301
627, 1.8228, 0.161708, 206.399, -0.000976562, 0, -0.000976562, -0.00390625, 0.294922, -9.71582, 1.18.2022 18:55:48.309
628, 1.8228, 0.161708, 206.399, 0.000976562, 0, -0.000976562, -0.0566406, 0.328125, -9.72559, 1.18.2022 18:55:48.317
629, 1.8228, 0.161708, 206.399, 0, 0, -0.000976562, -0.0615234, 0.314453, -9.75195, 1.18.2022 18:55:48.325
630, 1.8228, 0.161708, 206.399, 0, 0, 0.000976562, 0.0117188, 0.274414, -9.76855, 1.18.2022 18:55:48.333
631, 1.82248, 0.161692, 206.4, 0, 0.000976562, -0.000976562, -0.0625, 0.322266, -9.7666, 1.18.2022 18:55:48.341
632, 1.82248, 0.161692, 206.4, 0.000976562, 0, -0.000976562, -0.0185547, 0.301758, -9.70801, 1.18.2022 18:55:48.349
633, 1.82248, 0.161692, 206.4, -0.000976562, -0.000976562, -0.000976562, -0.0136719, 0.299805, -9.72754, 1.18.2022 18:55:48.357
634, 1.82248, 0.161692, 206.4, 0.000976562, -0.000976562, -0.000976562, -0.0693359, 0.326172, -9.74219, 1.18.2022 18:55:48.365
635, 1.82248, 0.161692, 206.4, -0.000976562, -0.000976562, -0.00195312, 0.0166016, 0.299805, -9.74414, 1.18.2022 18:55:48.373
636, 1.82248, 0.161692, 206.4, -0.000976562, 0, -0.000976562, -0.0332031, 0.306641, -9.72266, 1.18.2022 18:55:48.381
637, 1.82248, 0.161692, 206.4, -0.000976562, -0.000976562, -0.000976562, -0.0419922, 0.335938, -9.7334, 1.18.2022 18:55:48.389
638, 1.82248, 0.161692, 206.4, 0, 0, -0.000976562, 0.00878906, 0.327148, -9.77441, 1.18.2022 18:55:48.397
639, 1.82248, 0.161692, 206.4, 0, 0, 0.000976562, -0.0859375, 0.334961, -9.77734, 1.18.2022 18:55:48.403
640, 1.82248, 0.161692, 206.4, 0, 0, 0.000976562, -0.00683594, 0.34375, -9.75, 1.18.2022 18:55:48.411
641, 1.82248, 0.161692, 206.4, 0.000976562, -0.000976562, -0.000976562, -0.0234375, 0.316406, -9.72656, 1.18.2022 18:55:48.419
642, 1.81567, 0.160095, 206.4, 0.000976562, -0.000976562, -0.00195312, -0.0830078, 0.326172, -9.73047, 1.18.2022 18:55:48.427
643, 1.81567, 0.160095, 206.4, -0.000976562, -0.000976562, -0.00195312, 0.0332031, 0.318359, -9.78418, 1.18.2022 18:55:48.435
644, 1.816, 0.160111, 206.399, 0.000976562, -0.000976562, -0.000976562, -0.0400391, 0.314453, -9.72852, 1.18.2022 18:55:48.443
645, 1.816, 0.160111, 206.399, -0.000976562, 0, -0.00195312, -0.0595703, 0.327148, -9.76855, 1.18.2022 18:55:48.451
646, 1.816, 0.160111, 206.399, -0.000976562, -0.000976562, -0.000976562, 0.0195312, 0.303711, -9.71387, 1.18.2022 18:55:48.459
647, 1.81567, 0.160095, 206.4, 0, 0, 0, -0.0732422, 0.3125, -9.74023, 1.18.2022 18:55:48.467
648, 1.81567, 0.160095, 206.4, 0.000976562, -0.000976562, 0, -0.0400391, 0.307617, -9.7334, 1.18.2022 18:55:48.475
649, 1.81408, 0.166904, 206.4, 0.000976562, -0.000976562, 0, 0, 0.285156, -9.73047, 1.18.2022 18:55:48.483
650, 1.81416, 0.166793, 206.392, 0, -0.000976562, 0, -0.0712891, 0.329102, -9.74902, 1.18.2022 18:55:48.491
651, 1.81416, 0.166793, 206.392, 0, 0, 0, 0, 0.297852, -9.73926, 1.18.2022 18:55:48.499
652, 1.81416, 0.166793, 206.392, 0, 0, 0, 0.00292969, 0.304688, -9.73926, 1.18.2022 18:55:48.507
653, 1.81576, 0.159985, 206.393, 0, 0, 0, -0.0517578, 0.311523, -9.71191, 1.18.2022 18:55:48.515
654, 1.81576, 0.159985, 206.393, 0, 0, 0.000976562, 0.0195312, 0.271484, -9.7334, 1.18.2022 18:55:48.523
655, 1.81576, 0.159985, 206.393, 0.000976562, 0, 0.000976562, -0.0429688, 0.304688, -9.74121, 1.18.2022 18:55:48.531
656, 1.81576, 0.159985, 206.393, 0.000976562, -0.000976562, 0, -0.0351562, 0.307617, -9.74609, 1.18.2022 18:55:48.539
657, 1.81576, 0.159985, 206.393, 0, 0, 0.000976562, -0.0302734, 0.273438, -9.7373, 1.18.2022 18:55:48.547
658, 1.81576, 0.159985, 206.393, 0.000976562, -0.000976562, 0, -0.116211, 0.333008, -9.70605, 1.18.2022 18:55:48.555
659, 1.81576, 0.159985, 206.393, 0, 0.000976562, 0, -0.00195312, 0.334961, -9.70996, 1.18.2022 18:55:48.563
660, 1.81576, 0.159985, 206.393, 0, 0, 0, 0.00585938, 0.303711, -9.68945, 1.18.2022 18:55:48.571
661, 1.81576, 0.159985, 206.393, 0.000976562, 0, 0, -0.0400391, 0.337891, -9.72168, 1.18.2022 18:55:48.579
662, 1.81576, 0.159985, 206.393, 0, 0, 0, 0.0117188, 0.290039, -9.74219, 1.18.2022 18:55:48.587
663, 1.81576, 0.159985, 206.393, 0, 0, 0, -0.0429688, 0.286133, -9.75781, 1.18.2022 18:55:48.595
664, 1.81576, 0.159985, 206.393, -0.00195312, 0, 0, -0.0332031, 0.307617, -9.73828, 1.18.2022 18:55:48.603
665, 1.81576, 0.159985, 206.393, 0, 0, 0.000976562, 0.0175781, 0.306641, -9.72559, 1.18.2022 18:55:48.611
666, 1.81576, 0.159985, 206.393, 0, 0, 0, -0.0800781, 0.323242, -9.70703, 1.18.2022 18:55:48.619
667, 1.81576, 0.159985, 206.393, 0, 0, 0, -0.0185547, 0.299805, -9.72949, 1.18.2022 18:55:48.627
668, 1.81576, 0.159985, 206.393, 0, 0, 0, -0.00878906, 0.303711, -9.71289, 1.18.2022 18:55:48.635
669, 1.81576, 0.159985, 206.393, 0, -0.000976562, 0, -0.0556641, 0.330078, -9.77832, 1.18.2022 18:55:48.643
670, 1.81567, 0.160095, 206.4, -0.00195312, 0, 0, 0.0283203, 0.299805, -9.74414, 1.18.2022 18:55:48.651
671, 1.81567, 0.160095, 206.4, 0, -0.000976562, 0.000976562, -0.0478516, 0.304688, -9.74805, 1.18.2022 18:55:48.659
672, 1.81567, 0.160095, 206.4, 0, 0, 0.000976562, -0.0478516, 0.306641, -9.78809, 1.18.2022 18:55:48.667
673, 1.81567, 0.160095, 206.4, 0, 0, 0, -0.00390625, 0.306641, -9.73242, 1.18.2022 18:55:48.675
674, 1.816, 0.160111, 206.399, 0.000976562, 0, 0, -0.0585938, 0.337891, -9.71875, 1.18.2022 18:55:48.683
675, 1.816, 0.160111, 206.399, 0.000976562, 0, 0, -0.03125, 0.302734, -9.75977, 1.18.2022 18:55:48.691
676, 1.816, 0.160111, 206.399, 0.000976562, 0, 0, -0.00976562, 0.304688, -9.74609, 1.18.2022 18:55:48.699
677, 1.816, 0.160111, 206.399, -0.000976562, 0, -0.00195312, -0.0527344, 0.319336, -9.75, 1.18.2022 18:55:48.707
678, 1.816, 0.160111, 206.399, -0.000976562, -0.000976562, 0, 0.0146484, 0.302734, -9.73535, 1.18.2022 18:55:48.715
679, 1.816, 0.160111, 206.399, -0.00195312, -0.000976562, -0.000976562, -0.0380859, 0.303711, -9.77148, 1.18.2022 18:55:48.723
680, 1.816, 0.160111, 206.399, -0.000976562, 0, 0, -0.0332031, 0.323242, -9.72168, 1.18.2022 18:55:48.731
681, 1.816, 0.160111, 206.399, 0, 0, 0, 0.0244141, 0.298828, -9.7002, 1.18.2022 18:55:48.739
682, 1.816, 0.160111, 206.399, 0, 0, -0.000976562, -0.0869141, 0.301758, -9.69531, 1.18.2022 18:55:48.747
683, 1.816, 0.160111, 206.399, -0.000976562, 0, -0.00195312, -0.0302734, 0.325195, -9.70312, 1.18.2022 18:55:48.755
684, 1.816, 0.160111, 206.399, -0.000976562, -0.000976562, -0.000976562, -0.0351562, 0.295898, -9.74414, 1.18.2022 18:55:48.763
685, 1.816, 0.160111, 206.399, -0.000976562, -0.00195312, 0, -0.078125, 0.316406, -9.72852, 1.18.2022 18:55:48.771
686, 1.816, 0.160111, 206.399, -0.000976562, 0, 0, 0.0234375, 0.31543, -9.77441, 1.18.2022 18:55:48.779
687, 1.816, 0.160111, 206.399, -0.000976562, 0, -0.000976562, -0.0195312, 0.293945, -9.7793, 1.18.2022 18:55:48.787
688, 1.816, 0.160111, 206.399, 0, 0, -0.000976562, -0.0517578, 0.318359, -9.71875, 1.18.2022 18:55:48.795
689, 1.816, 0.160111, 206.399, -0.000976562, 0, -0.000976562, 0.0341797, 0.304688, -9.73535, 1.18.2022 18:55:48.803
690, 1.816, 0.160111, 206.399, -0.000976562, -0.000976562, -0.000976562, -0.0927734, 0.34375, -9.74414, 1.18.2022 18:55:48.811
691, 1.816, 0.160111, 206.399, 0, -0.000976562, -0.000976562, -0.0351562, 0.321289, -9.71191, 1.18.2022 18:55:48.819
692, 1.816, 0.160111, 206.399, -0.000976562, 0, -0.000976562, 0.0185547, 0.300781, -9.76074, 1.18.2022 18:55:48.827
693, 1.81591, 0.160221, 206.406, 0, 0, 0, -0.0683594, 0.330078, -9.71387, 1.18.2022 18:55:48.835
694, 1.81591, 0.160221, 206.406, 0, 0, -0.000976562, 0.0166016, 0.299805, -9.73535, 1.18.2022 18:55:48.843
695, 1.81591, 0.160221, 206.406, -0.000976562, 0, -0.00195312, -0.0117188, 0.295898, -9.76074, 1.18.2022 18:55:48.851
696, 1.81591, 0.160221, 206.406, -0.000976562, -0.000976562, -0.00195312, -0.0498047, 0.31543, -9.75684, 1.18.2022 18:55:48.859
697, 1.81591, 0.160221, 206.406, -0.000976562, -0.000976562, -0.000976562, 0.0078125, 0.30957, -9.73926, 1.18.2022 18:55:48.867
698, 1.81591, 0.160221, 206.406, -0.000976562, -0.000976562, -0.000976562, -0.0546875, 0.302734, -9.73828, 1.18.2022 18:55:48.875
699, 1.81591, 0.160221, 206.406, -0.000976562, 0, -0.000976562, -0.0380859, 0.327148, -9.77148, 1.18.2022 18:55:48.883
700, 1.81591, 0.160221, 206.406, -0.000976562, 0, -0.000976562, 0.0126953, 0.311523, -9.7207, 1.18.2022 18:55:48.891
701, 1.81591, 0.160221, 206.406, -0.000976562, -0.000976562, -0.000976562, -0.0644531, 0.305664, -9.76465, 1.18.2022 18:55:48.899
702, 1.81591, 0.160221, 206.406, -0.000976562, -0.000976562, -0.000976562, -0.000976562, 0.310547, -9.6875, 1.18.2022 18:55:48.907
703, 1.81591, 0.160221, 206.406, -0.000976562, -0.000976562, 0, 0.0078125, 0.337891, -9.72949, 1.18.2022 18:55:48.915
704, 1.81591, 0.160221, 206.406, -0.000976562, 0, -0.000976562, -0.0361328, 0.313477, -9.7832, 1.18.2022 18:55:48.923
705, 1.81591, 0.160221, 206.406, 0, 0, -0.000976562, 0.0117188, 0.270508, -9.77832, 1.18.2022 18:55:48.931
706, 1.81591, 0.160221, 206.406, -0.000976562, 0, -0.000976562, -0.0410156, 0.300781, -9.75977, 1.18.2022 18:55:48.939
707, 1.81591, 0.160221, 206.406, 0, 0, -0.00195312, -0.0166016, 0.347656, -9.7334, 1.18.2022 18:55:48.947
708, 1.81591, 0.160221, 206.406, -0.000976562, 0, -0.000976562, -0.00488281, 0.293945, -9.76562, 1.18.2022 18:55:48.955
709, 1.81591, 0.160221, 206.406, -0.000976562, -0.000976562, -0.000976562, -0.0566406, 0.337891, -9.7373, 1.18.2022 18:55:48.963
710, 1.81591, 0.160221, 206.406, -0.000976562, -0.000976562, -0.000976562, -0.0332031, 0.3125, -9.75488, 1.18.2022 18:55:48.971
711, 1.81583, 0.160331, 206.414, -0.00195312, 0, -0.000976562, -0.00488281, 0.293945, -9.7627, 1.18.2022 18:55:48.979
712, 1.81583, 0.160331, 206.414, -0.000976562, 0, -0.000976562, -0.0664062, 0.307617, -9.75195, 1.18.2022 18:55:48.987
713, 1.81583, 0.160331, 206.414, -0.000976562, 0, -0.000976562, 0.000976562, 0.313477, -9.7041, 1.18.2022 18:55:48.995
714, 1.81583, 0.160331, 206.414, -0.000976562, -0.000976562, -0.000976562, -0.0595703, 0.305664, -9.75488, 1.18.2022 18:55:49.003
715, 1.81583, 0.160331, 206.414, -0.000976562, 0, 0.000976562, -0.0322266, 0.322266, -9.68359, 1.18.2022 18:55:49.011
716, 1.81583, 0.160331, 206.414, -0.000976562, 0, -0.000976562, 0.00976562, 0.311523, -9.73438, 1.18.2022 18:55:49.019
717, 1.81583, 0.160331, 206.414, -0.000976562, -0.000976562, -0.000976562, -0.0625, 0.339844, -9.77734, 1.18.2022 18:55:49.027
718, 1.81583, 0.160331, 206.414, -0.000976562, 0, -0.000976562, -0.0302734, 0.30957, -9.71973, 1.18.2022 18:55:49.035
719, 1.81583, 0.160331, 206.414, -0.000976562, -0.000976562, -0.000976562, 0.00292969, 0.295898, -9.74902, 1.18.2022 18:55:49.043
720, 1.81583, 0.160331, 206.414, -0.000976562, -0.000976562, -0.00195312, -0.0615234, 0.329102, -9.73535, 1.18.2022 18:55:49.051
721, 1.81574, 0.160441, 206.421, -0.000976562, 0, -0.000976562, 0.0224609, 0.295898, -9.69531, 1.18.2022 18:55:49.059
722, 1.81574, 0.160441, 206.421, -0.000976562, -0.000976562, -0.000976562, -0.0166016, 0.319336, -9.72949, 1.18.2022 18:55:49.067
723, 1.81574, 0.160441, 206.421, -0.000976562, -0.000976562, -0.000976562, -0.0371094, 0.320312, -9.70996, 1.18.2022 18:55:49.075
724, 1.81574, 0.160441, 206.421, -0.000976562, 0, -0.000976562, 0.0244141, 0.282227, -9.7168, 1.18.2022 18:55:49.083
725, 1.81574, 0.160441, 206.421, -0.000976562, -0.000976562, 0.000976562, -0.0517578, 0.331055, -9.72852, 1.18.2022 18:55:49.091
726, 1.81574, 0.160441, 206.421, -0.000976562, -0.000976562, 0.000976562, -0.046875, 0.333008, -9.72559, 1.18.2022 18:55:49.099
727, 1.81574, 0.160441, 206.421, -0.000976562, 0, -0.000976562, 0.00292969, 0.319336, -9.73438, 1.18.2022 18:55:49.107
728, 1.81574, 0.160441, 206.421, -0.000976562, -0.000976562, -0.000976562, -0.0859375, 0.350586, -9.75293, 1.18.2022 18:55:49.115
729, 1.81574, 0.160441, 206.421, -0.000976562, -0.000976562, -0.000976562, 0.0126953, 0.320312, -9.70117, 1.18.2022 18:55:49.123
730, 1.81574, 0.160441, 206.421, -0.000976562, 0, -0.000976562, -0.0332031, 0.299805, -9.73145, 1.18.2022 18:55:49.131
731, 1.81565, 0.160551, 206.429, 0, 0, -0.000976562, -0.03125, 0.341797, -9.78027, 1.18.2022 18:55:49.139
732, 1.81565, 0.160551, 206.429, 0, 0, -0.00195312, 0.0078125, 0.296875, -9.71875, 1.18.2022 18:55:49.147
733, 1.81565, 0.160551, 206.429, -0.000976562, -0.000976562, -0.00195312, -0.0517578, 0.307617, -9.74121, 1.18.2022 18:55:49.155
734, 1.81565, 0.160551, 206.429, -0.000976562, -0.000976562, -0.00195312, -0.0429688, 0.319336, -9.75, 1.18.2022 18:55:49.163
735, 1.81565, 0.160551, 206.429, -0.00195312, 0, -0.000976562, 0.0078125, 0.307617, -9.74219, 1.18.2022 18:55:49.171
736, 1.82246, 0.16215, 206.429, -0.00195312, -0.000976562, 0.000976562, -0.0810547, 0.329102, -9.73926, 1.18.2022 18:55:49.179
737, 1.82246, 0.16215, 206.429, -0.000976562, 0, -0.000976562, -0.0283203, 0.314453, -9.7334, 1.18.2022 18:55:49.187
738, 1.82254, 0.162039, 206.421, 0.000976562, -0.000976562, -0.000976562, -0.0302734, 0.294922, -9.71094, 1.18.2022 18:55:49.195
739, 1.81574, 0.160441, 206.421, -0.000976562, -0.000976562, -0.000976562, -0.0683594, 0.325195, -9.7041, 1.18.2022 18:55:49.203
740, 1.81574, 0.160441, 206.421, 0, -0.000976562, -0.000976562, 0.0224609, 0.308594, -9.70898, 1.18.2022 18:55:49.211
741, 1.81574, 0.160441, 206.421, -0.000976562, -0.000976562, 0.000976562, -0.0419922, 0.316406, -9.73145, 1.18.2022 18:55:49.219
742, 1.82254, 0.162039, 206.421, -0.00195312, -0.000976562, 0.000976562, -0.0332031, 0.322266, -9.76465, 1.18.2022 18:55:49.227
743, 1.82254, 0.162039, 206.421, -0.00195312, -0.000976562, -0.000976562, 0.0195312, 0.283203, -9.73047, 1.18.2022 18:55:49.235
744, 1.82254, 0.162039, 206.421, -0.00195312, -0.000976562, -0.000976562, -0.0517578, 0.342773, -9.72754, 1.18.2022 18:55:49.243
745, 1.82254, 0.162039, 206.421, -0.000976562, 0, -0.000976562, 0.0117188, 0.3125, -9.76074, 1.18.2022 18:55:49.251
746, 1.82254, 0.162039, 206.421, -0.00195312, 0, -0.000976562, 0, 0.313477, -9.7793, 1.18.2022 18:55:49.259
747, 1.82254, 0.162039, 206.421, -0.000976562, 0, -0.000976562, -0.0595703, 0.317383, -9.74707, 1.18.2022 18:55:49.267
748, 1.82254, 0.162039, 206.421, -0.00195312, -0.000976562, -0.000976562, 0.00488281, 0.297852, -9.76074, 1.18.2022 18:55:49.275
749, 1.82254, 0.162039, 206.421, -0.000976562, 0, -0.000976562, -0.0478516, 0.302734, -9.73828, 1.18.2022 18:55:49.283
750, 1.82254, 0.162039, 206.421, -0.000976562, 0, -0.000976562, -0.0488281, 0.34668, -9.6875, 1.18.2022 18:55:49.291
751, 1.82254, 0.162039, 206.421, -0.00195312, 0, -0.000976562, 0.0078125, 0.303711, -9.71387, 1.18.2022 18:55:49.299
752, 1.82254, 0.162039, 206.421, -0.000976562, -0.000976562, -0.00195312, -0.0380859, 0.348633, -9.76855, 1.18.2022 18:55:49.307
753, 1.82254, 0.162039, 206.421, -0.000976562, -0.000976562, -0.000976562, 0, 0.304688, -9.74414, 1.18.2022 18:55:49.315
754, 1.82254, 0.162039, 206.421, -0.000976562, 0, -0.000976562, -0.00683594, 0.307617, -9.73926, 1.18.2022 18:55:49.323
755, 1.82254, 0.162039, 206.421, -0.00195312, 0, 0.000976562, -0.0878906, 0.3125, -9.76367, 1.18.2022 18:55:49.331
756, 1.82254, 0.162039, 206.421, -0.00195312, -0.000976562, -0.000976562, 0.0195312, 0.304688, -9.7207, 1.18.2022 18:55:49.339
757, 1.82254, 0.162039, 206.421, -0.000976562, -0.000976562, -0.000976562, -0.0498047, 0.329102, -9.76172, 1.18.2022 18:55:49.347
758, 1.82254, 0.162039, 206.421, 0.000976562, 0, -0.000976562, -0.0351562, 0.337891, -9.71191, 1.18.2022 18:55:49.355
759, 1.82254, 0.162039, 206.421, -0.000976562, 0, -0.00195312, 0.0166016, 0.304688, -9.7373, 1.18.2022 18:55:49.363
760, 1.82254, 0.162039, 206.421, -0.000976562, 0, -0.000976562, -0.0664062, 0.324219, -9.74707, 1.18.2022 18:55:49.369
761, 1.82254, 0.162039, 206.421, -0.000976562, -0.000976562, -0.000976562, -0.0380859, 0.317383, -9.76855, 1.18.2022 18:55:49.377
762, 1.82254, 0.162039, 206.421, -0.000976562, 0, -0.00195312, -0.00195312, 0.292969, -9.7373, 1.18.2022 18:55:49.385
763, 1.82254, 0.162039, 206.421, -0.000976562, 0, -0.000976562, -0.0712891, 0.317383, -9.76855, 1.18.2022 18:55:49.393
764, 1.82254, 0.162039, 206.421, -0.000976562, 0, -0.000976562, 0.0605469, 0.296875, -9.70996, 1.18.2022 18:55:49.401
765, 1.82254, 0.162039, 206.421, -0.000976562, 0, -0.000976562, -0.0498047, 0.30957, -9.74805, 1.18.2022 18:55:49.409
766, 1.82254, 0.162039, 206.421, 0.000976562, 0, -0.000976562, -0.0371094, 0.285156, -9.71777, 1.18.2022 18:55:49.417
767, 1.82254, 0.162039, 206.421, -0.000976562, -0.000976562, -0.000976562, 0.0380859, 0.262695, -9.77637, 1.18.2022 18:55:49.425
768, 1.82254, 0.162039, 206.421, -0.000976562, 0, -0.000976562, -0.0585938, 0.272461, -9.70117, 1.18.2022 18:55:49.433
769, 1.82246, 0.16215, 206.429, -0.000976562, -0.000976562, -0.00195312, -0.0498047, 0.307617, -9.75684, 1.18.2022 18:55:49.441
770, 1.82246, 0.16215, 206.429, -0.00195312, -0.000976562, -0.00195312, 0.0214844, 0.305664, -9.7793, 1.18.2022 18:55:49.449
771, 1.82246, 0.16215, 206.429, -0.00195312, 0, -0.000976562, -0.0957031, 0.34375, -9.76758, 1.18.2022 18:55:49.457
772, 1.82406, 0.155341, 206.429, -0.000976562, 0, -0.000976562, -0.00292969, 0.288086, -9.80566, 1.18.2022 18:55:49.465
773, 1.82406, 0.155341, 206.429, 0.000976562, 0, -0.000976562, -0.0224609, 0.298828, -9.69141, 1.18.2022 18:55:49.473
774, 1.82438, 0.155358, 206.427, -0.000976562, 0, -0.000976562, -0.0517578, 0.324219, -9.73047, 1.18.2022 18:55:49.481
775, 1.82438, 0.155358, 206.427, 0, 0, 0, 0.0292969, 0.291016, -9.69043, 1.18.2022 18:55:49.489
776, 1.82438, 0.155358, 206.427, 0, 0, 0, -0.0761719, 0.3125, -9.75488, 1.18.2022 18:55:49.497
777, 1.82438, 0.155358, 206.427, 0.000976562, 0, 0.000976562, -0.0292969, 0.298828, -9.77441, 1.18.2022 18:55:49.505
778, 1.82438, 0.155358, 206.427, 0, -0.000976562, 0, 0.0283203, 0.282227, -9.78809, 1.18.2022 18:55:49.513
779, 1.82438, 0.155358, 206.427, 0.000976562, 0, 0, -0.0800781, 0.318359, -9.7168, 1.18.2022 18:55:49.521
780, 1.82438, 0.155358, 206.427, 0.000976562, 0, 0, -0.0214844, 0.311523, -9.73145, 1.18.2022 18:55:49.529
781, 1.82438, 0.155358, 206.427, 0.000976562, 0, 0, -0.0146484, 0.287109, -9.78223, 1.18.2022 18:55:49.537
782, 1.82438, 0.155358, 206.427, 0, -0.000976562, 0, -0.0585938, 0.334961, -9.71875, 1.18.2022 18:55:49.545
783, 1.82438, 0.155358, 206.427, -0.000976562, -0.000976562, 0, 0.0292969, 0.307617, -9.73926, 1.18.2022 18:55:49.553
784, 1.82429, 0.155468, 206.435, 0, 0, -0.000976562, -0.0517578, 0.301758, -9.70312, 1.18.2022 18:55:49.561
785, 1.82429, 0.155468, 206.435, 0, -0.000976562, 0, -0.0302734, 0.329102, -9.7334, 1.18.2022 18:55:49.569
786, 1.82429, 0.155468, 206.435, 0, 0, 0, 0.000976562, 0.313477, -9.71777, 1.18.2022 18:55:49.577
787, 1.82429, 0.155468, 206.435, 0, 0, -0.000976562, -0.0751953, 0.330078, -9.7041, 1.18.2022 18:55:49.585
788, 1.82429, 0.155468, 206.435, 0, 0, 0, -0.0332031, 0.311523, -9.73145, 1.18.2022 18:55:49.593
789, 1.82429, 0.155468, 206.435, 0, 0, 0, -0.0449219, 0.286133, -9.75781, 1.18.2022 18:55:49.601
790, 1.82429, 0.155468, 206.435, -0.000976562, -0.000976562, -0.000976562, -0.0898438, 0.304688, -9.72852, 1.18.2022 18:55:49.609
791, 1.82429, 0.155468, 206.435, 0, 0, -0.000976562, -0.0166016, 0.292969, -9.75098, 1.18.2022 18:55:49.617
792, 1.82429, 0.155468, 206.435, 0.000976562, 0, -0.000976562, -0.0449219, 0.282227, -9.71582, 1.18.2022 18:55:49.625
793, 1.82429, 0.155468, 206.435, 0, 0.000976562, 0, -0.0664062, 0.28418, -9.75098, 1.18.2022 18:55:49.633
794, 1.82429, 0.155468, 206.435, 0, 0.000976562, 0, 0.0117188, 0.290039, -9.74219, 1.18.2022 18:55:49.641
795, 1.82429, 0.155468, 206.435, 0.000976562, 0, 0, -0.0957031, 0.31543, -9.76074, 1.18.2022 18:55:49.649
796, 1.82429, 0.155468, 206.435, 0, 0, 0, -0.0253906, 0.301758, -9.72949, 1.18.2022 18:55:49.657
797, 1.82421, 0.155579, 206.442, 0, 0, -0.000976562, 0.00195312, 0.274414, -9.76855, 1.18.2022 18:55:49.665
798, 1.82421, 0.155579, 206.442, -0.000976562, 0, 0, -0.0732422, 0.319336, -9.7373, 1.18.2022 18:55:49.673
799, 1.82421, 0.155579, 206.442, 0, 0, 0, 0.00683594, 0.267578, -9.76367, 1.18.2022 18:55:49.681
800, 1.82421, 0.155579, 206.442, 0, 0, 0, -0.0283203, 0.293945, -9.75781, 1.18.2022 18:55:49.689
801, 1.82421, 0.155579, 206.442, 0, -0.000976562, -0.000976562, -0.0234375, 0.341797, -9.70996, 1.18.2022 18:55:49.697
802, 1.82421, 0.155579, 206.442, 0, 0, 0, -0.00683594, 0.298828, -9.71289, 1.18.2022 18:55:49.705
803, 1.82421, 0.155579, 206.442, 0, 0, -0.000976562, -0.0683594, 0.34082, -9.73047, 1.18.2022 18:55:49.713
804, 1.82421, 0.155579, 206.442, 0, -0.000976562, 0, -0.0351562, 0.318359, -9.72168, 1.18.2022 18:55:49.721
805, 1.82421, 0.155579, 206.442, 0, -0.000976562, 0, 0.0078125, 0.301758, -9.72266, 1.18.2022 18:55:49.729
806, 1.82421, 0.155579, 206.442, 0, -0.000976562, 0, -0.078125, 0.328125, -9.71387, 1.18.2022 18:55:49.737
807, 1.82421, 0.155579, 206.442, -0.000976562, -0.000976562, 0, 0.03125, 0.292969, -9.74023, 1.18.2022 18:55:49.745
808, 1.82421, 0.155579, 206.442, -0.000976562, 0, 0, 0.0166016, 0.283203, -9.73535, 1.18.2022 18:55:49.753
809, 1.82421, 0.155579, 206.442, -0.000976562, 0, 0, -0.0244141, 0.322266, -9.7666, 1.18.2022 18:55:49.761
810, 1.82421, 0.155579, 206.442, -0.000976562, 0.000976562, 0, 0.0292969, 0.294922, -9.74023, 1.18.2022 18:55:49.769
811, 1.82421, 0.155579, 206.442, 0, 0, -0.000976562, -0.0400391, 0.303711, -9.70996, 1.18.2022 18:55:49.777
812, 1.8174, 0.153979, 206.442, 0.00195312, 0, 0, -0.0380859, 0.304688, -9.74805, 1.18.2022 18:55:49.785
813, 1.8174, 0.153979, 206.442, -0.000976562, 0, 0.000976562, 0.0146484, 0.304688, -9.7373, 1.18.2022 18:55:49.793
814, 1.8174, 0.153979, 206.442, -0.000976562, 0, 0, -0.0664062, 0.34375, -9.75098, 1.18.2022 18:55:49.801
815, 1.8174, 0.153979, 206.442, -0.000976562, 0, 0, -0.00488281, 0.317383, -9.74805, 1.18.2022 18:55:49.809
816, 1.8174, 0.153979, 206.442, -0.000976562, 0, 0, -0.0283203, 0.291016, -9.76562, 1.18.2022 18:55:49.817
817, 1.8174, 0.153979, 206.442, -0.00195312, -0.000976562, 0, -0.0683594, 0.328125, -9.72559, 1.18.2022 18:55:49.825
818, 1.8174, 0.153979, 206.442, -0.000976562, -0.000976562, -0.000976562, 0, 0.322266, -9.75293, 1.18.2022 18:55:49.833
819, 1.8174, 0.153979, 206.442, -0.000976562, -0.000976562, 0, -0.0527344, 0.31543, -9.75977, 1.18.2022 18:55:49.841
820, 1.8174, 0.153979, 206.442, -0.000976562, -0.000976562, 0, -0.015625, 0.342773, -9.72363, 1.18.2022 18:55:49.849
821, 1.8174, 0.153979, 206.442, -0.00195312, 0, 0, -0.00488281, 0.301758, -9.78418, 1.18.2022 18:55:49.857
822, 1.8174, 0.153979, 206.442, -0.000976562, 0.000976562, 0, -0.0478516, 0.341797, -9.76562, 1.18.2022 18:55:49.865
823, 1.8174, 0.153979, 206.442, -0.000976562, -0.000976562, 0, -0.0117188, 0.319336, -9.73633, 1.18.2022 18:55:49.873
824, 1.82421, 0.155579, 206.442, -0.000976562, -0.000976562, 0, 0.0078125, 0.306641, -9.71094, 1.18.2022 18:55:49.881
825, 1.82421, 0.155579, 206.442, -0.000976562, -0.000976562, 0, -0.0566406, 0.34375, -9.75195, 1.18.2022 18:55:49.889
826, 1.82421, 0.155579, 206.442, -0.000976562, -0.000976562, 0, 0.0224609, 0.282227, -9.69531, 1.18.2022 18:55:49.897
827, 1.82261, 0.162387, 206.442, -0.000976562, 0, 0.000976562, -0.0449219, 0.294922, -9.71094, 1.18.2022 18:55:49.905
828, 1.82261, 0.162387, 206.442, -0.000976562, -0.000976562, 0.000976562, -0.0517578, 0.302734, -9.73828, 1.18.2022 18:55:49.913
829, 1.82261, 0.162387, 206.442, 0.000976562, -0.000976562, 0.000976562, 0.00878906, 0.272461, -9.79199, 1.18.2022 18:55:49.921
830, 1.8158, 0.160787, 206.442, -0.000976562, 0.000976562, 0.000976562, -0.0703125, 0.301758, -9.71191, 1.18.2022 18:55:49.929
831, 1.8158, 0.160787, 206.442, -0.000976562, 0, 0, -0.0146484, 0.317383, -9.7627, 1.18.2022 18:55:49.937
832, 1.8158, 0.160787, 206.442, -0.000976562, -0.000976562, 0, -0.0234375, 0.304688, -9.74121, 1.18.2022 18:55:49.945
833, 1.82261, 0.162387, 206.442, -0.000976562, -0.00195312, -0.000976562, -0.0664062, 0.34082, -9.72559, 1.18.2022 18:55:49.953
834, 1.82261, 0.162387, 206.442, -0.00195312, -0.000976562, 0, 0.0244141, 0.294922, -9.72559, 1.18.2022 18:55:49.961
835, 1.82261, 0.162387, 206.442, -0.00195312, -0.000976562, 0.000976562, -0.0263672, 0.314453, -9.74121, 1.18.2022 18:55:49.969
836, 1.82261, 0.162387, 206.442, -0.000976562, 0, -0.000976562, -0.0634766, 0.304688, -9.73145, 1.18.2022 18:55:49.977
837, 1.82261, 0.162387, 206.442, -0.000976562, 0, -0.000976562, 0.0175781, 0.274414, -9.69531, 1.18.2022 18:55:49.985
838, 1.82261, 0.162387, 206.442, -0.000976562, 0, 0, -0.0615234, 0.317383, -9.75, 1.18.2022 18:55:49.993
839, 1.82261, 0.162387, 206.442, 0.000976562, 0.000976562, 0, -0.00683594, 0.313477, -9.71289, 1.18.2022 18:55:50.001
840, 1.82261, 0.162387, 206.442, -0.000976562, 0, -0.00195312, 0.0117188, 0.274414, -9.74707, 1.18.2022 18:55:50.009
841, 1.82261, 0.162387, 206.442, -0.000976562, 0, -0.000976562, -0.0761719, 0.335938, -9.74219, 1.18.2022 18:55:50.017
842, 1.82261, 0.162387, 206.442, 0.000976562, -0.00195312, 0, 0.0185547, 0.310547, -9.76074, 1.18.2022 18:55:50.025
843, 1.82261, 0.162387, 206.442, -0.000976562, -0.000976562, 0.000976562, -0.00195312, 0.299805, -9.73926, 1.18.2022 18:55:50.033
844, 1.82261, 0.162387, 206.442, -0.000976562, 0.000976562, 0, -0.078125, 0.329102, -9.74902, 1.18.2022 18:55:50.041
845, 1.82261, 0.162387, 206.442, -0.000976562, 0, -0.000976562, 0.0195312, 0.288086, -9.74512, 1.18.2022 18:55:50.049
846, 1.82261, 0.162387, 206.442, -0.00195312, -0.000976562, -0.000976562, -0.0546875, 0.321289, -9.72363, 1.18.2022 18:55:50.057
847, 1.82261, 0.162387, 206.442, -0.000976562, -0.000976562, -0.000976562, -0.0390625, 0.317383, -9.69141, 1.18.2022 18:55:50.065
848, 1.82261, 0.162387, 206.442, -0.000976562, -0.000976562, -0.000976562, 0.00488281, 0.290039, -9.73535, 1.18.2022 18:55:50.073
849, 1.82261, 0.162387, 206.442, -0.000976562, -0.000976562, -0.000976562, -0.078125, 0.324219, -9.72852, 1.18.2022 18:55:50.081
850, 1.82261, 0.162387, 206.442, -0.000976562, 0, -0.000976562, 0.0146484, 0.308594, -9.7207, 1.18.2022 18:55:50.089
851, 1.82261, 0.162387, 206.442, -0.000976562, 0.000976562, 0, -0.0117188, 0.327148, -9.77148, 1.18.2022 18:55:50.097
852, 1.82261, 0.162387, 206.442, -0.000976562, 0, -0.000976562, -0.0693359, 0.345703, -9.75098, 1.18.2022 18:55:50.105
853, 1.82261, 0.162387, 206.442, -0.000976562, -0.000976562, -0.000976562, 0.0244141, 0.292969, -9.73535, 1.18.2022 18:55:50.113
854, 1.82261, 0.162387, 206.442, 0.000976562, 0, -0.000976562, -0.0546875, 0.294922, -9.73828, 1.18.2022 18:55:50.121
855, 1.82261, 0.162387, 206.442, -0.00195312, 0, -0.000976562, -0.0625, 0.305664, -9.76855, 1.18.2022 18:55:50.129
856, 1.82261, 0.162387, 206.442, -0.000976562, -0.000976562, -0.000976562, 0.000976562, 0.304688, -9.7207, 1.18.2022 18:55:50.137
857, 1.82261, 0.162387, 206.442, -0.000976562, -0.000976562, -0.000976562, -0.0595703, 0.3125, -9.73828, 1.18.2022 18:55:50.145
858, 1.82261, 0.162387, 206.442, -0.000976562, 0, -0.000976562, 0, 0.316406, -9.73145, 1.18.2022 18:55:50.153
859, 1.82261, 0.162387, 206.442, -0.000976562, 0, -0.000976562, -0.0117188, 0.321289, -9.74609, 1.18.2022 18:55:50.161
860, 1.82261, 0.162387, 206.442, -0.000976562, -0.000976562, -0.00195312, -0.0566406, 0.30957, -9.75, 1.18.2022 18:55:50.169
861, 1.82261, 0.162387, 206.442, -0.00195312, -0.000976562, -0.000976562, 0.0273438, 0.301758, -9.7041, 1.18.2022 18:55:50.177
862, 1.82261, 0.162387, 206.442, -0.000976562, -0.000976562, -0.000976562, -0.0566406, 0.319336, -9.74023, 1.18.2022 18:55:50.185
863, 1.82261, 0.162387, 206.442, -0.000976562, -0.00195312, -0.000976562, -0.0488281, 0.330078, -9.71387, 1.18.2022 18:55:50.193
864, 1.82261, 0.162387, 206.442, 0.000976562, 0, -0.000976562, 0.0234375, 0.322266, -9.76074, 1.18.2022 18:55:50.201
865, 1.82261, 0.162387, 206.442, -0.000976562, -0.000976562, -0.000976562, -0.0664062, 0.300781, -9.74805, 1.18.2022 18:55:50.209
866, 1.82261, 0.162387, 206.442, -0.000976562, 0, -0.000976562, -0.0166016, 0.291016, -9.75098, 1.18.2022 18:55:50.217
867, 1.82261, 0.162387, 206.442, -0.00195312, 0, -0.000976562, -0.0136719, 0.297852, -9.7373, 1.18.2022 18:55:50.225
868, 1.82261, 0.162387, 206.442, -0.000976562, 0, -0.00195312, -0.0546875, 0.326172, -9.72852, 1.18.2022 18:55:50.233
869, 1.82261, 0.162387, 206.442, 0.000976562, 0, -0.000976562, 0.00683594, 0.301758, -9.78223, 1.18.2022 18:55:50.241
870, 1.82261, 0.162387, 206.442, 0.000976562, -0.000976562, -0.00195312, -0.00683594, 0.290039, -9.72754, 1.18.2022 18:55:50.249
871, 1.82261, 0.162387, 206.442, -0.000976562, 0, -0.000976562, -0.0507812, 0.338867, -9.6875, 1.18.2022 18:55:50.257
872, 1.82261, 0.162387, 206.442, -0.000976562, 0, 0, 0.0214844, 0.271484, -9.73828, 1.18.2022 18:55:50.265
873, 1.82261, 0.162387, 206.442, -0.000976562, -0.000976562, 0, -0.0527344, 0.3125, -9.75488, 1.18.2022 18:55:50.273
874, 1.82261, 0.162387, 206.442, -0.000976562, -0.000976562, -0.00195312, -0.0166016, 0.297852, -9.72949, 1.18.2022 18:55:50.281
875, 1.82261, 0.162387, 206.442, -0.000976562, 0, -0.000976562, 0.00488281, 0.283203, -9.74023, 1.18.2022 18:55:50.289
876, 1.82261, 0.162387, 206.442, -0.000976562, 0, -0.000976562, -0.0693359, 0.326172, -9.74512, 1.18.2022 18:55:50.297
877, 1.82261, 0.162387, 206.442, -0.000976562, -0.000976562, 0, -0.00390625, 0.310547, -9.7041, 1.18.2022 18:55:50.305
878, 1.82261, 0.162387, 206.442, -0.000976562, 0, 0, -0.0195312, 0.297852, -9.76074, 1.18.2022 18:55:50.313
879, 1.82261, 0.162387, 206.442, -0.000976562, 0, 0, -0.0644531, 0.338867, -9.76367, 1.18.2022 18:55:50.321
880, 1.82261, 0.162387, 206.442, 0.000976562, 0, 0, 0.0146484, 0.291016, -9.74902, 1.18.2022 18:55:50.327
881, 1.82261, 0.162387, 206.442, -0.000976562, -0.000976562, 0, -0.046875, 0.316406, -9.72852, 1.18.2022 18:55:50.335
882, 1.82261, 0.162387, 206.442, -0.000976562, -0.000976562, 0, -0.0429688, 0.334961, -9.77344, 1.18.2022 18:55:50.343
883, 1.82261, 0.162387, 206.442, -0.000976562, 0, 0, 0.0175781, 0.303711, -9.71094, 1.18.2022 18:55:50.351
884, 1.82261, 0.162387, 206.442, -0.000976562, -0.000976562, 0, -0.0693359, 0.295898, -9.74121, 1.18.2022 18:55:50.359
885, 1.82261, 0.162387, 206.442, -0.000976562, -0.000976562, 0, -0.00195312, 0.291992, -9.70898, 1.18.2022 18:55:50.367
886, 1.82252, 0.162497, 206.45, -0.000976562, -0.000976562, 0, -0.0498047, 0.306641, -9.72852, 1.18.2022 18:55:50.375
887, 1.82252, 0.162497, 206.45, -0.00195312, -0.000976562, 0, -0.0419922, 0.31543, -9.69336, 1.18.2022 18:55:50.383
888, 1.82252, 0.162497, 206.45, -0.000976562, -0.000976562, 0, 0.00683594, 0.288086, -9.75391, 1.18.2022 18:55:50.391
889, 1.82252, 0.162497, 206.45, -0.000976562, 0, 0, -0.0615234, 0.311523, -9.7168, 1.18.2022 18:55:50.399
890, 1.82252, 0.162497, 206.45, -0.00195312, 0, 0, -0.0302734, 0.285156, -9.73242, 1.18.2022 18:55:50.407
891, 1.82252, 0.162497, 206.45, -0.000976562, 0, 0, 0.0195312, 0.290039, -9.7373, 1.18.2022 18:55:50.415
892, 1.82252, 0.162497, 206.45, -0.000976562, 0, 0.000976562, -0.0664062, 0.322266, -9.76367, 1.18.2022 18:55:50.423
893, 1.82252, 0.162497, 206.45, -0.000976562, 0, 0, 0.0117188, 0.300781, -9.76367, 1.18.2022 18:55:50.431
894, 1.82252, 0.162497, 206.45, -0.000976562, 0, 0, -0.03125, 0.302734, -9.75098, 1.18.2022 18:55:50.439
895, 1.82252, 0.162497, 206.45, -0.000976562, 0, 0.000976562, -0.0712891, 0.328125, -9.71875, 1.18.2022 18:55:50.447
896, 1.82252, 0.162497, 206.45, -0.000976562, 0, 0, 0.0292969, 0.290039, -9.72852, 1.18.2022 18:55:50.455
897, 1.82252, 0.162497, 206.45, -0.000976562, -0.000976562, 0, -0.0449219, 0.310547, -9.76172, 1.18.2022 18:55:50.463
898, 1.82252, 0.162497, 206.45, -0.000976562, 0, 0.000976562, -0.0332031, 0.314453, -9.74121, 1.18.2022 18:55:50.471
899, 1.82252, 0.162497, 206.45, -0.000976562, -0.000976562, 0, 0.0126953, 0.27832, -9.72852, 1.18.2022 18:55:50.479
900, 1.82244, 0.162608, 206.457, -0.000976562, -0.000976562, 0, -0.0664062, 0.322266, -9.74512, 1.18.2022 18:55:50.487
901, 1.82244, 0.162608, 206.457, -0.000976562, -0.000976562, 0.000976562, -0.00878906, 0.308594, -9.71289, 1.18.2022 18:55:50.495
902, 1.82244, 0.162608, 206.457, 0.000976562, -0.000976562, 0, -0.0205078, 0.301758, -9.71582, 1.18.2022 18:55:50.503
903, 1.82244, 0.162608, 206.457, 0.000976562, 0, 0.000976562, -0.0498047, 0.324219, -9.74707, 1.18.2022 18:55:50.511
904, 1.82244, 0.162608, 206.457, -0.00195312, -0.000976562, -0.000976562, 0.03125, 0.302734, -9.74414, 1.18.2022 18:55:50.519
905, 1.82244, 0.162608, 206.457, -0.000976562, -0.000976562, -0.000976562, -0.0332031, 0.320312, -9.77148, 1.18.2022 18:55:50.527
906, 1.82244, 0.162608, 206.457, -0.000976562, -0.000976562, -0.000976562, -0.0214844, 0.307617, -9.75586, 1.18.2022 18:55:50.535
907, 1.82244, 0.162608, 206.457, -0.000976562, -0.000976562, -0.000976562, 0.00195312, 0.324219, -9.7627, 1.18.2022 18:55:50.543
908, 1.82244, 0.162608, 206.457, -0.000976562, 0, -0.00195312, -0.0566406, 0.311523, -9.7334, 1.18.2022 18:55:50.551
909, 1.82244, 0.162608, 206.457, -0.000976562, 0, -0.000976562, -0.0273438, 0.320312, -9.70801, 1.18.2022 18:55:50.559
910, 1.82244, 0.162608, 206.457, -0.000976562, 0, -0.00195312, -0.0332031, 0.291016, -9.74414, 1.18.2022 18:55:50.567
911, 1.82244, 0.162608, 206.457, -0.000976562, 0, -0.000976562, -0.0712891, 0.350586, -9.73438, 1.18.2022 18:55:50.575
912, 1.82244, 0.162608, 206.457, -0.000976562, 0, -0.000976562, 0.0273438, 0.298828, -9.71191, 1.18.2022 18:55:50.583
913, 1.82244, 0.162608, 206.457, -0.000976562, 0, -0.00195312, -0.0527344, 0.279297, -9.74609, 1.18.2022 18:55:50.591
914, 1.82244, 0.162608, 206.457, -0.000976562, 0, -0.000976562, -0.0371094, 0.316406, -9.7168, 1.18.2022 18:55:50.599
915, 1.82404, 0.1558, 206.457, -0.000976562, 0, 0.000976562, 0.0175781, 0.270508, -9.71973, 1.18.2022 18:55:50.607
916, 1.82404, 0.1558, 206.457, -0.000976562, 0, -0.000976562, -0.0712891, 0.3125, -9.74023, 1.18.2022 18:55:50.615
917, 1.81723, 0.154199, 206.457, -0.000976562, 0.000976562, 0.000976562, -0.0166016, 0.321289, -9.73633, 1.18.2022 18:55:50.623
918, 1.81723, 0.154199, 206.457, -0.000976562, 0, -0.000976562, -0.0234375, 0.294922, -9.74121, 1.18.2022 18:55:50.631
919, 1.81723, 0.154199, 206.457, -0.000976562, 0, -0.000976562, -0.0634766, 0.306641, -9.70312, 1.18.2022 18:55:50.639
920, 1.81723, 0.154199, 206.457, 0.000976562, 0, -0.000976562, 0.00488281, 0.295898, -9.75586, 1.18.2022 18:55:50.647
921, 1.81723, 0.154199, 206.457, -0.000976562, 0, 0.000976562, -0.0283203, 0.30957, -9.72266, 1.18.2022 18:55:50.655
922, 1.81723, 0.154199, 206.457, -0.000976562, 0, -0.000976562, -0.0664062, 0.319336, -9.74707, 1.18.2022 18:55:50.663
923, 1.81723, 0.154199, 206.457, -0.000976562, 0, -0.000976562, 0.0351562, 0.307617, -9.76367, 1.18.2022 18:55:50.671
924, 1.81723, 0.154199, 206.457, -0.000976562, -0.000976562, -0.000976562, -0.0683594, 0.319336, -9.73047, 1.18.2022 18:55:50.679
925, 1.81723, 0.154199, 206.457, -0.000976562, 0, -0.00195312, -0.0429688, 0.3125, -9.74121, 1.18.2022 18:55:50.687
926, 1.81723, 0.154199, 206.457, -0.000976562, 0, -0.00195312, -0.00976562, 0.297852, -9.76074, 1.18.2022 18:55:50.695
927, 1.81723, 0.154199, 206.457, -0.000976562, 0, -0.000976562, -0.0751953, 0.321289, -9.7168, 1.18.2022 18:55:50.703
928, 1.81723, 0.154199, 206.457, -0.000976562, 0, -0.000976562, -0.015625, 0.289062, -9.70215, 1.18.2022 18:55:50.711
929, 1.81723, 0.154199, 206.457, -0.000976562, 0, 0.000976562, -0.0400391, 0.291016, -9.75293, 1.18.2022 18:55:50.719
930, 1.81723, 0.154199, 206.457, -0.000976562, 0, -0.000976562, -0.0673828, 0.3125, -9.67871, 1.18.2022 18:55:50.727
931, 1.81723, 0.154199, 206.457, 0.000976562, -0.000976562, -0.00195312, 0.0146484, 0.291992, -9.70703, 1.18.2022 18:55:50.735
932, 1.81723, 0.154199, 206.457, 0.000976562, 0, -0.00195312, -0.0517578, 0.314453, -9.73828, 1.18.2022 18:55:50.743
933, 1.81723, 0.154199, 206.457, -0.000976562, 0, -0.000976562, -0.0117188, 0.326172, -9.72461, 1.18.2022 18:55:50.751
934, 1.81723, 0.154199, 206.457, -0.000976562, 0, -0.000976562, 0.0117188, 0.272461, -9.77832, 1.18.2022 18:55:50.759
935, 1.81732, 0.154089, 206.45, -0.00195312, -0.000976562, 0, -0.0810547, 0.34375, -9.75098, 1.18.2022 18:55:50.767
936, 1.81732, 0.154089, 206.45, 0.000976562, -0.000976562, 0, -0.00195312, 0.292969, -9.74414, 1.18.2022 18:55:50.775
937, 1.81732, 0.154089, 206.45, -0.000976562, -0.000976562, 0, -0.0390625, 0.303711, -9.7832, 1.18.2022 18:55:50.783
938, 1.81732, 0.154089, 206.45, -0.000976562, 0, 0.000976562, -0.0546875, 0.352539, -9.73242, 1.18.2022 18:55:50.791
939, 1.81732, 0.154089, 206.45, 0.000976562, 0, 0, 0.0234375, 0.295898, -9.76855, 1.18.2022 18:55:50.799
940, 1.81732, 0.154089, 206.45, -0.000976562, 0.000976562, 0, -0.0351562, 0.30957, -9.72168, 1.18.2022 18:55:50.807
941, 1.81732, 0.154089, 206.45, -0.000976562, 0, 0, -0.0498047, 0.311523, -9.73145, 1.18.2022 18:55:50.815
942, 1.81732, 0.154089, 206.45, -0.000976562, 0, 0.000976562, -0.0117188, 0.282227, -9.71387, 1.18.2022 18:55:50.823
943, 1.81732, 0.154089, 206.45, 0.000976562, 0, 0, -0.0800781, 0.323242, -9.72559, 1.18.2022 18:55:50.831
944, 1.81732, 0.154089, 206.45, -0.000976562, 0, -0.000976562, -0.0166016, 0.293945, -9.76074, 1.18.2022 18:55:50.839
945, 1.81732, 0.154089, 206.45, -0.000976562, 0, -0.000976562, 0.000976562, 0.296875, -9.72559, 1.18.2022 18:55:50.847
946, 1.81732, 0.154089, 206.45, -0.000976562, 0, 0, -0.0478516, 0.334961, -9.78027, 1.18.2022 18:55:50.855
947, 1.81732, 0.154089, 206.45, -0.000976562, -0.000976562, 0, 0.03125, 0.307617, -9.74414, 1.18.2022 18:55:50.863
948, 1.81732, 0.154089, 206.45, -0.000976562, -0.000976562, 0, -0.0449219, 0.319336, -9.75684, 1.18.2022 18:55:50.871
949, 1.81732, 0.154089, 206.45, 0.000976562, 0, 0, -0.0830078, 0.34375, -9.75098, 1.18.2022 18:55:50.879
950, 1.81732, 0.154089, 206.45, -0.000976562, -0.000976562, 0, 0.0214844, 0.28125, -9.73828, 1.18.2022 18:55:50.887
951, 1.81732, 0.154089, 206.45, -0.000976562, -0.000976562, 0.000976562, -0.0693359, 0.3125, -9.74023, 1.18.2022 18:55:50.895
952, 1.81732, 0.154089, 206.45, -0.000976562, 0, -0.000976562, -0.0263672, 0.307617, -9.75781, 1.18.2022 18:55:50.903
953, 1.81732, 0.154089, 206.45, -0.00195312, -0.000976562, -0.00195312, -0.00292969, 0.310547, -9.7627, 1.18.2022 18:55:50.911
954, 1.81732, 0.154089, 206.45, -0.00195312, 0, 0.000976562, -0.0927734, 0.333984, -9.74609, 1.18.2022 18:55:50.919
955, 1.81732, 0.154089, 206.45, -0.000976562, 0, 0, -0.00976562, 0.289062, -9.76367, 1.18.2022 18:55:50.927
956, 1.81732, 0.154089, 206.45, -0.000976562, 0, 0, -0.0449219, 0.31543, -9.76172, 1.18.2022 18:55:50.935
957, 1.81732, 0.154089, 206.45, -0.000976562, 0, 0, -0.0546875, 0.314453, -9.72852, 1.18.2022 18:55:50.943
958, 1.81732, 0.154089, 206.45, 0.000976562, 0, 0, 0.03125, 0.291016, -9.76172, 1.18.2022 18:55:50.951
959, 1.81732, 0.154089, 206.45, -0.000976562, 0, 0, -0.0449219, 0.331055, -9.72168, 1.18.2022 18:55:50.959
960, 1.81732, 0.154089, 206.45, -0.000976562, 0, 0, -0.0214844, 0.307617, -9.7627, 1.18.2022 18:55:50.967
961, 1.81732, 0.154089, 206.45, 0.000976562, -0.000976562, 0, -0.00390625, 0.303711, -9.71094, 1.18.2022 18:55:50.975
962, 1.81732, 0.154089, 206.45, -0.000976562, -0.000976562, 0, -0.0869141, 0.323242, -9.69922, 1.18.2022 18:55:50.983
963, 1.81732, 0.154089, 206.45, -0.000976562, -0.00195312, 0, 0.0175781, 0.296875, -9.72363, 1.18.2022 18:55:50.991
964, 1.81572, 0.160897, 206.45, 0.000976562, 0, 0, -0.0234375, 0.299805, -9.71973, 1.18.2022 18:55:50.999
965, 1.81572, 0.160897, 206.45, -0.000976562, 0, 0, -0.0644531, 0.336914, -9.76074, 1.18.2022 18:55:51.007
966, 1.81572, 0.160897, 206.45, 0.000976562, 0, 0, 0.0263672, 0.30957, -9.73047, 1.18.2022 18:55:51.015
967, 1.81572, 0.160897, 206.45, -0.000976562, -0.000976562, -0.000976562, -0.0625, 0.34375, -9.76367, 1.18.2022 18:55:51.023
968, 1.81572, 0.160897, 206.45, 0, 0, -0.000976562, -0.0224609, 0.279297, -9.69434, 1.18.2022 18:55:51.031
969, 1.81572, 0.160897, 206.45, -0.00195312, -0.000976562, -0.000976562, 0.00683594, 0.293945, -9.78906, 1.18.2022 18:55:51.039
970, 1.81572, 0.160897, 206.45, 0, 0, -0.000976562, -0.0898438, 0.331055, -9.71582, 1.18.2022 18:55:51.047
971, 1.81572, 0.160897, 206.45, -0.000976562, -0.000976562, -0.00195312, -0.0253906, 0.311523, -9.72656, 1.18.2022 18:55:51.055
972, 1.81572, 0.160897, 206.45, -0.000976562, -0.000976562, -0.00195312, -0.0166016, 0.320312, -9.76465, 1.18.2022 18:55:51.063
973, 1.81572, 0.160897, 206.45, -0.000976562, 0, 0, -0.078125, 0.329102, -9.7373, 1.18.2022 18:55:51.071
974, 1.81572, 0.160897, 206.45, -0.000976562, -0.000976562, -0.000976562, 0.0390625, 0.296875, -9.7168, 1.18.2022 18:55:51.079
975, 1.81572, 0.160897, 206.45, -0.000976562, 0, 0, -0.0429688, 0.302734, -9.75293, 1.18.2022 18:55:51.087
976, 1.81572, 0.160897, 206.45, -0.000976562, 0, 0, -0.0234375, 0.302734, -9.73926, 1.18.2022 18:55:51.095
977, 1.81572, 0.160897, 206.45, -0.00195312, 0, 0, 0.00488281, 0.291016, -9.74219, 1.18.2022 18:55:51.103
978, 1.81572, 0.160897, 206.45, -0.000976562, 0, 0, -0.0664062, 0.327148, -9.74902, 1.18.2022 18:55:51.111
979, 1.81572, 0.160897, 206.45, -0.00195312, 0.000976562, 0, -0.015625, 0.311523, -9.70605, 1.18.2022 18:55:51.119
980, 1.81572, 0.160897, 206.45, -0.000976562, -0.000976562, -0.000976562, 0.00488281, 0.295898, -9.75391, 1.18.2022 18:55:51.127
981, 1.81572, 0.160897, 206.45, -0.000976562, 0, 0, -0.0546875, 0.326172, -9.73535, 1.18.2022 18:55:51.135
982, 1.81572, 0.160897, 206.45, -0.000976562, 0, 0, 0.03125, 0.292969, -9.75195, 1.18.2022 18:55:51.143
983, 1.81572, 0.160897, 206.45, -0.000976562, -0.000976562, -0.000976562, -0.0351562, 0.304688, -9.72949, 1.18.2022 18:55:51.151
984, 1.81572, 0.160897, 206.45, -0.000976562, -0.000976562, -0.000976562, -0.0664062, 0.334961, -9.71191, 1.18.2022 18:55:51.159
985, 1.81563, 0.161007, 206.457, -0.000976562, 0, -0.00195312, 0.0166016, 0.317383, -9.7627, 1.18.2022 18:55:51.167
986, 1.81563, 0.161007, 206.457, -0.000976562, -0.000976562, -0.000976562, -0.0996094, 0.305664, -9.75195, 1.18.2022 18:55:51.175
987, 1.81563, 0.161007, 206.457, 0, -0.000976562, -0.00195312, -0.0253906, 0.305664, -9.69434, 1.18.2022 18:55:51.183
988, 1.81563, 0.161007, 206.457, 0, 0, 0, 0.0117188, 0.291016, -9.75684, 1.18.2022 18:55:51.191
989, 1.81563, 0.161007, 206.457, 0, 0, -0.00195312, -0.0683594, 0.313477, -9.7002, 1.18.2022 18:55:51.199
990, 1.81563, 0.161007, 206.457, -0.000976562, -0.000976562, -0.00195312, 0.0117188, 0.286133, -9.74023, 1.18.2022 18:55:51.207
991, 1.81563, 0.161007, 206.457, -0.000976562, 0, -0.00195312, -0.0195312, 0.28125, -9.75879, 1.18.2022 18:55:51.215
992, 1.81595, 0.161023, 206.456, -0.000976562, -0.000976562, -0.00195312, -0.0263672, 0.314453, -9.73828, 1.18.2022 18:55:51.223
993, 1.81595, 0.161023, 206.456, -0.000976562, 0, -0.00195312, 0.0234375, 0.28418, -9.77051, 1.18.2022 18:55:51.231
994, 1.81587, 0.161133, 206.463, -0.000976562, -0.000976562, -0.00195312, -0.0625, 0.310547, -9.76172, 1.18.2022 18:55:51.239
995, 1.81587, 0.161133, 206.463, 0, 0, -0.000976562, -0.0253906, 0.311523, -9.72266, 1.18.2022 18:55:51.247
996, 1.81587, 0.161133, 206.463, -0.000976562, 0, 0, 0.00683594, 0.302734, -9.75098, 1.18.2022 18:55:51.255
997, 1.81587, 0.161133, 206.463, -0.000976562, 0, 0, -0.0830078, 0.326172, -9.72754, 1.18.2022 18:55:51.263
998, 1.81587, 0.161133, 206.463, -0.000976562, 0.000976562, 0, 0.0146484, 0.317383, -9.75098, 1.18.2022 18:55:51.271
999, 1.81587, 0.161133, 206.463, -0.000976562, 0, 0, -0.0263672, 0.288086, -9.73926, 1.18.2022 18:55:51.279
1000, 1.81587, 0.161133, 206.463, 0, 0, 0, -0.0498047, 0.322266, -9.74707, 1.18.2022 18:55:51.287
1001, 1.81587, 0.161133, 206.463, -0.000976562, 0, 0, 0.0214844, 0.288086, -9.74512, 1.18.2022 18:55:51.295
1002, 1.81587, 0.161133, 206.463, -0.000976562, 0.000976562, 0, -0.0576172, 0.336914, -9.76074, 1.18.2022 18:55:51.303
1003, 1.81747, 0.154326, 206.464, -0.000976562, 0, -0.000976562, -0.0185547, 0.338867, -9.75488, 1.18.2022 18:55:51.309
1004, 1.81747, 0.154326, 206.464, -0.000976562, -0.000976562, -0.000976562, -0.0253906, 0.306641, -9.73145, 1.18.2022 18:55:51.317
1005, 1.81747, 0.154326, 206.464, -0.000976562, 0, 0, -0.0732422, 0.318359, -9.71875, 1.18.2022 18:55:51.325
1006, 1.81747, 0.154326, 206.464, -0.000976562, -0.000976562, 0.000976562, -0.00976562, 0.295898, -9.75781, 1.18.2022 18:55:51.333
1007, 1.81587, 0.161133, 206.463, -0.000976562, -0.000976562, 0, -0.0234375, 0.296875, -9.71289, 1.18.2022 18:55:51.341
1008, 1.81587, 0.161133, 206.463, -0.000976562, -0.000976562, 0, -0.0712891, 0.326172, -9.7168, 1.18.2022 18:55:51.349
1009, 1.81587, 0.161133, 206.463, -0.000976562, -0.000976562, -0.000976562, 0.0371094, 0.291016, -9.68848, 1.18.2022 18:55:51.357
1010, 1.81587, 0.161133, 206.463, -0.000976562, -0.000976562, 0, -0.0507812, 0.328125, -9.78516, 1.18.2022 18:55:51.365
1011, 1.81587, 0.161133, 206.463, -0.000976562, 0, 0, -0.0332031, 0.333984, -9.7666, 1.18.2022 18:55:51.373
1012, 1.81587, 0.161133, 206.463, -0.00195312, 0, 0, 0.0205078, 0.303711, -9.78418, 1.18.2022 18:55:51.381
1013, 1.81587, 0.161133, 206.463, -0.000976562, 0, 0, -0.0908203, 0.34082, -9.74414, 1.18.2022 18:55:51.389
1014, 1.81587, 0.161133, 206.463, -0.000976562, 0, 0, -0.00195312, 0.324219, -9.73145, 1.18.2022 18:55:51.397
1015, 1.81587, 0.161133, 206.463, -0.000976562, 0, -0.000976562, -0.0263672, 0.272461, -9.77539, 1.18.2022 18:55:51.405
1016, 1.81587, 0.161133, 206.463, -0.000976562, 0, 0, -0.0537109, 0.331055, -9.7168, 1.18.2022 18:55:51.413
1017, 1.81587, 0.161133, 206.463, 0.000976562, 0, 0.000976562, 0.0146484, 0.292969, -9.74707, 1.18.2022 18:55:51.421
1018, 1.81595, 0.161023, 206.456, 0, 0, 0, -0.0107422, 0.305664, -9.69922, 1.18.2022 18:55:51.429
1019, 1.81755, 0.154216, 206.456, -0.000976562, 0, 0, -0.0166016, 0.314453, -9.74121, 1.18.2022 18:55:51.437
1020, 1.81755, 0.154216, 206.456, -0.000976562, 0, 0, 0.0244141, 0.308594, -9.70215, 1.18.2022 18:55:51.445
1021, 1.81755, 0.154216, 206.456, 0, 0, 0, -0.0878906, 0.34375, -9.74121, 1.18.2022 18:55:51.453
1022, 1.81755, 0.154216, 206.456, 0, 0, 0, -0.0449219, 0.30957, -9.71973, 1.18.2022 18:55:51.461
1023, 1.81755, 0.154216, 206.456, -0.000976562, -0.000976562, 0, -0.0195312, 0.305664, -9.75977, 1.18.2022 18:55:51.469
1024, 1.81755, 0.154216, 206.456, -0.000976562, 0, 0, -0.0644531, 0.317383, -9.75, 1.18.2022 18:55:51.477
1025, 1.81755, 0.154216, 206.456, -0.000976562, 0, 0, 0.0234375, 0.27832, -9.75, 1.18.2022 18:55:51.485
1026, 1.81723, 0.154199, 206.457, -0.000976562, 0, 0, -0.0371094, 0.308594, -9.69141, 1.18.2022 18:55:51.493
1027, 1.81723, 0.154199, 206.457, -0.000976562, 0, 0, -0.0537109, 0.352539, -9.72266, 1.18.2022 18:55:51.501
1028, 1.81723, 0.154199, 206.457, -0.00195312, 0, 0.000976562, -0.00390625, 0.296875, -9.7207, 1.18.2022 18:55:51.509
1029, 1.81723, 0.154199, 206.457, -0.000976562, 0, 0, -0.0800781, 0.304688, -9.72168, 1.18.2022 18:55:51.517
1030, 1.81723, 0.154199, 206.457, -0.000976562, -0.000976562, 0.000976562, -0.0400391, 0.326172, -9.74512, 1.18.2022 18:55:51.525
1031, 1.81723, 0.154199, 206.457, -0.000976562, 0, 0.000976562, 0, 0.271484, -9.75, 1.18.2022 18:55:51.533
1032, 1.81723, 0.154199, 206.457, -0.00195312, 0, -0.000976562, -0.0712891, 0.319336, -9.75195, 1.18.2022 18:55:51.541
1033, 1.81723, 0.154199, 206.457, -0.000976562, 0, -0.00195312, 0.00292969, 0.271484, -9.74219, 1.18.2022 18:55:51.549
1034, 1.81723, 0.154199, 206.457, -0.000976562, 0, -0.000976562, -0.0400391, 0.305664, -9.75293, 1.18.2022 18:55:51.557
1035, 1.81723, 0.154199, 206.457, -0.00195312, 0, -0.000976562, -0.0712891, 0.323242, -9.7207, 1.18.2022 18:55:51.565
1036, 1.81723, 0.154199, 206.457, -0.000976562, 0, -0.00195312, 0.0136719, 0.303711, -9.76758, 1.18.2022 18:55:51.573
1037, 1.81755, 0.154216, 206.456, -0.000976562, 0.000976562, 0, -0.0488281, 0.287109, -9.7959, 1.18.2022 18:55:51.581
1038, 1.81755, 0.154216, 206.456, -0.000976562, 0, 0.000976562, -0.0224609, 0.305664, -9.69434, 1.18.2022 18:55:51.589
1039, 1.81755, 0.154216, 206.456, -0.000976562, 0, -0.000976562, -0.00878906, 0.282227, -9.71387, 1.18.2022 18:55:51.597
1040, 1.81747, 0.154326, 206.464, -0.000976562, 0, -0.00195312, -0.0546875, 0.331055, -9.72363, 1.18.2022 18:55:51.605
1041, 1.81747, 0.154326, 206.464, -0.000976562, -0.000976562, -0.000976562, -0.00195312, 0.30957, -9.72754, 1.18.2022 18:55:51.613
1042, 1.81747, 0.154326, 206.464, -0.000976562, -0.000976562, -0.000976562, -0.0283203, 0.304688, -9.72266, 1.18.2022 18:55:51.621
1043, 1.81747, 0.154326, 206.464, -0.000976562, 0, -0.000976562, -0.0683594, 0.323242, -9.72363, 1.18.2022 18:55:51.629
1044, 1.81747, 0.154326, 206.464, -0.000976562, 0, 0.000976562, 0.0292969, 0.306641, -9.73535, 1.18.2022 18:55:51.637
