Seq, Rot x, Rot y, Rot z, Vel x, Vel y, Vel z, Acc x, Acc y, Acc z, Time(m.d.y h:m:s.ms)
0, 1.68649, 0.401482, 90.0625, -0.000976562, 0, -0.000976562, -0.0839844, 0.289062, -9.75977, 1.18.2022 20:55:26.188
1, 1.68649, 0.401482, 90.0625, 0, 0, 0.000976562, -0.0830078, 0.291016, -9.74512, 1.18.2022 20:55:26.194
2, 1.68649, 0.401482, 90.0625, 0, 0.000976562, -0.000976562, -0.0166016, 0.256836, -9.7334, 1.18.2022 20:55:26.202
3, 1.68649, 0.401482, 90.0625, -0.000976562, 0, -0.00195312, -0.0908203, 0.295898, -9.74805, 1.18.2022 20:55:26.210
4, 1.69144, 0.39654, 90.0625, -0.000976562, -0.000976562, -0.00195312, -0.0517578, 0.280273, -9.71777, 1.18.2022 20:55:26.218
5, 1.69144, 0.39654, 90.0625, -0.000976562, -0.000976562, -0.000976562, -0.0693359, 0.261719, -9.74609, 1.18.2022 20:55:26.226
6, 1.69144, 0.39654, 90.0625, 0, -0.000976562, 0.000976562, -0.106445, 0.301758, -9.70703, 1.18.2022 20:55:26.234
7, 1.69144, 0.39654, 90.0625, 0, -0.000976562, 0.000976562, -0.0332031, 0.297852, -9.73633, 1.18.2022 20:55:26.242
8, 1.69144, 0.39654, 90.0625, 0, -0.000976562, 0.000976562, -0.0644531, 0.276367, -9.73242, 1.18.2022 20:55:26.250
9, 1.69167, 0.39645, 90.0625, 0, -0.000976562, 0.000976562, -0.121094, 0.311523, -9.70605, 1.18.2022 20:55:26.258
10, 1.69167, 0.39645, 90.0625, 0, -0.000976562, -0.000976562, -0.0654297, 0.279297, -9.68652, 1.18.2022 20:55:26.266
11, 1.69661, 0.401397, 90.0623, -0.000976562, -0.000976562, 0, -0.119141, 0.302734, -9.72754, 1.18.2022 20:55:26.274
12, 1.69661, 0.401397, 90.0623, 0, 0, 0, -0.0859375, 0.292969, -9.74316, 1.18.2022 20:55:26.282
13, 1.69661, 0.401397, 90.0623, -0.000976562, -0.000976562, 0, -0.0166016, 0.276367, -9.75879, 1.18.2022 20:55:26.290
14, 1.69661, 0.401397, 90.0623, -0.000976562, 0, 0, -0.114258, 0.316406, -9.73047, 1.18.2022 20:55:26.298
15, 1.69661, 0.401397, 90.0623, -0.000976562, -0.000976562, 0, -0.0380859, 0.28418, -9.75781, 1.18.2022 20:55:26.306
16, 1.69661, 0.401397, 90.0623, -0.000976562, -0.000976562, 0, -0.0224609, 0.267578, -9.69238, 1.18.2022 20:55:26.314
17, 1.69661, 0.401397, 90.0623, -0.000976562, 0, 0, -0.0947266, 0.308594, -9.71191, 1.18.2022 20:55:26.322
18, 1.69661, 0.401397, 90.0623, -0.000976562, -0.000976562, 0, -0.00683594, 0.280273, -9.72363, 1.18.2022 20:55:26.330
19, 1.69661, 0.401397, 90.0623, 0, -0.000976562, -0.000976562, -0.0683594, 0.304688, -9.72363, 1.18.2022 20:55:26.338
20, 1.69661, 0.401397, 90.0623, 0, -0.000976562, 0.000976562, -0.0947266, 0.294922, -9.72656, 1.18.2022 20:55:26.346
21, 1.69661, 0.401397, 90.0623, -0.000976562, 0, 0, -0.03125, 0.264648, -9.74219, 1.18.2022 20:55:26.354
22, 1.69661, 0.401397, 90.0623, -0.000976562, -0.000976562, -0.00195312, -0.107422, 0.288086, -9.7334, 1.18.2022 20:55:26.362
23, 1.69661, 0.401397, 90.0623, 0, -0.000976562, 0, -0.0546875, 0.294922, -9.73828, 1.18.2022 20:55:26.370
24, 1.69661, 0.401397, 90.0623, 0, -0.000976562, 0, -0.0458984, 0.289062, -9.77246, 1.18.2022 20:55:26.378
25, 1.69661, 0.401397, 90.0623, 0, 0, 0, -0.106445, 0.288086, -9.72363, 1.18.2022 20:55:26.386
26, 1.69661, 0.401397, 90.0623, -0.000976562, 0, 0, -0.0234375, 0.270508, -9.7041, 1.18.2022 20:55:26.394
27, 1.69661, 0.401397, 90.0623, -0.000976562, -0.000976562, 0, -0.0859375, 0.266602, -9.73926, 1.18.2022 20:55:26.402
28, 1.69661, 0.401397, 90.0623, -0.000976562, 0, 0, -0.0712891, 0.295898, -9.74121, 1.18.2022 20:55:26.410
29, 1.69661, 0.401397, 90.0623, -0.000976562, 0, 0, -0.00683594, 0.251953, -9.71484, 1.18.2022 20:55:26.418
30, 1.69661, 0.401397, 90.0623, -0.000976562, -0.000976562, 0, -0.114258, 0.290039, -9.72363, 1.18.2022 20:55:26.426
31, 1.70156, 0.396455, 90.0623, -0.000976562, -0.000976562, 0, -0.0429688, 0.256836, -9.72559, 1.18.2022 20:55:26.434
32, 1.70156, 0.396455, 90.0623, -0.000976562, -0.000976562, 0, -0.0361328, 0.248047, -9.75684, 1.18.2022 20:55:26.442
33, 1.70156, 0.396455, 90.0623, 0, -0.000976562, -0.000976562, -0.109375, 0.302734, -9.74512, 1.18.2022 20:55:26.450
34, 1.69167, 0.39645, 90.0625, -0.000976562, -0.000976562, 0, -0.0175781, 0.28418, -9.7793, 1.18.2022 20:55:26.458
35, 1.69167, 0.39645, 90.0625, -0.000976562, -0.000976562, 0, -0.078125, 0.276367, -9.74805, 1.18.2022 20:55:26.466
36, 1.69167, 0.39645, 90.0625, 0, 0, 0, -0.104492, 0.331055, -9.7373, 1.18.2022 20:55:26.474
37, 1.69167, 0.39645, 90.0625, 0, 0, -0.00195312, -0.0283203, 0.291016, -9.74414, 1.18.2022 20:55:26.482
38, 1.69167, 0.39645, 90.0625, 0, -0.000976562, -0.000976562, -0.0996094, 0.297852, -9.75, 1.18.2022 20:55:26.490
39, 1.69167, 0.39645, 90.0625, -0.000976562, 0, 0.000976562, -0.0625, 0.298828, -9.7666, 1.18.2022 20:55:26.498
40, 1.69168, 0.38656, 90.0626, -0.000976562, 0, -0.000976562, -0.0283203, 0.259766, -9.75, 1.18.2022 20:55:26.506
41, 1.69168, 0.38656, 90.0626, 0, -0.000976562, -0.000976562, -0.121094, 0.314453, -9.73047, 1.18.2022 20:55:26.514
42, 1.69168, 0.38656, 90.0626, -0.00195312, -0.000976562, -0.000976562, -0.0332031, 0.286133, -9.74414, 1.18.2022 20:55:26.522
43, 1.69168, 0.38656, 90.0626, -0.000976562, 0, -0.000976562, -0.0673828, 0.259766, -9.6709, 1.18.2022 20:55:26.530
44, 1.69168, 0.38656, 90.0626, 0, -0.000976562, -0.000976562, -0.0917969, 0.285156, -9.70996, 1.18.2022 20:55:26.538
45, 1.69168, 0.38656, 90.0626, -0.000976562, 0, -0.000976562, -0.0302734, 0.27832, -9.73438, 1.18.2022 20:55:26.546
46, 1.69168, 0.38656, 90.0626, 0, 0.000976562, -0.000976562, -0.103516, 0.296875, -9.79883, 1.18.2022 20:55:26.554
47, 1.69168, 0.38656, 90.0626, -0.000976562, 0, -0.000976562, -0.0878906, 0.292969, -9.75195, 1.18.2022 20:55:26.562
48, 1.69168, 0.38656, 90.0626, 0, -0.000976562, -0.000976562, -0.0644531, 0.279297, -9.74805, 1.18.2022 20:55:26.570
49, 1.69168, 0.38656, 90.0626, 0, -0.00195312, -0.000976562, -0.124023, 0.30957, -9.74414, 1.18.2022 20:55:26.578
50, 1.69168, 0.38656, 90.0626, 0, -0.000976562, 0.000976562, -0.0429688, 0.314453, -9.7334, 1.18.2022 20:55:26.586
51, 1.69168, 0.38656, 90.0626, -0.000976562, 0, -0.000976562, -0.0742188, 0.300781, -9.75977, 1.18.2022 20:55:26.594
52, 1.69168, 0.38656, 90.0626, -0.000976562, 0, -0.000976562, -0.0566406, 0.283203, -9.73926, 1.18.2022 20:55:26.602
53, 1.69168, 0.38656, 90.0626, 0, -0.000976562, -0.000976562, -0.03125, 0.272461, -9.77539, 1.18.2022 20:55:26.610
54, 1.69168, 0.38656, 90.0626, -0.000976562, -0.000976562, -0.000976562, -0.0888672, 0.289062, -9.77148, 1.18.2022 20:55:26.618
55, 1.69168, 0.38656, 90.0626, -0.000976562, -0.000976562, -0.000976562, -0.0810547, 0.305664, -9.75, 1.18.2022 20:55:26.626
56, 1.69168, 0.38656, 90.0626, 0, -0.000976562, -0.00195312, -0.0166016, 0.282227, -9.77051, 1.18.2022 20:55:26.634
57, 1.69168, 0.38656, 90.0626, -0.000976562, -0.000976562, -0.000976562, -0.12793, 0.318359, -9.71777, 1.18.2022 20:55:26.642
58, 1.69168, 0.38656, 90.0626, -0.000976562, -0.000976562, -0.000976562, -0.0566406, 0.297852, -9.74609, 1.18.2022 20:55:26.650
59, 1.69168, 0.38656, 90.0626, 0, 0, -0.000976562, -0.0566406, 0.256836, -9.72754, 1.18.2022 20:55:26.658
60, 1.69168, 0.38656, 90.0626, 0, 0, -0.00195312, -0.130859, 0.327148, -9.76465, 1.18.2022 20:55:26.664
61, 1.69144, 0.38665, 90.0626, -0.000976562, -0.000976562, -0.000976562, -0.0400391, 0.275391, -9.71094, 1.18.2022 20:55:26.672
62, 1.69662, 0.391507, 90.0625, -0.000976562, -0.000976562, 0.000976562, -0.078125, 0.290039, -9.70996, 1.18.2022 20:55:26.680
63, 1.69662, 0.391507, 90.0625, -0.000976562, -0.000976562, -0.000976562, -0.0898438, 0.290039, -9.7334, 1.18.2022 20:55:26.688
64, 1.69662, 0.391507, 90.0625, 0, 0, -0.000976562, -0.00878906, 0.27832, -9.7207, 1.18.2022 20:55:26.696
65, 1.69662, 0.391507, 90.0625, 0, 0, -0.000976562, -0.109375, 0.310547, -9.76562, 1.18.2022 20:55:26.704
66, 1.69662, 0.391507, 90.0625, 0, -0.000976562, -0.000976562, -0.0947266, 0.300781, -9.74512, 1.18.2022 20:55:26.712
67, 1.69662, 0.391507, 90.0625, -0.000976562, 0, -0.000976562, -0.0380859, 0.256836, -9.7207, 1.18.2022 20:55:26.720
68, 1.69662, 0.391507, 90.0625, -0.00195312, -0.000976562, -0.000976562, -0.162109, 0.288086, -9.73242, 1.18.2022 20:55:26.728
69, 1.70156, 0.396455, 90.0623, -0.00195312, 0, -0.000976562, -0.0371094, 0.289062, -9.69922, 1.18.2022 20:55:26.736
70, 1.70156, 0.396455, 90.0623, -0.000976562, 0, -0.000976562, -0.0693359, 0.275391, -9.77637, 1.18.2022 20:55:26.744
71, 1.70156, 0.396455, 90.0623, -0.000976562, 0, -0.000976562, -0.116211, 0.292969, -9.74023, 1.18.2022 20:55:26.752
72, 1.70156, 0.396455, 90.0623, -0.000976562, 0, -0.000976562, -0.0234375, 0.261719, -9.73047, 1.18.2022 20:55:26.760
73, 1.70156, 0.396455, 90.0623, -0.000976562, 0, -0.000976562, -0.114258, 0.307617, -9.73047, 1.18.2022 20:55:26.768
74, 1.70156, 0.396455, 90.0623, -0.000976562, -0.000976562, -0.000976562, -0.0683594, 0.319336, -9.72559, 1.18.2022 20:55:26.776
75, 1.70156, 0.396455, 90.0623, -0.000976562, -0.000976562, -0.000976562, -0.0292969, 0.277344, -9.77246, 1.18.2022 20:55:26.784
76, 1.7065, 0.401402, 90.0621, -0.000976562, -0.000976562, -0.000976562, -0.119141, 0.286133, -9.74707, 1.18.2022 20:55:26.792
77, 1.7065, 0.401402, 90.0621, -0.000976562, -0.000976562, -0.000976562, -0.0498047, 0.27832, -9.73242, 1.18.2022 20:55:26.800
78, 1.70132, 0.406435, 90.0621, 0, -0.000976562, -0.000976562, -0.0693359, 0.27832, -9.73926, 1.18.2022 20:55:26.808
79, 1.70132, 0.406435, 90.0621, -0.000976562, -0.000976562, -0.00195312, -0.121094, 0.3125, -9.73926, 1.18.2022 20:55:26.816
80, 1.70132, 0.406435, 90.0621, 0, -0.000976562, -0.000976562, -0.0117188, 0.250977, -9.76465, 1.18.2022 20:55:26.824
81, 1.70132, 0.406435, 90.0621, -0.000976562, 0, -0.000976562, -0.0859375, 0.28418, -9.77148, 1.18.2022 20:55:26.832
82, 1.70132, 0.406435, 90.0621, 0, 0, -0.000976562, -0.0957031, 0.295898, -9.75684, 1.18.2022 20:55:26.840
83, 1.70132, 0.406435, 90.0621, 0, -0.000976562, -0.000976562, -0.0429688, 0.245117, -9.74023, 1.18.2022 20:55:26.848
84, 1.70132, 0.406435, 90.0621, -0.000976562, -0.000976562, 0.000976562, -0.111328, 0.292969, -9.72363, 1.18.2022 20:55:26.856
85, 1.70132, 0.406435, 90.0621, -0.000976562, -0.000976562, -0.000976562, -0.0429688, 0.268555, -9.73047, 1.18.2022 20:55:26.864
86, 1.69637, 0.411377, 90.0621, 0, -0.000976562, -0.000976562, -0.0380859, 0.286133, -9.7373, 1.18.2022 20:55:26.872
87, 1.69637, 0.411377, 90.0621, -0.000976562, -0.000976562, -0.000976562, -0.114258, 0.302734, -9.73535, 1.18.2022 20:55:26.880
88, 1.69637, 0.411377, 90.0621, 0, 0, -0.000976562, -0.0185547, 0.30957, -9.75293, 1.18.2022 20:55:26.888
89, 1.69637, 0.411377, 90.0621, 0, 0, 0.000976562, -0.0810547, 0.292969, -9.73633, 1.18.2022 20:55:26.896
90, 1.69661, 0.411286, 90.0621, -0.000976562, 0.000976562, 0, -0.109375, 0.297852, -9.75391, 1.18.2022 20:55:26.904
91, 1.69661, 0.411286, 90.0621, -0.000976562, -0.000976562, -0.000976562, -0.0400391, 0.27832, -9.72559, 1.18.2022 20:55:26.912
92, 1.69661, 0.411286, 90.0621, -0.000976562, -0.000976562, -0.000976562, -0.140625, 0.295898, -9.76562, 1.18.2022 20:55:26.920
93, 1.69661, 0.411286, 90.0621, -0.000976562, 0, 0.000976562, -0.0712891, 0.314453, -9.73828, 1.18.2022 20:55:26.928
94, 1.69661, 0.411286, 90.0621, -0.000976562, -0.00195312, 0.000976562, -0.0146484, 0.274414, -9.76074, 1.18.2022 20:55:26.936
95, 1.69661, 0.411286, 90.0621, -0.000976562, 0, -0.000976562, -0.104492, 0.28125, -9.73145, 1.18.2022 20:55:26.944
96, 1.69661, 0.411286, 90.0621, 0, -0.000976562, -0.000976562, -0.0283203, 0.25293, -9.75, 1.18.2022 20:55:26.952
97, 1.69661, 0.411286, 90.0621, -0.000976562, -0.00195312, -0.00195312, -0.0556641, 0.31543, -9.77832, 1.18.2022 20:55:26.960
98, 1.69661, 0.411286, 90.0621, -0.000976562, 0.000976562, -0.00195312, -0.0712891, 0.297852, -9.72852, 1.18.2022 20:55:26.968
99, 1.69637, 0.411377, 90.0621, -0.000976562, 0, -0.000976562, -0.0185547, 0.264648, -9.74707, 1.18.2022 20:55:26.976
100, 1.69637, 0.411377, 90.0621, -0.000976562, -0.000976562, -0.000976562, -0.130859, 0.306641, -9.71582, 1.18.2022 20:55:26.984
101, 1.69661, 0.411286, 90.0621, 0, 0, 0.000976562, -0.0615234, 0.287109, -9.71094, 1.18.2022 20:55:26.992
102, 1.69661, 0.411286, 90.0621, 0, -0.000976562, -0.000976562, -0.00683594, 0.283203, -9.73242, 1.18.2022 20:55:27.000
103, 1.69661, 0.411286, 90.0621, 0, -0.000976562, -0.000976562, -0.116211, 0.299805, -9.72363, 1.18.2022 20:55:27.008
104, 1.69637, 0.411377, 90.0621, 0, -0.00195312, -0.00195312, -0.0449219, 0.291992, -9.70801, 1.18.2022 20:55:27.016
105, 1.69637, 0.411377, 90.0621, -0.000976562, 0, -0.000976562, -0.0517578, 0.258789, -9.73047, 1.18.2022 20:55:27.024
106, 1.69637, 0.411377, 90.0621, -0.000976562, 0, -0.000976562, -0.103516, 0.327148, -9.67578, 1.18.2022 20:55:27.032
107, 1.69637, 0.411377, 90.0621, 0, -0.000976562, -0.000976562, -0.0244141, 0.28125, -9.76074, 1.18.2022 20:55:27.040
108, 1.69637, 0.411377, 90.0621, -0.000976562, 0, 0.000976562, -0.0878906, 0.271484, -9.73926, 1.18.2022 20:55:27.048
109, 1.69661, 0.411286, 90.0621, -0.000976562, 0, -0.000976562, -0.0986328, 0.272461, -9.69141, 1.18.2022 20:55:27.056
110, 1.69661, 0.411286, 90.0621, -0.000976562, 0, -0.000976562, -0.0195312, 0.254883, -9.75488, 1.18.2022 20:55:27.064
111, 1.69167, 0.406339, 90.0623, -0.000976562, -0.000976562, -0.000976562, -0.104492, 0.273438, -9.7168, 1.18.2022 20:55:27.072
112, 1.69167, 0.406339, 90.0623, -0.000976562, -0.000976562, -0.000976562, -0.0664062, 0.269531, -9.74902, 1.18.2022 20:55:27.080
113, 1.69167, 0.406339, 90.0623, -0.000976562, -0.000976562, -0.000976562, -0.0234375, 0.27832, -9.74219, 1.18.2022 20:55:27.088
114, 1.69143, 0.40643, 90.0623, 0, -0.000976562, -0.00195312, -0.116211, 0.328125, -9.71094, 1.18.2022 20:55:27.096
115, 1.69143, 0.40643, 90.0623, 0, -0.000976562, -0.000976562, -0.0117188, 0.300781, -9.7627, 1.18.2022 20:55:27.104
116, 1.69143, 0.40643, 90.0623, -0.000976562, 0, -0.000976562, -0.0615234, 0.291016, -9.74609, 1.18.2022 20:55:27.112
117, 1.69638, 0.401487, 90.0623, -0.000976562, 0, -0.000976562, -0.0957031, 0.303711, -9.7666, 1.18.2022 20:55:27.120
118, 1.69638, 0.401487, 90.0623, -0.000976562, 0, -0.000976562, -0.0126953, 0.279297, -9.77734, 1.18.2022 20:55:27.128
119, 1.69638, 0.401487, 90.0623, -0.000976562, 0, 0.000976562, -0.0908203, 0.300781, -9.74707, 1.18.2022 20:55:27.136
120, 1.69144, 0.39654, 90.0625, -0.000976562, 0, -0.000976562, -0.0664062, 0.295898, -9.74121, 1.18.2022 20:55:27.144
121, 1.69144, 0.39654, 90.0625, 0, -0.000976562, -0.000976562, -0.0283203, 0.255859, -9.71387, 1.18.2022 20:55:27.152
122, 1.69144, 0.39654, 90.0625, 0, 0, -0.000976562, -0.113281, 0.291992, -9.69336, 1.18.2022 20:55:27.160
123, 1.69144, 0.39654, 90.0625, -0.000976562, -0.000976562, -0.000976562, -0.046875, 0.280273, -9.72266, 1.18.2022 20:55:27.168
124, 1.69144, 0.39654, 90.0625, -0.000976562, -0.000976562, -0.000976562, -0.0820312, 0.287109, -9.69824, 1.18.2022 20:55:27.176
125, 1.69144, 0.39654, 90.0625, 0, -0.000976562, -0.000976562, -0.116211, 0.3125, -9.74707, 1.18.2022 20:55:27.184
126, 1.69144, 0.39654, 90.0625, -0.000976562, -0.000976562, -0.000976562, -0.00195312, 0.280273, -9.72852, 1.18.2022 20:55:27.192
127, 1.69144, 0.39654, 90.0625, -0.000976562, -0.000976562, -0.000976562, -0.104492, 0.297852, -9.75391, 1.18.2022 20:55:27.200
128, 1.69144, 0.39654, 90.0625, -0.000976562, -0.000976562, -0.000976562, -0.0830078, 0.297852, -9.74805, 1.18.2022 20:55:27.208
129, 1.69638, 0.391597, 90.0625, -0.000976562, 0, -0.00195312, -0.0507812, 0.243164, -9.76855, 1.18.2022 20:55:27.216
130, 1.69638, 0.391597, 90.0625, -0.000976562, 0, -0.000976562, -0.124023, 0.266602, -9.73145, 1.18.2022 20:55:27.224
131, 1.69638, 0.391597, 90.0625, -0.000976562, -0.000976562, -0.000976562, -0.0449219, 0.28125, -9.73242, 1.18.2022 20:55:27.232
132, 1.69638, 0.391597, 90.0625, 0, -0.000976562, -0.000976562, -0.0742188, 0.292969, -9.75, 1.18.2022 20:55:27.240
133, 1.69638, 0.391597, 90.0625, -0.000976562, -0.000976562, -0.00195312, -0.102539, 0.328125, -9.77734, 1.18.2022 20:55:27.248
134, 1.69638, 0.391597, 90.0625, -0.000976562, -0.000976562, 0, 0.00390625, 0.285156, -9.80371, 1.18.2022 20:55:27.256
135, 1.69638, 0.391597, 90.0625, -0.000976562, -0.000976562, -0.00195312, -0.0742188, 0.254883, -9.75879, 1.18.2022 20:55:27.264
136, 1.69144, 0.39654, 90.0625, -0.000976562, -0.000976562, 0, -0.0859375, 0.297852, -9.73828, 1.18.2022 20:55:27.272
137, 1.69144, 0.39654, 90.0625, -0.000976562, -0.000976562, 0, -0.0527344, 0.257812, -9.77246, 1.18.2022 20:55:27.280
138, 1.69144, 0.39654, 90.0625, -0.000976562, 0.000976562, 0.000976562, -0.121094, 0.301758, -9.72363, 1.18.2022 20:55:27.288
139, 1.69144, 0.39654, 90.0625, -0.000976562, -0.000976562, 0, -0.0605469, 0.277344, -9.78906, 1.18.2022 20:55:27.296
140, 1.69144, 0.39654, 90.0625, -0.000976562, 0, 0.000976562, -0.0351562, 0.258789, -9.72852, 1.18.2022 20:55:27.304
141, 1.69144, 0.39654, 90.0625, -0.00195312, 0, 0, -0.106445, 0.3125, -9.73535, 1.18.2022 20:55:27.312
142, 1.69144, 0.39654, 90.0625, 0, 0, 0, -0.0234375, 0.288086, -9.75098, 1.18.2022 20:55:27.320
143, 1.69144, 0.39654, 90.0625, -0.000976562, -0.000976562, 0, -0.0878906, 0.27832, -9.72461, 1.18.2022 20:55:27.328
144, 1.69144, 0.39654, 90.0625, -0.000976562, 0, 0, -0.0908203, 0.279297, -9.75488, 1.18.2022 20:55:27.336
145, 1.69144, 0.39654, 90.0625, -0.000976562, 0, 0, -0.0234375, 0.268555, -9.73242, 1.18.2022 20:55:27.344
146, 1.6865, 0.391592, 90.0626, -0.000976562, 0, 0, -0.0927734, 0.290039, -9.7168, 1.18.2022 20:55:27.352
147, 1.6865, 0.391592, 90.0626, -0.000976562, 0, 0, -0.0878906, 0.289062, -9.75684, 1.18.2022 20:55:27.360
148, 1.6865, 0.391592, 90.0626, -0.000976562, -0.000976562, 0, -0.0419922, 0.265625, -9.71875, 1.18.2022 20:55:27.368
149, 1.6865, 0.391592, 90.0626, -0.000976562, 0, 0, -0.104492, 0.302734, -9.74512, 1.18.2022 20:55:27.376
150, 1.6865, 0.391592, 90.0626, -0.000976562, 0, 0, -0.0322266, 0.291992, -9.71289, 1.18.2022 20:55:27.384
151, 1.6865, 0.391592, 90.0626, 0, -0.000976562, 0, -0.0751953, 0.291992, -9.70508, 1.18.2022 20:55:27.392
152, 1.6865, 0.391592, 90.0626, -0.000976562, 0, 0, -0.118164, 0.298828, -9.68555, 1.18.2022 20:55:27.400
153, 1.6865, 0.391592, 90.0626, -0.000976562, 0, 0, -0.0117188, 0.305664, -9.75098, 1.18.2022 20:55:27.408
154, 1.6865, 0.391592, 90.0626, 0, 0, 0, -0.0810547, 0.299805, -9.74023, 1.18.2022 20:55:27.416
155, 1.6865, 0.391592, 90.0626, 0, -0.000976562, 0, -0.0683594, 0.314453, -9.72363, 1.18.2022 20:55:27.424
156, 1.6865, 0.391592, 90.0626, -0.000976562, -0.000976562, 0, -0.0546875, 0.274414, -9.75098, 1.18.2022 20:55:27.432
157, 1.6865, 0.391592, 90.0626, 0, 0, 0, -0.112305, 0.336914, -9.75098, 1.18.2022 20:55:27.440
158, 1.6865, 0.391592, 90.0626, 0, -0.000976562, 0.000976562, -0.0498047, 0.306641, -9.72656, 1.18.2022 20:55:27.448
159, 1.68673, 0.391502, 90.0626, 0, -0.00195312, 0, -0.0664062, 0.28125, -9.74805, 1.18.2022 20:55:27.456
160, 1.69167, 0.39645, 90.0625, -0.000976562, -0.000976562, 0, -0.118164, 0.301758, -9.7207, 1.18.2022 20:55:27.464
161, 1.69167, 0.39645, 90.0625, -0.000976562, 0, 0, -0.0283203, 0.263672, -9.72559, 1.18.2022 20:55:27.472
162, 1.69167, 0.39645, 90.0625, 0, -0.000976562, 0, -0.104492, 0.289062, -9.75488, 1.18.2022 20:55:27.480
163, 1.69167, 0.39645, 90.0625, 0, -0.000976562, 0, -0.0996094, 0.292969, -9.72168, 1.18.2022 20:55:27.488
164, 1.69167, 0.39645, 90.0625, -0.000976562, -0.000976562, 0, -0.0410156, 0.276367, -9.75391, 1.18.2022 20:55:27.496
165, 1.69167, 0.39645, 90.0625, 0, -0.000976562, 0, -0.124023, 0.298828, -9.76367, 1.18.2022 20:55:27.504
166, 1.69167, 0.39645, 90.0625, -0.000976562, -0.000976562, -0.000976562, -0.0449219, 0.28125, -9.75293, 1.18.2022 20:55:27.512
167, 1.69661, 0.401397, 90.0623, -0.000976562, 0, -0.000976562, -0.0361328, 0.279297, -9.7627, 1.18.2022 20:55:27.520
168, 1.69661, 0.401397, 90.0623, -0.00195312, 0, -0.000976562, -0.102539, 0.302734, -9.74023, 1.18.2022 20:55:27.528
169, 1.69661, 0.401397, 90.0623, -0.000976562, -0.00195312, -0.00195312, -0.0302734, 0.283203, -9.71777, 1.18.2022 20:55:27.536
170, 1.69638, 0.401487, 90.0623, 0, -0.000976562, -0.000976562, -0.0791016, 0.296875, -9.77344, 1.18.2022 20:55:27.544
171, 1.69638, 0.401487, 90.0623, 0, -0.000976562, -0.000976562, -0.0839844, 0.306641, -9.78711, 1.18.2022 20:55:27.552
172, 1.69638, 0.401487, 90.0623, -0.000976562, -0.000976562, -0.00195312, 0.0078125, 0.285156, -9.73535, 1.18.2022 20:55:27.560
173, 1.69638, 0.401487, 90.0623, -0.000976562, 0, -0.000976562, -0.0732422, 0.306641, -9.71484, 1.18.2022 20:55:27.568
174, 1.69638, 0.401487, 90.0623, 0, 0, -0.000976562, -0.0761719, 0.290039, -9.72656, 1.18.2022 20:55:27.576
175, 1.70132, 0.406435, 90.0621, -0.000976562, -0.000976562, -0.000976562, -0.0400391, 0.261719, -9.74414, 1.18.2022 20:55:27.584
176, 1.70132, 0.406435, 90.0621, 0, -0.00195312, -0.000976562, -0.119141, 0.3125, -9.73926, 1.18.2022 20:55:27.592
177, 1.70132, 0.406435, 90.0621, -0.000976562, 0, -0.00195312, -0.0302734, 0.294922, -9.73926, 1.18.2022 20:55:27.600
178, 1.70132, 0.406435, 90.0621, -0.000976562, -0.000976562, -0.000976562, -0.0546875, 0.271484, -9.75391, 1.18.2022 20:55:27.608
179, 1.70626, 0.401493, 90.0621, -0.000976562, -0.000976562, -0.000976562, -0.0927734, 0.304688, -9.72168, 1.18.2022 20:55:27.616
180, 1.70626, 0.401493, 90.0621, -0.000976562, -0.000976562, 0.000976562, -0.0429688, 0.266602, -9.75195, 1.18.2022 20:55:27.624
181, 1.70626, 0.401493, 90.0621, 0, -0.000976562, 0, -0.123047, 0.275391, -9.7168, 1.18.2022 20:55:27.632
182, 1.70626, 0.401493, 90.0621, 0, 0, -0.000976562, -0.0634766, 0.290039, -9.71973, 1.18.2022 20:55:27.640
183, 1.70626, 0.401493, 90.0621, 0, -0.000976562, -0.000976562, -0.0410156, 0.275391, -9.80566, 1.18.2022 20:55:27.646
184, 1.70626, 0.401493, 90.0621, -0.000976562, -0.000976562, -0.000976562, -0.119141, 0.299805, -9.7373, 1.18.2022 20:55:27.654
185, 1.70626, 0.401493, 90.0621, 0, 0, -0.000976562, -0.0361328, 0.302734, -9.75977, 1.18.2022 20:55:27.662
186, 1.70626, 0.401493, 90.0621, -0.000976562, 0, -0.000976562, -0.0732422, 0.271484, -9.73926, 1.18.2022 20:55:27.670
187, 1.70626, 0.401493, 90.0621, -0.00195312, -0.000976562, -0.000976562, -0.0976562, 0.314453, -9.74414, 1.18.2022 20:55:27.678
188, 1.70626, 0.401493, 90.0621, -0.000976562, -0.000976562, -0.000976562, -0.0166016, 0.255859, -9.76855, 1.18.2022 20:55:27.686
189, 1.70626, 0.401493, 90.0621, -0.000976562, -0.000976562, 0.000976562, -0.0712891, 0.28125, -9.73926, 1.18.2022 20:55:27.694
190, 1.70626, 0.401493, 90.0621, -0.000976562, -0.000976562, -0.000976562, -0.104492, 0.297852, -9.7334, 1.18.2022 20:55:27.702
191, 1.70626, 0.401493, 90.0621, -0.000976562, -0.000976562, 0.000976562, 0.0195312, 0.269531, -9.74805, 1.18.2022 20:55:27.710
192, 1.7065, 0.401402, 90.0621, -0.000976562, 0, -0.000976562, -0.104492, 0.327148, -9.75098, 1.18.2022 20:55:27.718
193, 1.7065, 0.401402, 90.0621, -0.000976562, 0, -0.000976562, -0.0449219, 0.297852, -9.72949, 1.18.2022 20:55:27.726
194, 1.70156, 0.396455, 90.0623, -0.000976562, 0, 0.000976562, -0.0449219, 0.265625, -9.70703, 1.18.2022 20:55:27.734
195, 1.70156, 0.396455, 90.0623, 0, -0.000976562, 0, -0.121094, 0.304688, -9.73047, 1.18.2022 20:55:27.742
196, 1.70156, 0.396455, 90.0623, -0.000976562, 0, -0.000976562, -0.00683594, 0.277344, -9.71387, 1.18.2022 20:55:27.750
197, 1.70156, 0.396455, 90.0623, -0.000976562, 0, -0.000976562, -0.0908203, 0.291016, -9.7666, 1.18.2022 20:55:27.758
198, 1.70156, 0.396455, 90.0623, -0.000976562, -0.000976562, -0.00195312, -0.0878906, 0.297852, -9.74707, 1.18.2022 20:55:27.766
199, 1.70156, 0.396455, 90.0623, 0, -0.00195312, -0.00195312, -0.00683594, 0.270508, -9.7168, 1.18.2022 20:55:27.774
200, 1.70132, 0.396545, 90.0623, -0.000976562, -0.000976562, -0.000976562, -0.0996094, 0.270508, -9.70801, 1.18.2022 20:55:27.782
201, 1.70132, 0.396545, 90.0623, -0.000976562, -0.000976562, -0.000976562, -0.0742188, 0.276367, -9.75586, 1.18.2022 20:55:27.790
202, 1.70627, 0.391603, 90.0623, -0.000976562, 0, -0.000976562, -0.0410156, 0.246094, -9.76855, 1.18.2022 20:55:27.798
203, 1.70651, 0.391512, 90.0623, -0.000976562, -0.000976562, 0.000976562, -0.125977, 0.264648, -9.74316, 1.18.2022 20:55:27.806
204, 1.70651, 0.391512, 90.0623, -0.000976562, -0.000976562, -0.000976562, -0.0498047, 0.290039, -9.71973, 1.18.2022 20:55:27.814
205, 1.70156, 0.396455, 90.0623, -0.000976562, -0.000976562, 0.000976562, -0.0712891, 0.28418, -9.75098, 1.18.2022 20:55:27.822
206, 1.69662, 0.391507, 90.0625, -0.000976562, -0.000976562, -0.000976562, -0.106445, 0.306641, -9.71582, 1.18.2022 20:55:27.830
207, 1.69662, 0.391507, 90.0625, -0.000976562, -0.000976562, -0.000976562, -0.0458984, 0.272461, -9.77734, 1.18.2022 20:55:27.838
208, 1.69662, 0.391507, 90.0625, -0.00195312, 0, -0.000976562, -0.0634766, 0.299805, -9.72461, 1.18.2022 20:55:27.846
209, 1.69662, 0.391507, 90.0625, -0.000976562, -0.000976562, -0.000976562, -0.0957031, 0.300781, -9.75195, 1.18.2022 20:55:27.854
210, 1.69662, 0.391507, 90.0625, 0, -0.000976562, -0.00195312, -0.0439453, 0.255859, -9.78711, 1.18.2022 20:55:27.862
211, 1.69638, 0.391597, 90.0625, 0, -0.000976562, -0.00195312, -0.108398, 0.325195, -9.68262, 1.18.2022 20:55:27.870
212, 1.69638, 0.391597, 90.0625, 0, 0, -0.000976562, -0.0214844, 0.292969, -9.73438, 1.18.2022 20:55:27.878
213, 1.69638, 0.391597, 90.0625, 0, -0.000976562, 0, -0.0517578, 0.294922, -9.71777, 1.18.2022 20:55:27.886
214, 1.69662, 0.391507, 90.0625, -0.000976562, 0, 0.000976562, -0.0664062, 0.276367, -9.73438, 1.18.2022 20:55:27.894
215, 1.69662, 0.391507, 90.0625, -0.000976562, -0.00195312, -0.00195312, 0.0078125, 0.250977, -9.70996, 1.18.2022 20:55:27.902
216, 1.69638, 0.391597, 90.0625, -0.000976562, -0.000976562, -0.00195312, -0.0712891, 0.30957, -9.72168, 1.18.2022 20:55:27.910
217, 1.69638, 0.391597, 90.0625, 0, -0.000976562, -0.000976562, -0.0839844, 0.311523, -9.79199, 1.18.2022 20:55:27.918
218, 1.69144, 0.38665, 90.0626, 0, 0, -0.000976562, -0.0332031, 0.271484, -9.73242, 1.18.2022 20:55:27.926
219, 1.69144, 0.38665, 90.0626, -0.000976562, -0.000976562, -0.000976562, -0.128906, 0.289062, -9.77051, 1.18.2022 20:55:27.934
220, 1.69144, 0.38665, 90.0626, -0.000976562, -0.000976562, -0.000976562, -0.0732422, 0.27832, -9.71484, 1.18.2022 20:55:27.942
221, 1.69144, 0.38665, 90.0626, 0, -0.000976562, -0.000976562, -0.0595703, 0.264648, -9.75391, 1.18.2022 20:55:27.950
222, 1.69144, 0.38665, 90.0626, -0.000976562, -0.000976562, -0.000976562, -0.130859, 0.290039, -9.71191, 1.18.2022 20:55:27.958
223, 1.69144, 0.38665, 90.0626, -0.000976562, 0, -0.000976562, -0.0214844, 0.304688, -9.72949, 1.18.2022 20:55:27.966
224, 1.69144, 0.38665, 90.0626, -0.000976562, -0.000976562, -0.000976562, -0.0810547, 0.286133, -9.75781, 1.18.2022 20:55:27.974
225, 1.69144, 0.38665, 90.0626, 0, 0, 0.000976562, -0.0996094, 0.299805, -9.74023, 1.18.2022 20:55:27.982
226, 1.69144, 0.38665, 90.0626, 0, -0.000976562, -0.000976562, -0.0078125, 0.279297, -9.77051, 1.18.2022 20:55:27.990
227, 1.69144, 0.38665, 90.0626, -0.000976562, 0, 0.000976562, -0.0820312, 0.305664, -9.67383, 1.18.2022 20:55:27.998
228, 1.69144, 0.38665, 90.0626, -0.000976562, 0, -0.000976562, -0.0878906, 0.294922, -9.73535, 1.18.2022 20:55:28.006
229, 1.69144, 0.38665, 90.0626, 0, -0.000976562, -0.000976562, -0.0449219, 0.290039, -9.73438, 1.18.2022 20:55:28.014
230, 1.69144, 0.38665, 90.0626, 0, -0.000976562, -0.000976562, -0.133789, 0.300781, -9.77051, 1.18.2022 20:55:28.022
231, 1.69144, 0.38665, 90.0626, -0.000976562, -0.000976562, -0.000976562, -0.0263672, 0.271484, -9.7373, 1.18.2022 20:55:28.030
232, 1.69144, 0.38665, 90.0626, -0.000976562, -0.000976562, -0.000976562, -0.0810547, 0.276367, -9.75488, 1.18.2022 20:55:28.038
233, 1.69144, 0.38665, 90.0626, -0.000976562, -0.000976562, 0.000976562, -0.0996094, 0.311523, -9.72363, 1.18.2022 20:55:28.046
234, 1.69168, 0.38656, 90.0626, 0, -0.000976562, -0.000976562, -0.0117188, 0.264648, -9.75, 1.18.2022 20:55:28.054
235, 1.69168, 0.38656, 90.0626, 0, -0.000976562, -0.000976562, -0.0761719, 0.283203, -9.72461, 1.18.2022 20:55:28.062
236, 1.69168, 0.38656, 90.0626, -0.000976562, -0.00195312, -0.000976562, -0.0546875, 0.28125, -9.73242, 1.18.2022 20:55:28.070
237, 1.68673, 0.391502, 90.0626, -0.000976562, -0.000976562, -0.000976562, -0.0234375, 0.259766, -9.73535, 1.18.2022 20:55:28.078
238, 1.68673, 0.391502, 90.0626, -0.000976562, -0.000976562, -0.000976562, -0.112305, 0.292969, -9.74707, 1.18.2022 20:55:28.086
239, 1.69168, 0.38656, 90.0626, 0, 0, -0.000976562, -0.0478516, 0.298828, -9.7627, 1.18.2022 20:55:28.094
240, 1.68673, 0.391502, 90.0626, 0, -0.000976562, -0.000976562, -0.0507812, 0.260742, -9.78906, 1.18.2022 20:55:28.102
241, 1.68673, 0.391502, 90.0626, 0, -0.000976562, -0.000976562, -0.106445, 0.306641, -9.72559, 1.18.2022 20:55:28.110
242, 1.68673, 0.391502, 90.0626, -0.000976562, -0.000976562, -0.000976562, -0.00976562, 0.262695, -9.76367, 1.18.2022 20:55:28.118
243, 1.68673, 0.391502, 90.0626, -0.000976562, 0, 0, -0.0927734, 0.304688, -9.72363, 1.18.2022 20:55:28.126
244, 1.69144, 0.38665, 90.0626, -0.000976562, -0.000976562, -0.000976562, -0.0664062, 0.294922, -9.71973, 1.18.2022 20:55:28.134
245, 1.69168, 0.38656, 90.0626, -0.000976562, 0, 0.000976562, -0.0234375, 0.266602, -9.74512, 1.18.2022 20:55:28.142
246, 1.69168, 0.38656, 90.0626, -0.000976562, 0, 0.000976562, -0.111328, 0.27832, -9.72852, 1.18.2022 20:55:28.150
247, 1.69168, 0.38656, 90.0626, -0.000976562, 0, 0, -0.0585938, 0.261719, -9.71875, 1.18.2022 20:55:28.158
248, 1.69168, 0.38656, 90.0626, 0, 0, -0.000976562, -0.0566406, 0.264648, -9.74414, 1.18.2022 20:55:28.166
249, 1.68674, 0.381613, 90.0628, -0.000976562, 0, 0, -0.107422, 0.286133, -9.73828, 1.18.2022 20:55:28.174
250, 1.68674, 0.381613, 90.0628, -0.000976562, 0, 0, -0.0166016, 0.280273, -9.73047, 1.18.2022 20:55:28.182
251, 1.68674, 0.381613, 90.0628, -0.000976562, 0, 0, -0.0664062, 0.300781, -9.75, 1.18.2022 20:55:28.190
252, 1.68674, 0.381613, 90.0628, -0.000976562, -0.000976562, -0.000976562, -0.112305, 0.308594, -9.77539, 1.18.2022 20:55:28.198
253, 1.68674, 0.381613, 90.0628, -0.000976562, -0.000976562, 0.000976562, -0.00683594, 0.261719, -9.73828, 1.18.2022 20:55:28.206
254, 1.68674, 0.381613, 90.0628, -0.000976562, -0.000976562, 0.000976562, -0.102539, 0.293945, -9.77539, 1.18.2022 20:55:28.214
255, 1.68653, 0.381556, 90.0529, -0.000976562, 0, 0, -0.0810547, 0.293945, -9.75488, 1.18.2022 20:55:28.222
256, 1.68653, 0.381556, 90.0529, -0.000976562, 0, 0, -0.0449219, 0.239258, -9.71875, 1.18.2022 20:55:28.230
257, 1.68653, 0.381556, 90.0529, 0, -0.000976562, -0.000976562, -0.104492, 0.304688, -9.72363, 1.18.2022 20:55:28.238
258, 1.68653, 0.381556, 90.0529, 0, 0, -0.000976562, -0.0595703, 0.289062, -9.7627, 1.18.2022 20:55:28.246
259, 1.68653, 0.381556, 90.0529, -0.000976562, 0, 0, -0.0742188, 0.279297, -9.75293, 1.18.2022 20:55:28.254
260, 1.68159, 0.376609, 90.0531, -0.000976562, -0.000976562, -0.000976562, -0.121094, 0.288086, -9.7168, 1.18.2022 20:55:28.262
261, 1.67665, 0.381552, 90.0531, -0.000976562, -0.000976562, -0.000976562, -0.0478516, 0.271484, -9.73438, 1.18.2022 20:55:28.270
262, 1.67665, 0.381552, 90.0531, 0, -0.000976562, -0.000976562, -0.0888672, 0.277344, -9.76465, 1.18.2022 20:55:28.278
263, 1.67685, 0.381608, 90.063, -0.000976562, 0, -0.00195312, -0.046875, 0.318359, -9.70996, 1.18.2022 20:55:28.286
264, 1.67685, 0.381608, 90.063, 0, 0, -0.00195312, -0.0185547, 0.294922, -9.7373, 1.18.2022 20:55:28.294
265, 1.67685, 0.381608, 90.063, 0, 0, -0.000976562, -0.125977, 0.316406, -9.72949, 1.18.2022 20:55:28.302
266, 1.67685, 0.381608, 90.063, -0.000976562, 0, 0, -0.0664062, 0.321289, -9.7168, 1.18.2022 20:55:28.310
267, 1.67685, 0.381608, 90.063, 0, -0.000976562, -0.000976562, -0.0712891, 0.276367, -9.75586, 1.18.2022 20:55:28.318
268, 1.68179, 0.386555, 90.0628, -0.000976562, -0.000976562, -0.000976562, -0.118164, 0.280273, -9.7002, 1.18.2022 20:55:28.326
269, 1.68179, 0.386555, 90.0628, -0.000976562, -0.000976562, -0.000976562, -0.00195312, 0.235352, -9.74609, 1.18.2022 20:55:28.334
270, 1.68179, 0.386555, 90.0628, 0, -0.000976562, -0.00195312, -0.0751953, 0.282227, -9.69824, 1.18.2022 20:55:28.342
271, 1.68156, 0.386644, 90.0628, 0, -0.00195312, -0.00195312, -0.0849609, 0.326172, -9.71582, 1.18.2022 20:55:28.350
272, 1.68156, 0.386644, 90.0628, -0.000976562, -0.000976562, -0.000976562, -0.0117188, 0.30957, -9.73145, 1.18.2022 20:55:28.358
273, 1.68156, 0.386644, 90.0628, 0, -0.000976562, -0.000976562, -0.105469, 0.289062, -9.77344, 1.18.2022 20:55:28.366
274, 1.68156, 0.386644, 90.0628, 0, -0.000976562, 0, -0.0683594, 0.260742, -9.70605, 1.18.2022 20:55:28.374
275, 1.67661, 0.391586, 90.0628, 0, -0.000976562, -0.000976562, -0.0361328, 0.268555, -9.65234, 1.18.2022 20:55:28.382
276, 1.67661, 0.391586, 90.0628, -0.000976562, -0.000976562, -0.00195312, -0.0996094, 0.279297, -9.75, 1.18.2022 20:55:28.390
277, 1.67661, 0.391586, 90.0628, -0.00195312, -0.000976562, -0.00195312, -0.0429688, 0.27832, -9.74414, 1.18.2022 20:55:28.398
278, 1.6865, 0.391592, 90.0626, -0.000976562, -0.000976562, -0.000976562, -0.0644531, 0.305664, -9.7666, 1.18.2022 20:55:28.406
279, 1.6865, 0.391592, 90.0626, -0.000976562, -0.000976562, -0.000976562, -0.0693359, 0.30957, -9.74023, 1.18.2022 20:55:28.414
280, 1.6865, 0.391592, 90.0626, -0.000976562, -0.000976562, -0.000976562, -0.046875, 0.303711, -9.71484, 1.18.2022 20:55:28.422
281, 1.6865, 0.391592, 90.0626, -0.000976562, 0, -0.000976562, -0.12207, 0.293945, -9.77734, 1.18.2022 20:55:28.430
282, 1.6865, 0.391592, 90.0626, 0, 0, -0.00195312, -0.0712891, 0.300781, -9.75488, 1.18.2022 20:55:28.438
283, 1.6865, 0.391592, 90.0626, -0.000976562, 0, -0.00195312, -0.0478516, 0.270508, -9.77539, 1.18.2022 20:55:28.446
284, 1.6865, 0.391592, 90.0626, -0.000976562, 0, -0.000976562, -0.125977, 0.275391, -9.7168, 1.18.2022 20:55:28.454
285, 1.6865, 0.391592, 90.0626, -0.000976562, 0, -0.00195312, -0.0117188, 0.297852, -9.75781, 1.18.2022 20:55:28.462
286, 1.6865, 0.391592, 90.0626, -0.000976562, -0.000976562, 0, -0.0703125, 0.265625, -9.70117, 1.18.2022 20:55:28.470
287, 1.6865, 0.391592, 90.0626, -0.000976562, -0.000976562, 0, -0.0693359, 0.291016, -9.74805, 1.18.2022 20:55:28.478
288, 1.6865, 0.391592, 90.0626, -0.000976562, 0, -0.000976562, 0.0263672, 0.25, -9.74316, 1.18.2022 20:55:28.486
289, 1.6865, 0.391592, 90.0626, -0.000976562, -0.000976562, -0.000976562, -0.0878906, 0.271484, -9.72949, 1.18.2022 20:55:28.494
290, 1.6865, 0.391592, 90.0626, -0.000976562, 0, -0.000976562, -0.0546875, 0.27832, -9.72461, 1.18.2022 20:55:28.502
291, 1.6865, 0.391592, 90.0626, -0.000976562, -0.000976562, -0.00195312, -0.0615234, 0.271484, -9.7373, 1.18.2022 20:55:28.510
292, 1.6865, 0.391592, 90.0626, 0, 0, -0.000976562, -0.130859, 0.301758, -9.71094, 1.18.2022 20:55:28.518
293, 1.6865, 0.391592, 90.0626, -0.000976562, -0.000976562, 0, -0.0664062, 0.299805, -9.72852, 1.18.2022 20:55:28.526
294, 1.6865, 0.391592, 90.0626, -0.000976562, -0.000976562, 0, -0.03125, 0.264648, -9.74219, 1.18.2022 20:55:28.534
295, 1.6865, 0.391592, 90.0626, -0.000976562, -0.000976562, -0.000976562, -0.125977, 0.294922, -9.7168, 1.18.2022 20:55:28.542
296, 1.6865, 0.391592, 90.0626, -0.000976562, -0.000976562, 0, 0.00195312, 0.246094, -9.75977, 1.18.2022 20:55:28.550
297, 1.6865, 0.391592, 90.0626, -0.00195312, -0.000976562, 0, -0.0810547, 0.31543, -9.76172, 1.18.2022 20:55:28.558
298, 1.6865, 0.391592, 90.0626, -0.00195312, -0.000976562, 0, -0.0664062, 0.331055, -9.72852, 1.18.2022 20:55:28.566
299, 1.6865, 0.391592, 90.0626, -0.000976562, -0.000976562, 0.000976562, -0.0341797, 0.277344, -9.77539, 1.18.2022 20:55:28.574
300, 1.6865, 0.391592, 90.0626, -0.000976562, 0, 0.000976562, -0.113281, 0.298828, -9.69043, 1.18.2022 20:55:28.582
301, 1.69144, 0.38665, 90.0626, 0, -0.000976562, 0, -0.0527344, 0.280273, -9.7793, 1.18.2022 20:55:28.590
302, 1.69144, 0.38665, 90.0626, -0.000976562, -0.000976562, -0.000976562, -0.0419922, 0.27832, -9.71777, 1.18.2022 20:55:28.598
303, 1.69144, 0.38665, 90.0626, -0.000976562, 0, -0.000976562, -0.123047, 0.301758, -9.71582, 1.18.2022 20:55:28.606
304, 1.69144, 0.38665, 90.0626, -0.000976562, 0, 0, -0.0234375, 0.286133, -9.73926, 1.18.2022 20:55:28.614
305, 1.6865, 0.381702, 90.0628, -0.000976562, -0.000976562, 0, -0.0742188, 0.292969, -9.74805, 1.18.2022 20:55:28.620
306, 1.69144, 0.38665, 90.0626, -0.00195312, 0, 0, -0.100586, 0.28418, -9.7666, 1.18.2022 20:55:28.628
307, 1.69144, 0.38665, 90.0626, -0.000976562, -0.000976562, 0, -0.0166016, 0.24707, -9.72363, 1.18.2022 20:55:28.636
308, 1.69144, 0.38665, 90.0626, -0.000976562, 0, -0.000976562, -0.12793, 0.301758, -9.70898, 1.18.2022 20:55:28.644
309, 1.69144, 0.38665, 90.0626, -0.000976562, -0.000976562, -0.000976562, -0.0761719, 0.294922, -9.72461, 1.18.2022 20:55:28.652
310, 1.69144, 0.38665, 90.0626, -0.00195312, 0, -0.000976562, -0.0302734, 0.270508, -9.7207, 1.18.2022 20:55:28.660
311, 1.69144, 0.38665, 90.0626, -0.000976562, 0, 0.000976562, -0.120117, 0.306641, -9.79199, 1.18.2022 20:55:28.668
312, 1.69144, 0.38665, 90.0626, -0.000976562, 0, 0, -0.0195312, 0.289062, -9.75586, 1.18.2022 20:55:28.676
313, 1.69144, 0.38665, 90.0626, 0, 0, 0.000976562, -0.0595703, 0.291016, -9.7627, 1.18.2022 20:55:28.684
314, 1.69144, 0.38665, 90.0626, -0.000976562, -0.000976562, 0, -0.0839844, 0.291016, -9.75684, 1.18.2022 20:55:28.692
315, 1.69144, 0.38665, 90.0626, -0.000976562, 0, 0, -0.00683594, 0.27832, -9.71875, 1.18.2022 20:55:28.700
316, 1.69144, 0.38665, 90.0626, 0, -0.000976562, 0, -0.109375, 0.286133, -9.73828, 1.18.2022 20:55:28.708
317, 1.69144, 0.38665, 90.0626, -0.000976562, -0.000976562, 0.000976562, -0.0878906, 0.310547, -9.76172, 1.18.2022 20:55:28.716
318, 1.69144, 0.38665, 90.0626, 0, -0.000976562, 0.000976562, -0.0546875, 0.285156, -9.72754, 1.18.2022 20:55:28.724
319, 1.69144, 0.38665, 90.0626, 0, -0.000976562, 0, -0.112305, 0.31543, -9.76074, 1.18.2022 20:55:28.732
320, 1.69144, 0.38665, 90.0626, -0.000976562, -0.000976562, 0.000976562, -0.0517578, 0.288086, -9.73145, 1.18.2022 20:55:28.740
321, 1.69144, 0.38665, 90.0626, 0, -0.000976562, 0, -0.0449219, 0.258789, -9.70898, 1.18.2022 20:55:28.748
322, 1.69144, 0.38665, 90.0626, -0.000976562, -0.000976562, 0, -0.0800781, 0.293945, -9.68848, 1.18.2022 20:55:28.756
323, 1.69144, 0.38665, 90.0626, 0, -0.000976562, 0.000976562, -0.0214844, 0.294922, -9.73242, 1.18.2022 20:55:28.764
324, 1.69168, 0.38656, 90.0626, -0.000976562, 0, 0, -0.078125, 0.294922, -9.72852, 1.18.2022 20:55:28.772
325, 1.69168, 0.38656, 90.0626, 0, 0, 0, -0.0908203, 0.288086, -9.73828, 1.18.2022 20:55:28.780
326, 1.69168, 0.38656, 90.0626, 0, 0, -0.000976562, -0.0361328, 0.28418, -9.76562, 1.18.2022 20:55:28.788
327, 1.69168, 0.38656, 90.0626, 0, 0, -0.000976562, -0.12207, 0.286133, -9.75879, 1.18.2022 20:55:28.796
328, 1.69168, 0.38656, 90.0626, -0.000976562, -0.000976562, -0.000976562, -0.0449219, 0.274414, -9.75586, 1.18.2022 20:55:28.804
329, 1.69144, 0.38665, 90.0626, -0.000976562, -0.000976562, -0.00195312, -0.0517578, 0.280273, -9.71582, 1.18.2022 20:55:28.812
330, 1.69144, 0.38665, 90.0626, -0.000976562, -0.000976562, 0.000976562, -0.0908203, 0.279297, -9.74316, 1.18.2022 20:55:28.820
331, 1.69168, 0.38656, 90.0626, -0.000976562, 0, 0.000976562, -0.0351562, 0.288086, -9.74414, 1.18.2022 20:55:28.828
332, 1.69168, 0.38656, 90.0626, -0.000976562, 0, 0.000976562, -0.0634766, 0.283203, -9.72461, 1.18.2022 20:55:28.836
333, 1.69168, 0.38656, 90.0626, 0, 0, 0.000976562, -0.0878906, 0.294922, -9.72852, 1.18.2022 20:55:28.844
334, 1.69168, 0.38656, 90.0626, -0.000976562, -0.000976562, -0.000976562, -0.0283203, 0.264648, -9.74902, 1.18.2022 20:55:28.852
335, 1.69168, 0.38656, 90.0626, -0.000976562, -0.000976562, -0.000976562, -0.12793, 0.334961, -9.70605, 1.18.2022 20:55:28.860
336, 1.69168, 0.38656, 90.0626, -0.000976562, -0.00195312, -0.000976562, -0.078125, 0.304688, -9.72363, 1.18.2022 20:55:28.868
337, 1.69168, 0.38656, 90.0626, -0.000976562, -0.000976562, -0.000976562, -0.0214844, 0.302734, -9.74609, 1.18.2022 20:55:28.876
338, 1.69168, 0.38656, 90.0626, -0.000976562, -0.000976562, -0.000976562, -0.112305, 0.288086, -9.74512, 1.18.2022 20:55:28.884
339, 1.69168, 0.38656, 90.0626, -0.000976562, -0.000976562, -0.000976562, -0.0371094, 0.260742, -9.71582, 1.18.2022 20:55:28.892
340, 1.69168, 0.38656, 90.0626, -0.000976562, -0.000976562, -0.000976562, -0.09375, 0.242188, -9.79395, 1.18.2022 20:55:28.900
341, 1.69168, 0.38656, 90.0626, -0.000976562, 0, -0.000976562, -0.104492, 0.276367, -9.72461, 1.18.2022 20:55:28.908
342, 1.69168, 0.38656, 90.0626, 0, -0.000976562, -0.00195312, -0.0234375, 0.269531, -9.74707, 1.18.2022 20:55:28.916
343, 1.69168, 0.38656, 90.0626, -0.000976562, -0.000976562, -0.00195312, -0.104492, 0.301758, -9.71387, 1.18.2022 20:55:28.924
344, 1.69168, 0.38656, 90.0626, -0.000976562, -0.000976562, -0.000976562, -0.0791016, 0.300781, -9.75488, 1.18.2022 20:55:28.932
345, 1.69168, 0.38656, 90.0626, 0, -0.000976562, -0.000976562, -0.0283203, 0.291016, -9.74121, 1.18.2022 20:55:28.940
346, 1.69638, 0.391597, 90.0625, -0.00195312, 0, -0.00195312, -0.114258, 0.291016, -9.75879, 1.18.2022 20:55:28.948
347, 1.69638, 0.391597, 90.0625, -0.00195312, 0, -0.000976562, -0.0214844, 0.266602, -9.74023, 1.18.2022 20:55:28.956
348, 1.69638, 0.391597, 90.0625, -0.000976562, 0, -0.00195312, -0.0576172, 0.25, -9.74902, 1.18.2022 20:55:28.964
349, 1.69638, 0.391597, 90.0625, -0.000976562, -0.000976562, -0.00195312, -0.112305, 0.293945, -9.75391, 1.18.2022 20:55:28.972
350, 1.69638, 0.391597, 90.0625, 0, -0.000976562, -0.00195312, -0.0166016, 0.275391, -9.72852, 1.18.2022 20:55:28.980
351, 1.69144, 0.39654, 90.0625, -0.000976562, -0.000976562, 0.000976562, -0.104492, 0.277344, -9.70312, 1.18.2022 20:55:28.988
352, 1.6865, 0.391592, 90.0626, -0.000976562, 0, 0.000976562, -0.0585938, 0.301758, -9.70312, 1.18.2022 20:55:28.996
353, 1.6865, 0.391592, 90.0626, -0.000976562, -0.000976562, -0.000976562, -0.0380859, 0.279297, -9.74902, 1.18.2022 20:55:29.004
354, 1.6865, 0.391592, 90.0626, -0.000976562, -0.00195312, -0.00195312, -0.114258, 0.291016, -9.73828, 1.18.2022 20:55:29.012
355, 1.6865, 0.391592, 90.0626, -0.000976562, -0.000976562, -0.000976562, -0.0449219, 0.316406, -9.72363, 1.18.2022 20:55:29.020
356, 1.6865, 0.391592, 90.0626, -0.000976562, -0.000976562, -0.000976562, -0.0625, 0.267578, -9.75391, 1.18.2022 20:55:29.028
357, 1.6865, 0.391592, 90.0626, -0.000976562, 0, -0.000976562, -0.0976562, 0.325195, -9.7627, 1.18.2022 20:55:29.036
358, 1.6865, 0.391592, 90.0626, 0, 0, 0, 0.00488281, 0.267578, -9.76367, 1.18.2022 20:55:29.044
359, 1.6865, 0.391592, 90.0626, -0.000976562, -0.000976562, 0, -0.0566406, 0.283203, -9.73438, 1.18.2022 20:55:29.052
360, 1.6865, 0.391592, 90.0626, -0.000976562, 0, 0, -0.103516, 0.322266, -9.67773, 1.18.2022 20:55:29.060
361, 1.6865, 0.391592, 90.0626, 0, -0.000976562, 0.000976562, -0.0234375, 0.269531, -9.74219, 1.18.2022 20:55:29.068
362, 1.6865, 0.391592, 90.0626, -0.000976562, 0, 0, -0.114258, 0.291016, -9.75391, 1.18.2022 20:55:29.076
363, 1.6865, 0.391592, 90.0626, 0, 0, 0, -0.0742188, 0.302734, -9.75684, 1.18.2022 20:55:29.084
364, 1.6865, 0.391592, 90.0626, 0, -0.000976562, -0.00195312, -0.0283203, 0.297852, -9.75586, 1.18.2022 20:55:29.092
365, 1.6865, 0.391592, 90.0626, 0, 0, -0.00195312, -0.113281, 0.28418, -9.68848, 1.18.2022 20:55:29.100
366, 1.6865, 0.391592, 90.0626, -0.000976562, -0.00195312, 0, -0.0429688, 0.261719, -9.74707, 1.18.2022 20:55:29.108
367, 1.6865, 0.391592, 90.0626, -0.000976562, 0, 0, -0.0751953, 0.276367, -9.66309, 1.18.2022 20:55:29.116
368, 1.6865, 0.391592, 90.0626, -0.000976562, -0.000976562, 0, -0.0712891, 0.295898, -9.74512, 1.18.2022 20:55:29.124
369, 1.6865, 0.391592, 90.0626, -0.00195312, 0, 0.000976562, -0.00488281, 0.271484, -9.74512, 1.18.2022 20:55:29.132
370, 1.6865, 0.391592, 90.0626, -0.000976562, -0.000976562, 0, -0.119141, 0.303711, -9.76367, 1.18.2022 20:55:29.140
371, 1.6865, 0.391592, 90.0626, -0.000976562, -0.000976562, 0, -0.0693359, 0.286133, -9.73828, 1.18.2022 20:55:29.148
372, 1.6865, 0.391592, 90.0626, -0.000976562, 0, -0.000976562, -0.0332031, 0.258789, -9.73047, 1.18.2022 20:55:29.156
373, 1.69144, 0.38665, 90.0626, 0, -0.000976562, 0, -0.116211, 0.282227, -9.69043, 1.18.2022 20:55:29.164
374, 1.6865, 0.391592, 90.0626, 0, -0.000976562, 0, -0.0537109, 0.280273, -9.70801, 1.18.2022 20:55:29.172
375, 1.6865, 0.391592, 90.0626, 0, -0.000976562, 0, -0.0585938, 0.24707, -9.7168, 1.18.2022 20:55:29.180
376, 1.6865, 0.391592, 90.0626, -0.000976562, 0, 0, -0.124023, 0.292969, -9.7334, 1.18.2022 20:55:29.188
377, 1.6865, 0.391592, 90.0626, -0.000976562, 0, 0, -0.0253906, 0.277344, -9.70898, 1.18.2022 20:55:29.196
378, 1.68156, 0.386644, 90.0628, 0, 0, 0, -0.0712891, 0.291016, -9.76172, 1.18.2022 20:55:29.204
379, 1.68156, 0.386644, 90.0628, -0.000976562, 0, 0, -0.0751953, 0.316406, -9.70898, 1.18.2022 20:55:29.212
380, 1.68156, 0.386644, 90.0628, -0.000976562, -0.000976562, 0.000976562, -0.0478516, 0.283203, -9.73926, 1.18.2022 20:55:29.220
381, 1.68156, 0.386644, 90.0628, -0.000976562, -0.000976562, 0, -0.114258, 0.269531, -9.76465, 1.18.2022 20:55:29.228
382, 1.68156, 0.386644, 90.0628, -0.000976562, -0.000976562, 0, -0.0712891, 0.275391, -9.71582, 1.18.2022 20:55:29.236
383, 1.68156, 0.386644, 90.0628, 0, -0.000976562, -0.00195312, -0.0761719, 0.246094, -9.76562, 1.18.2022 20:55:29.244
384, 1.68156, 0.386644, 90.0628, -0.000976562, 0, -0.000976562, -0.123047, 0.275391, -9.71973, 1.18.2022 20:55:29.252
385, 1.68156, 0.386644, 90.0628, 0, -0.000976562, 0, -0.0478516, 0.291992, -9.7793, 1.18.2022 20:55:29.260
386, 1.68156, 0.386644, 90.0628, -0.000976562, -0.000976562, 0, -0.0712891, 0.295898, -9.75293, 1.18.2022 20:55:29.268
387, 1.67661, 0.391586, 90.0628, -0.000976562, 0, 0, -0.0947266, 0.295898, -9.74512, 1.18.2022 20:55:29.276
388, 1.67661, 0.391586, 90.0628, 0, -0.000976562, 0, -0.0146484, 0.280273, -9.79199, 1.18.2022 20:55:29.284
389, 1.67661, 0.391586, 90.0628, -0.000976562, 0, -0.000976562, -0.119141, 0.297852, -9.73242, 1.18.2022 20:55:29.292
390, 1.67661, 0.391586, 90.0628, 0, 0, 0, -0.0732422, 0.317383, -9.74219, 1.18.2022 20:55:29.300
391, 1.67661, 0.391586, 90.0628, 0, -0.000976562, 0, -0.0644531, 0.286133, -9.73633, 1.18.2022 20:55:29.308
392, 1.67661, 0.391586, 90.0628, -0.000976562, -0.000976562, 0, -0.116211, 0.30957, -9.72559, 1.18.2022 20:55:29.316
393, 1.68155, 0.396534, 90.0626, 0, -0.000976562, 0.000976562, -0.0253906, 0.287109, -9.7041, 1.18.2022 20:55:29.324
394, 1.6766, 0.401476, 90.0626, 0, -0.000976562, 0, -0.0898438, 0.275391, -9.70996, 1.18.2022 20:55:29.332
395, 1.6766, 0.401476, 90.0626, -0.000976562, -0.000976562, 0, -0.111328, 0.301758, -9.71191, 1.18.2022 20:55:29.340
396, 1.6766, 0.401476, 90.0626, -0.00195312, -0.000976562, -0.000976562, -0.00976562, 0.27832, -9.74023, 1.18.2022 20:55:29.348
397, 1.6766, 0.401476, 90.0626, -0.000976562, -0.000976562, -0.00195312, -0.09375, 0.300781, -9.77344, 1.18.2022 20:55:29.356
398, 1.6766, 0.401476, 90.0626, 0, 0, 0, -0.0878906, 0.268555, -9.72461, 1.18.2022 20:55:29.364
399, 1.6766, 0.401476, 90.0626, -0.000976562, 0, 0.000976562, -0.0205078, 0.260742, -9.7168, 1.18.2022 20:55:29.372
400, 1.68154, 0.406424, 90.0625, -0.000976562, -0.000976562, 0.000976562, -0.142578, 0.290039, -9.73047, 1.18.2022 20:55:29.380
401, 1.68154, 0.406424, 90.0625, 0, 0, 0, -0.0527344, 0.300781, -9.75781, 1.18.2022 20:55:29.388
402, 1.68154, 0.406424, 90.0625, -0.000976562, -0.000976562, 0, -0.0566406, 0.283203, -9.74121, 1.18.2022 20:55:29.396
403, 1.68154, 0.406424, 90.0625, -0.000976562, 0, 0, -0.112305, 0.310547, -9.75195, 1.18.2022 20:55:29.404
404, 1.68154, 0.406424, 90.0625, 0, 0, 0, -0.0166016, 0.308594, -9.77441, 1.18.2022 20:55:29.412
405, 1.68154, 0.406424, 90.0625, 0, 0, 0, -0.0839844, 0.293945, -9.75684, 1.18.2022 20:55:29.420
406, 1.68154, 0.406424, 90.0625, -0.000976562, -0.000976562, 0.000976562, -0.0810547, 0.300781, -9.75, 1.18.2022 20:55:29.428
407, 1.68154, 0.406424, 90.0625, -0.000976562, 0, 0, 0, 0.25293, -9.76953, 1.18.2022 20:55:29.436
408, 1.68154, 0.406424, 90.0625, -0.000976562, -0.000976562, -0.00195312, -0.117188, 0.291016, -9.75684, 1.18.2022 20:55:29.444
409, 1.68649, 0.411372, 90.0623, -0.000976562, 0, 0, -0.0380859, 0.271484, -9.74707, 1.18.2022 20:55:29.452
410, 1.68649, 0.411372, 90.0623, -0.000976562, 0, -0.000976562, -0.0429688, 0.272461, -9.7627, 1.18.2022 20:55:29.460
411, 1.68649, 0.411372, 90.0623, -0.000976562, 0.000976562, 0, -0.108398, 0.310547, -9.69531, 1.18.2022 20:55:29.468
412, 1.68649, 0.411372, 90.0623, -0.000976562, 0, 0, -0.0351562, 0.283203, -9.7373, 1.18.2022 20:55:29.476
413, 1.68649, 0.411372, 90.0623, 0, -0.000976562, 0, -0.0566406, 0.25, -9.72852, 1.18.2022 20:55:29.484
414, 1.68649, 0.411372, 90.0623, 0.000976562, -0.00195312, 0, -0.078125, 0.299805, -9.71484, 1.18.2022 20:55:29.492
415, 1.68649, 0.411372, 90.0623, -0.000976562, -0.000976562, 0, -0.0263672, 0.290039, -9.73926, 1.18.2022 20:55:29.500
416, 1.68649, 0.411372, 90.0623, 0, -0.000976562, 0, -0.130859, 0.316406, -9.71582, 1.18.2022 20:55:29.508
417, 1.68154, 0.406424, 90.0625, 0, 0, 0.000976562, -0.0517578, 0.274414, -9.69434, 1.18.2022 20:55:29.516
418, 1.68649, 0.401482, 90.0625, -0.000976562, 0, 0, -0.0478516, 0.267578, -9.75586, 1.18.2022 20:55:29.524
419, 1.68649, 0.401482, 90.0625, -0.000976562, -0.000976562, 0, -0.118164, 0.306641, -9.69922, 1.18.2022 20:55:29.532
420, 1.68649, 0.401482, 90.0625, 0, -0.000976562, -0.00195312, -0.0166016, 0.280273, -9.73047, 1.18.2022 20:55:29.540
421, 1.68649, 0.401482, 90.0625, -0.000976562, 0, -0.000976562, -0.0732422, 0.291992, -9.69336, 1.18.2022 20:55:29.548
422, 1.68649, 0.401482, 90.0625, -0.000976562, 0, 0, -0.117188, 0.318359, -9.79102, 1.18.2022 20:55:29.556
423, 1.68649, 0.401482, 90.0625, -0.000976562, -0.000976562, 0, -0.0166016, 0.28125, -9.74707, 1.18.2022 20:55:29.564
424, 1.68649, 0.401482, 90.0625, -0.000976562, 0, 0.000976562, -0.102539, 0.282227, -9.77148, 1.18.2022 20:55:29.572
425, 1.68649, 0.401482, 90.0625, -0.000976562, -0.000976562, 0, -0.0546875, 0.28418, -9.75098, 1.18.2022 20:55:29.580
426, 1.68649, 0.401482, 90.0625, 0, -0.000976562, 0, -0.0322266, 0.265625, -9.70898, 1.18.2022 20:55:29.588
427, 1.68649, 0.401482, 90.0625, 0, -0.000976562, 0, -0.147461, 0.302734, -9.72266, 1.18.2022 20:55:29.596
428, 1.68649, 0.401482, 90.0625, 0, 0, 0, -0.0283203, 0.286133, -9.74609, 1.18.2022 20:55:29.602
429, 1.68649, 0.401482, 90.0625, 0, -0.00195312, 0.000976562, -0.0576172, 0.302734, -9.75, 1.18.2022 20:55:29.610
430, 1.68649, 0.401482, 90.0625, -0.00195312, -0.000976562, 0, -0.0869141, 0.327148, -9.68262, 1.18.2022 20:55:29.618
431, 1.68649, 0.401482, 90.0625, 0, -0.000976562, 0, -0.0136719, 0.272461, -9.70898, 1.18.2022 20:55:29.626
432, 1.69144, 0.39654, 90.0625, -0.000976562, -0.000976562, 0, -0.0546875, 0.28125, -9.73242, 1.18.2022 20:55:29.634
433, 1.69144, 0.39654, 90.0625, -0.000976562, -0.000976562, 0, -0.078125, 0.297852, -9.74805, 1.18.2022 20:55:29.642
434, 1.69144, 0.39654, 90.0625, -0.000976562, 0.000976562, 0, -0.0263672, 0.292969, -9.75098, 1.18.2022 20:55:29.650
435, 1.69144, 0.39654, 90.0625, -0.00195312, 0, 0, -0.0849609, 0.328125, -9.71875, 1.18.2022 20:55:29.658
436, 1.69144, 0.39654, 90.0625, -0.000976562, -0.000976562, 0.000976562, -0.0205078, 0.268555, -9.71875, 1.18.2022 20:55:29.666
437, 1.69167, 0.39645, 90.0625, -0.000976562, -0.000976562, 0, -0.046875, 0.265625, -9.71875, 1.18.2022 20:55:29.674
438, 1.69662, 0.391507, 90.0625, 0, -0.000976562, -0.00195312, -0.12793, 0.279297, -9.69043, 1.18.2022 20:55:29.682
439, 1.69638, 0.391597, 90.0625, 0, -0.00195312, -0.00195312, -0.0273438, 0.279297, -9.69922, 1.18.2022 20:55:29.690
440, 1.69638, 0.391597, 90.0625, -0.000976562, -0.000976562, 0.000976562, -0.0898438, 0.292969, -9.73828, 1.18.2022 20:55:29.698
441, 1.69638, 0.391597, 90.0625, -0.000976562, 0, 0, -0.0830078, 0.302734, -9.75488, 1.18.2022 20:55:29.706
442, 1.69638, 0.391597, 90.0625, -0.000976562, 0, -0.00195312, -0.0078125, 0.277344, -9.77051, 1.18.2022 20:55:29.714
443, 1.69638, 0.391597, 90.0625, -0.000976562, 0, -0.00195312, -0.115234, 0.298828, -9.78027, 1.18.2022 20:55:29.722
444, 1.70133, 0.386655, 90.0625, -0.000976562, -0.000976562, 0, -0.0351562, 0.307617, -9.73828, 1.18.2022 20:55:29.730
445, 1.70133, 0.386655, 90.0625, -0.000976562, 0, -0.00195312, -0.0146484, 0.276367, -9.75195, 1.18.2022 20:55:29.738
446, 1.70133, 0.386655, 90.0625, -0.00195312, 0, -0.00195312, -0.124023, 0.289062, -9.76855, 1.18.2022 20:55:29.746
447, 1.70133, 0.386655, 90.0625, -0.000976562, 0, 0, 0.000976562, 0.277344, -9.69727, 1.18.2022 20:55:29.754
448, 1.70133, 0.386655, 90.0625, -0.000976562, -0.000976562, 0, -0.0888672, 0.250977, -9.77734, 1.18.2022 20:55:29.762
449, 1.70133, 0.386655, 90.0625, 0.000976562, 0, 0.000976562, -0.0732422, 0.304688, -9.7168, 1.18.2022 20:55:29.770
450, 1.69639, 0.381708, 90.0626, 0, -0.000976562, 0, -0.0322266, 0.277344, -9.71094, 1.18.2022 20:55:29.778
451, 1.70133, 0.376765, 90.0626, 0, -0.00195312, -0.000976562, -0.0800781, 0.282227, -9.70801, 1.18.2022 20:55:29.786
452, 1.70133, 0.376765, 90.0626, -0.000976562, 0, 0, -0.0644531, 0.324219, -9.75879, 1.18.2022 20:55:29.794
453, 1.70133, 0.376765, 90.0626, 0, 0, 0, -0.0380859, 0.292969, -9.72461, 1.18.2022 20:55:29.802
454, 1.70133, 0.376765, 90.0626, -0.000976562, 0, 0, -0.125977, 0.297852, -9.74707, 1.18.2022 20:55:29.810
455, 1.70133, 0.376765, 90.0626, -0.000976562, 0, 0, -0.0263672, 0.291016, -9.74414, 1.18.2022 20:55:29.818
456, 1.70133, 0.376765, 90.0626, -0.000976562, 0, 0, -0.0712891, 0.272461, -9.76074, 1.18.2022 20:55:29.826
457, 1.70133, 0.376765, 90.0626, -0.000976562, 0, 0, -0.0947266, 0.288086, -9.72363, 1.18.2022 20:55:29.834
458, 1.70133, 0.376765, 90.0626, -0.00195312, 0, 0, -0.0117188, 0.271484, -9.75391, 1.18.2022 20:55:29.842
459, 1.70628, 0.371823, 90.0626, -0.000976562, 0, 0, -0.0732422, 0.313477, -9.7168, 1.18.2022 20:55:29.850
460, 1.70628, 0.371823, 90.0626, -0.000976562, -0.000976562, 0, -0.0634766, 0.308594, -9.70703, 1.18.2022 20:55:29.858
461, 1.70628, 0.371823, 90.0626, -0.000976562, -0.000976562, 0, -0.0527344, 0.262695, -9.75098, 1.18.2022 20:55:29.866
462, 1.70134, 0.366875, 90.0628, -0.000976562, -0.000976562, 0, -0.112305, 0.274414, -9.75488, 1.18.2022 20:55:29.874
463, 1.70134, 0.366875, 90.0628, 0, 0, 0, -0.0361328, 0.277344, -9.77246, 1.18.2022 20:55:29.882
464, 1.70134, 0.366875, 90.0628, 0, 0, -0.00195312, -0.0400391, 0.297852, -9.75293, 1.18.2022 20:55:29.890
465, 1.70134, 0.366875, 90.0628, -0.000976562, 0, -0.00195312, -0.121094, 0.314453, -9.73438, 1.18.2022 20:55:29.898
466, 1.70134, 0.366875, 90.0628, -0.000976562, 0.000976562, 0, -0.0283203, 0.273438, -9.73535, 1.18.2022 20:55:29.906
467, 1.70134, 0.366875, 90.0628, 0, 0, 0.000976562, -0.078125, 0.276367, -9.72949, 1.18.2022 20:55:29.914
468, 1.70134, 0.366875, 90.0628, 0, -0.000976562, 0, -0.0830078, 0.299805, -9.71484, 1.18.2022 20:55:29.922
469, 1.70134, 0.366875, 90.0628, -0.000976562, -0.000976562, -0.00195312, -0.0078125, 0.251953, -9.80469, 1.18.2022 20:55:29.930
470, 1.70134, 0.366875, 90.0628, -0.000976562, -0.000976562, -0.00195312, -0.12207, 0.270508, -9.7832, 1.18.2022 20:55:29.938
471, 1.70134, 0.366875, 90.0628, 0, -0.000976562, -0.00195312, -0.0761719, 0.302734, -9.75488, 1.18.2022 20:55:29.946
472, 1.70134, 0.366875, 90.0628, 0, -0.000976562, -0.00195312, -0.0585938, 0.299805, -9.71484, 1.18.2022 20:55:29.954
473, 1.70134, 0.366875, 90.0628, -0.000976562, -0.000976562, 0, -0.116211, 0.299805, -9.73242, 1.18.2022 20:55:29.962
474, 1.70134, 0.366875, 90.0628, -0.000976562, -0.000976562, 0, -0.00878906, 0.279297, -9.69727, 1.18.2022 20:55:29.970
475, 1.70134, 0.366875, 90.0628, -0.000976562, -0.000976562, 0, -0.0527344, 0.291016, -9.76953, 1.18.2022 20:55:29.978
476, 1.70134, 0.366875, 90.0628, 0, 0, -0.00195312, -0.0908203, 0.297852, -9.75, 1.18.2022 20:55:29.986
477, 1.70134, 0.366875, 90.0628, -0.000976562, -0.000976562, -0.00195312, -0.0498047, 0.310547, -9.76465, 1.18.2022 20:55:29.994
478, 1.69639, 0.371818, 90.0628, -0.000976562, -0.000976562, -0.00195312, -0.128906, 0.318359, -9.76953, 1.18.2022 20:55:30.002
479, 1.69639, 0.371818, 90.0628, -0.000976562, -0.00195312, -0.000976562, -0.0585938, 0.275391, -9.71582, 1.18.2022 20:55:30.010
480, 1.69639, 0.371818, 90.0628, -0.000976562, -0.000976562, 0, -0.0292969, 0.267578, -9.76367, 1.18.2022 20:55:30.018
481, 1.69639, 0.371818, 90.0628, -0.000976562, -0.000976562, 0, -0.119141, 0.305664, -9.74707, 1.18.2022 20:55:30.026
482, 1.69639, 0.371818, 90.0628, -0.000976562, -0.000976562, 0, -0.0253906, 0.285156, -9.72559, 1.18.2022 20:55:30.034
483, 1.70133, 0.376765, 90.0626, -0.000976562, 0, -0.00195312, -0.03125, 0.282227, -9.7959, 1.18.2022 20:55:30.042
484, 1.70133, 0.376765, 90.0626, -0.000976562, 0, 0, -0.0878906, 0.331055, -9.7373, 1.18.2022 20:55:30.050
485, 1.70133, 0.376765, 90.0626, 0, 0, 0.000976562, -0.0117188, 0.275391, -9.72852, 1.18.2022 20:55:30.058
486, 1.70133, 0.376765, 90.0626, -0.000976562, -0.000976562, 0, -0.0839844, 0.293945, -9.75977, 1.18.2022 20:55:30.066
487, 1.70133, 0.376765, 90.0626, -0.000976562, 0, 0, -0.0800781, 0.282227, -9.70312, 1.18.2022 20:55:30.074
488, 1.70133, 0.376765, 90.0626, 0, -0.000976562, 0, -0.0195312, 0.271484, -9.75391, 1.18.2022 20:55:30.082
489, 1.70133, 0.376765, 90.0626, -0.000976562, -0.000976562, 0, -0.124023, 0.297852, -9.7373, 1.18.2022 20:55:30.090
490, 1.70133, 0.376765, 90.0626, 0, -0.000976562, 0, -0.0595703, 0.279297, -9.76953, 1.18.2022 20:55:30.098
491, 1.70133, 0.376765, 90.0626, -0.000976562, 0, 0, -0.0742188, 0.289062, -9.76172, 1.18.2022 20:55:30.106
492, 1.70133, 0.376765, 90.0626, 0, -0.000976562, 0, -0.0947266, 0.3125, -9.73535, 1.18.2022 20:55:30.114
493, 1.70133, 0.376765, 90.0626, 0, 0, 0, -0.00488281, 0.246094, -9.76465, 1.18.2022 20:55:30.122
494, 1.70133, 0.376765, 90.0626, -0.000976562, 0, 0, -0.0927734, 0.279297, -9.76465, 1.18.2022 20:55:30.130
495, 1.70133, 0.376765, 90.0626, -0.000976562, -0.000976562, 0, -0.114258, 0.311523, -9.72754, 1.18.2022 20:55:30.138
496, 1.70133, 0.376765, 90.0626, 0, -0.000976562, 0, -0.00976562, 0.273438, -9.7373, 1.18.2022 20:55:30.146
497, 1.70133, 0.376765, 90.0626, -0.000976562, -0.000976562, 0.000976562, -0.121094, 0.301758, -9.7041, 1.18.2022 20:55:30.154
498, 1.70133, 0.376765, 90.0626, 0, 0, 0.000976562, -0.0566406, 0.288086, -9.72949, 1.18.2022 20:55:30.162
499, 1.70133, 0.376765, 90.0626, -0.000976562, 0, 0.000976562, -0.0664062, 0.291016, -9.75, 1.18.2022 20:55:30.170
500, 1.70133, 0.376765, 90.0626, -0.000976562, 0, 0, -0.103516, 0.289062, -9.68652, 1.18.2022 20:55:30.178
501, 1.70133, 0.376765, 90.0626, -0.000976562, -0.000976562, 0, 0.00488281, 0.268555, -9.7334, 1.18.2022 20:55:30.186
502, 1.70133, 0.376765, 90.0626, -0.000976562, 0, 0, -0.0585938, 0.294922, -9.71777, 1.18.2022 20:55:30.194
503, 1.70133, 0.376765, 90.0626, 0, 0, -0.000976562, -0.078125, 0.287109, -9.71289, 1.18.2022 20:55:30.202
504, 1.70133, 0.376765, 90.0626, -0.000976562, -0.000976562, 0, -0.0234375, 0.263672, -9.7207, 1.18.2022 20:55:30.210
505, 1.70133, 0.376765, 90.0626, 0, 0, 0, -0.0927734, 0.314453, -9.72559, 1.18.2022 20:55:30.218
506, 1.70133, 0.376765, 90.0626, 0, 0, 0, -0.0751953, 0.321289, -9.71387, 1.18.2022 20:55:30.226
507, 1.70133, 0.376765, 90.0626, -0.000976562, -0.000976562, 0, -0.0380859, 0.261719, -9.72559, 1.18.2022 20:55:30.234
508, 1.70133, 0.376765, 90.0626, 0, -0.000976562, 0, -0.121094, 0.287109, -9.71191, 1.18.2022 20:55:30.242
509, 1.70133, 0.376765, 90.0626, -0.000976562, -0.000976562, 0, -0.0244141, 0.257812, -9.77051, 1.18.2022 20:55:30.250
510, 1.70133, 0.376765, 90.0626, 0, -0.000976562, 0, -0.0332031, 0.262695, -9.76855, 1.18.2022 20:55:30.258
511, 1.70133, 0.376765, 90.0626, -0.000976562, -0.000976562, 0, -0.106445, 0.285156, -9.72168, 1.18.2022 20:55:30.266
512, 1.70133, 0.376765, 90.0626, -0.000976562, 0, 0, -0.0253906, 0.273438, -9.71582, 1.18.2022 20:55:30.274
513, 1.70133, 0.376765, 90.0626, -0.000976562, 0, 0, -0.0966797, 0.290039, -9.70508, 1.18.2022 20:55:30.282
514, 1.70133, 0.376765, 90.0626, -0.000976562, 0, -0.000976562, -0.0830078, 0.285156, -9.70508, 1.18.2022 20:55:30.290
515, 1.69639, 0.371818, 90.0628, 0, 0, -0.000976562, -0.046875, 0.285156, -9.71777, 1.18.2022 20:55:30.298
516, 1.69639, 0.371818, 90.0628, -0.000976562, 0, -0.000976562, -0.149414, 0.298828, -9.70117, 1.18.2022 20:55:30.306
517, 1.69145, 0.37676, 90.0628, -0.000976562, -0.000976562, 0, -0.0498047, 0.291992, -9.71777, 1.18.2022 20:55:30.314
518, 1.69145, 0.37676, 90.0628, -0.000976562, -0.000976562, 0, -0.0380859, 0.293945, -9.7627, 1.18.2022 20:55:30.322
519, 1.69145, 0.37676, 90.0628, -0.000976562, -0.000976562, 0.000976562, -0.126953, 0.298828, -9.78027, 1.18.2022 20:55:30.330
520, 1.69145, 0.37676, 90.0628, -0.000976562, -0.000976562, 0, -0.0263672, 0.257812, -9.76367, 1.18.2022 20:55:30.338
521, 1.69145, 0.37676, 90.0628, -0.000976562, -0.000976562, 0, -0.0517578, 0.297852, -9.73438, 1.18.2022 20:55:30.346
522, 1.69639, 0.381708, 90.0626, -0.000976562, -0.000976562, 0.000976562, -0.0644531, 0.304688, -9.74023, 1.18.2022 20:55:30.354
523, 1.69639, 0.381708, 90.0626, -0.000976562, -0.000976562, 0, -0.0166016, 0.24707, -9.72852, 1.18.2022 20:55:30.362
524, 1.69639, 0.381708, 90.0626, -0.000976562, 0, 0, -0.121094, 0.319336, -9.7373, 1.18.2022 20:55:30.370
525, 1.69639, 0.381708, 90.0626, 0, 0, 0, -0.0566406, 0.288086, -9.73633, 1.18.2022 20:55:30.378
526, 1.69639, 0.381708, 90.0626, -0.00195312, -0.000976562, 0, -0.0146484, 0.288086, -9.75391, 1.18.2022 20:55:30.386
527, 1.69639, 0.381708, 90.0626, -0.000976562, -0.000976562, 0, -0.102539, 0.31543, -9.76367, 1.18.2022 20:55:30.394
528, 1.69639, 0.381708, 90.0626, -0.00195312, -0.000976562, 0, -0.0234375, 0.279297, -9.75098, 1.18.2022 20:55:30.402
529, 1.69639, 0.381708, 90.0626, -0.000976562, -0.00195312, 0.000976562, -0.0664062, 0.263672, -9.72559, 1.18.2022 20:55:30.410
530, 1.69662, 0.381618, 90.0626, -0.000976562, -0.00195312, -0.000976562, -0.0830078, 0.27832, -9.74316, 1.18.2022 20:55:30.418
531, 1.69662, 0.381618, 90.0626, -0.000976562, 0, 0, -0.0234375, 0.295898, -9.74609, 1.18.2022 20:55:30.426
532, 1.69662, 0.381618, 90.0626, -0.000976562, 0, 0, -0.109375, 0.31543, -9.75098, 1.18.2022 20:55:30.434
533, 1.69662, 0.381618, 90.0626, 0, 0, 0.000976562, -0.0595703, 0.295898, -9.75488, 1.18.2022 20:55:30.442
534, 1.69662, 0.381618, 90.0626, 0, 0, 0, -0.0234375, 0.264648, -9.74219, 1.18.2022 20:55:30.450
535, 1.69662, 0.381618, 90.0626, 0, -0.000976562, 0, -0.12793, 0.297852, -9.73242, 1.18.2022 20:55:30.458
536, 1.69662, 0.381618, 90.0626, 0, 0, 0, -0.0292969, 0.280273, -9.79395, 1.18.2022 20:55:30.466
537, 1.69168, 0.376671, 90.0628, 0, 0, 0, -0.0683594, 0.268555, -9.73242, 1.18.2022 20:55:30.474
538, 1.69168, 0.376671, 90.0628, -0.000976562, -0.000976562, 0, -0.110352, 0.300781, -9.76855, 1.18.2022 20:55:30.482
539, 1.69168, 0.376671, 90.0628, 0, 0, 0, -0.0166016, 0.266602, -9.74707, 1.18.2022 20:55:30.490
540, 1.69168, 0.376671, 90.0628, -0.000976562, 0, -0.00195312, -0.0400391, 0.265625, -9.71875, 1.18.2022 20:55:30.498
541, 1.69168, 0.376671, 90.0628, -0.000976562, -0.000976562, -0.00195312, -0.0712891, 0.300781, -9.74805, 1.18.2022 20:55:30.506
542, 1.69145, 0.37676, 90.0628, -0.000976562, -0.000976562, 0, -0.0791016, 0.279297, -9.76953, 1.18.2022 20:55:30.514
543, 1.69145, 0.37676, 90.0628, -0.000976562, -0.000976562, 0, -0.131836, 0.322266, -9.67969, 1.18.2022 20:55:30.522
544, 1.69145, 0.37676, 90.0628, 0, -0.000976562, -0.00195312, -0.0664062, 0.288086, -9.73828, 1.18.2022 20:55:30.530
545, 1.69145, 0.37676, 90.0628, -0.000976562, -0.000976562, 0, -0.03125, 0.293945, -9.76953, 1.18.2022 20:55:30.538
546, 1.69145, 0.37676, 90.0628, -0.000976562, 0, -0.00195312, -0.110352, 0.303711, -9.78516, 1.18.2022 20:55:30.546
547, 1.69145, 0.37676, 90.0628, -0.000976562, -0.000976562, -0.00195312, -0.0283203, 0.273438, -9.7373, 1.18.2022 20:55:30.554
548, 1.69145, 0.37676, 90.0628, 0, -0.000976562, 0, -0.0615234, 0.242188, -9.72363, 1.18.2022 20:55:30.562
549, 1.69145, 0.37676, 90.0628, -0.000976562, 0, 0, -0.0908203, 0.291016, -9.73828, 1.18.2022 20:55:30.570
550, 1.69145, 0.37676, 90.0628, -0.000976562, -0.000976562, 0, -0.0234375, 0.290039, -9.72754, 1.18.2022 20:55:30.578
551, 1.69145, 0.37676, 90.0628, 0, 0, 0, -0.117188, 0.325195, -9.7793, 1.18.2022 20:55:30.584
552, 1.69145, 0.37676, 90.0628, -0.000976562, 0, 0, -0.0566406, 0.304688, -9.74121, 1.18.2022 20:55:30.592
553, 1.69145, 0.37676, 90.0628, 0, 0, 0, -0.03125, 0.271484, -9.75391, 1.18.2022 20:55:30.600
554, 1.69145, 0.37676, 90.0628, -0.000976562, 0, 0.000976562, -0.116211, 0.306641, -9.72363, 1.18.2022 20:55:30.608
555, 1.69145, 0.37676, 90.0628, -0.000976562, 0, -0.00195312, -0.0351562, 0.273438, -9.72559, 1.18.2022 20:55:30.616
556, 1.69145, 0.37676, 90.0628, -0.000976562, 0, 0, -0.0380859, 0.237305, -9.73145, 1.18.2022 20:55:30.624
557, 1.69145, 0.37676, 90.0628, -0.000976562, 0, 0, -0.0966797, 0.303711, -9.7002, 1.18.2022 20:55:30.632
558, 1.69145, 0.37676, 90.0628, -0.000976562, -0.000976562, 0, -0.0214844, 0.298828, -9.76758, 1.18.2022 20:55:30.640
559, 1.69145, 0.37676, 90.0628, -0.000976562, -0.000976562, 0.000976562, -0.113281, 0.290039, -9.70703, 1.18.2022 20:55:30.648
560, 1.69145, 0.37676, 90.0628, -0.000976562, -0.000976562, 0.000976562, -0.0830078, 0.27832, -9.73438, 1.18.2022 20:55:30.656
561, 1.69145, 0.37676, 90.0628, -0.000976562, -0.000976562, 0, -0.0400391, 0.243164, -9.74316, 1.18.2022 20:55:30.664
562, 1.69145, 0.37676, 90.0628, -0.000976562, -0.000976562, 0, -0.125977, 0.316406, -9.73242, 1.18.2022 20:55:30.672
563, 1.69145, 0.37676, 90.0628, -0.000976562, -0.000976562, -0.00195312, -0.0166016, 0.293945, -9.77441, 1.18.2022 20:55:30.680
564, 1.69145, 0.37676, 90.0628, -0.000976562, -0.000976562, -0.00195312, -0.0419922, 0.292969, -9.72754, 1.18.2022 20:55:30.688
565, 1.69145, 0.37676, 90.0628, 0, -0.000976562, 0, -0.116211, 0.285156, -9.71484, 1.18.2022 20:55:30.696
566, 1.69145, 0.37676, 90.0628, -0.000976562, -0.000976562, 0, -0.0537109, 0.277344, -9.69922, 1.18.2022 20:55:30.704
567, 1.69145, 0.37676, 90.0628, -0.000976562, 0, 0, -0.0830078, 0.266602, -9.74609, 1.18.2022 20:55:30.712
568, 1.69145, 0.37676, 90.0628, -0.000976562, 0, 0, -0.0996094, 0.28125, -9.74121, 1.18.2022 20:55:30.720
569, 1.69145, 0.37676, 90.0628, -0.000976562, 0, -0.00195312, -0.0136719, 0.264648, -9.74023, 1.18.2022 20:55:30.728
570, 1.69145, 0.37676, 90.0628, -0.000976562, -0.000976562, -0.00195312, -0.140625, 0.305664, -9.76562, 1.18.2022 20:55:30.736
571, 1.69144, 0.38665, 90.0626, -0.000976562, -0.000976562, -0.00195312, -0.0517578, 0.324219, -9.72852, 1.18.2022 20:55:30.744
572, 1.69144, 0.38665, 90.0626, -0.000976562, -0.000976562, 0.000976562, -0.0898438, 0.291992, -9.71973, 1.18.2022 20:55:30.752
573, 1.69144, 0.38665, 90.0626, 0, -0.000976562, 0.000976562, -0.12793, 0.304688, -9.73047, 1.18.2022 20:55:30.760
574, 1.69144, 0.38665, 90.0626, 0, -0.00195312, -0.000976562, -0.0283203, 0.28125, -9.74707, 1.18.2022 20:55:30.768
575, 1.69144, 0.38665, 90.0626, -0.000976562, -0.000976562, 0, -0.0859375, 0.266602, -9.74805, 1.18.2022 20:55:30.776
576, 1.69144, 0.38665, 90.0626, -0.000976562, 0, 0, -0.0927734, 0.306641, -9.72559, 1.18.2022 20:55:30.784
577, 1.69144, 0.38665, 90.0626, 0, -0.000976562, 0, -0.0263672, 0.264648, -9.75879, 1.18.2022 20:55:30.792
578, 1.6865, 0.391592, 90.0626, 0, -0.000976562, 0, -0.118164, 0.314453, -9.72266, 1.18.2022 20:55:30.800
579, 1.6865, 0.391592, 90.0626, 0, 0, 0.000976562, -0.0664062, 0.302734, -9.7334, 1.18.2022 20:55:30.808
580, 1.69144, 0.39654, 90.0625, -0.000976562, -0.000976562, 0.000976562, -0.0380859, 0.263672, -9.73535, 1.18.2022 20:55:30.816
581, 1.69144, 0.39654, 90.0625, 0, -0.000976562, 0.000976562, -0.112305, 0.288086, -9.74023, 1.18.2022 20:55:30.824
582, 1.69144, 0.39654, 90.0625, -0.000976562, -0.000976562, -0.00195312, -0.0332031, 0.270508, -9.72363, 1.18.2022 20:55:30.832
583, 1.69144, 0.39654, 90.0625, -0.000976562, -0.000976562, -0.00195312, -0.0546875, 0.320312, -9.76172, 1.18.2022 20:55:30.840
584, 1.69144, 0.39654, 90.0625, -0.000976562, -0.000976562, 0.000976562, -0.0927734, 0.318359, -9.77051, 1.18.2022 20:55:30.848
585, 1.69144, 0.39654, 90.0625, 0, 0, 0.000976562, -0.00976562, 0.288086, -9.74414, 1.18.2022 20:55:30.856
586, 1.69144, 0.39654, 90.0625, -0.000976562, 0, 0.000976562, -0.0644531, 0.286133, -9.73438, 1.18.2022 20:55:30.864
587, 1.69167, 0.39645, 90.0625, -0.000976562, 0, -0.000976562, -0.0644531, 0.288086, -9.74805, 1.18.2022 20:55:30.872
588, 1.69167, 0.39645, 90.0625, 0, 0, -0.000976562, -0.0214844, 0.258789, -9.72559, 1.18.2022 20:55:30.880
589, 1.69167, 0.39645, 90.0625, 0, -0.000976562, -0.000976562, -0.0859375, 0.307617, -9.74023, 1.18.2022 20:55:30.888
590, 1.69167, 0.39645, 90.0625, -0.000976562, -0.000976562, -0.000976562, -0.0302734, 0.30957, -9.73438, 1.18.2022 20:55:30.896
591, 1.69167, 0.39645, 90.0625, -0.000976562, -0.000976562, 0.000976562, -0.0449219, 0.297852, -9.72656, 1.18.2022 20:55:30.904
592, 1.69661, 0.401397, 90.0623, -0.00195312, -0.000976562, 0.000976562, -0.0908203, 0.300781, -9.75879, 1.18.2022 20:55:30.912
593, 1.69661, 0.401397, 90.0623, -0.00195312, -0.000976562, -0.000976562, -0.0214844, 0.264648, -9.74219, 1.18.2022 20:55:30.920
594, 1.70156, 0.396455, 90.0623, -0.00195312, -0.000976562, -0.00195312, -0.0966797, 0.253906, -9.71289, 1.18.2022 20:55:30.928
595, 1.70156, 0.396455, 90.0623, -0.000976562, -0.000976562, -0.000976562, -0.0927734, 0.296875, -9.72168, 1.18.2022 20:55:30.936
596, 1.70156, 0.396455, 90.0623, 0, 0, -0.00195312, -0.0371094, 0.285156, -9.71777, 1.18.2022 20:55:30.944
597, 1.69638, 0.391597, 90.0625, -0.000976562, -0.000976562, -0.00195312, -0.124023, 0.331055, -9.73438, 1.18.2022 20:55:30.952
598, 1.69638, 0.391597, 90.0625, 0, 0, 0.000976562, -0.0859375, 0.322266, -9.75195, 1.18.2022 20:55:30.960
599, 1.69662, 0.391507, 90.0625, 0, 0, 0.000976562, -0.0791016, 0.298828, -9.76465, 1.18.2022 20:55:30.968
600, 1.69662, 0.391507, 90.0625, -0.000976562, -0.000976562, 0.000976562, -0.0966797, 0.303711, -9.69043, 1.18.2022 20:55:30.976
601, 1.70651, 0.391512, 90.0623, -0.000976562, 0, -0.000976562, -0.0146484, 0.28418, -9.76562, 1.18.2022 20:55:30.984
602, 1.70651, 0.391512, 90.0623, -0.000976562, 0, -0.00195312, -0.0732422, 0.264648, -9.73438, 1.18.2022 20:55:30.992
603, 1.70651, 0.391512, 90.0623, -0.000976562, 0, -0.000976562, -0.0859375, 0.317383, -9.74023, 1.18.2022 20:55:31.000
604, 1.70651, 0.391512, 90.0623, -0.000976562, -0.000976562, -0.000976562, -0.0400391, 0.276367, -9.73438, 1.18.2022 20:55:31.008
605, 1.70651, 0.391512, 90.0623, -0.000976562, -0.00195312, -0.000976562, -0.109375, 0.279297, -9.75195, 1.18.2022 20:55:31.016
606, 1.70651, 0.391512, 90.0623, -0.000976562, -0.000976562, 0.000976562, -0.100586, 0.272461, -9.78613, 1.18.2022 20:55:31.024
607, 1.70651, 0.391512, 90.0623, 0, -0.000976562, -0.00195312, -0.0400391, 0.256836, -9.73535, 1.18.2022 20:55:31.032
608, 1.70651, 0.391512, 90.0623, -0.000976562, -0.000976562, -0.00195312, -0.119141, 0.327148, -9.74121, 1.18.2022 20:55:31.040
609, 1.70651, 0.391512, 90.0623, -0.000976562, -0.00195312, -0.000976562, -0.0380859, 0.288086, -9.72949, 1.18.2022 20:55:31.048
610, 1.70651, 0.391512, 90.0623, 0, 0, -0.000976562, -0.0742188, 0.294922, -9.79785, 1.18.2022 20:55:31.056
611, 1.70651, 0.391512, 90.0623, 0, -0.00195312, 0, -0.0546875, 0.303711, -9.77148, 1.18.2022 20:55:31.064
612, 1.71145, 0.39646, 90.0621, -0.000976562, -0.000976562, 0.000976562, 0.0126953, 0.261719, -9.7334, 1.18.2022 20:55:31.072
613, 1.71145, 0.39646, 90.0621, -0.000976562, -0.000976562, -0.000976562, -0.102539, 0.254883, -9.74414, 1.18.2022 20:55:31.080
614, 1.71145, 0.39646, 90.0621, -0.000976562, -0.000976562, 0, -0.0878906, 0.297852, -9.75195, 1.18.2022 20:55:31.088
615, 1.71145, 0.39646, 90.0621, -0.000976562, -0.000976562, 0, -0.03125, 0.28418, -9.7627, 1.18.2022 20:55:31.096
616, 1.71145, 0.39646, 90.0621, 0, -0.000976562, -0.000976562, -0.119141, 0.304688, -9.7373, 1.18.2022 20:55:31.104
617, 1.71145, 0.39646, 90.0621, -0.000976562, 0, -0.000976562, -0.0400391, 0.290039, -9.71973, 1.18.2022 20:55:31.112
618, 1.70651, 0.391512, 90.0623, 0, -0.000976562, 0, -0.0771484, 0.265625, -9.77441, 1.18.2022 20:55:31.120
619, 1.70651, 0.391512, 90.0623, 0, -0.000976562, -0.000976562, -0.0947266, 0.286133, -9.74023, 1.18.2022 20:55:31.128
620, 1.70156, 0.396455, 90.0623, -0.00195312, -0.000976562, -0.000976562, -0.0263672, 0.259766, -9.73535, 1.18.2022 20:55:31.136
621, 1.70156, 0.396455, 90.0623, -0.000976562, -0.000976562, -0.000976562, -0.0830078, 0.28418, -9.75293, 1.18.2022 20:55:31.144
622, 1.70156, 0.396455, 90.0623, -0.000976562, -0.000976562, -0.00195312, -0.0878906, 0.294922, -9.72656, 1.18.2022 20:55:31.152
623, 1.70156, 0.396455, 90.0623, -0.000976562, -0.000976562, -0.000976562, -0.0185547, 0.294922, -9.73926, 1.18.2022 20:55:31.160
624, 1.70156, 0.396455, 90.0623, -0.000976562, 0, -0.000976562, -0.114258, 0.296875, -9.77051, 1.18.2022 20:55:31.168
625, 1.70156, 0.396455, 90.0623, 0, -0.000976562, -0.000976562, -0.0351562, 0.272461, -9.70703, 1.18.2022 20:55:31.176
626, 1.70156, 0.396455, 90.0623, 0, -0.000976562, -0.000976562, -0.0644531, 0.295898, -9.74121, 1.18.2022 20:55:31.184
627, 1.70156, 0.396455, 90.0623, 0, -0.000976562, -0.000976562, -0.0947266, 0.301758, -9.72559, 1.18.2022 20:55:31.192
628, 1.70156, 0.396455, 90.0623, -0.000976562, -0.000976562, -0.000976562, -0.0478516, 0.28418, -9.76953, 1.18.2022 20:55:31.200
629, 1.70156, 0.396455, 90.0623, 0, -0.00195312, -0.000976562, -0.0507812, 0.277344, -9.78223, 1.18.2022 20:55:31.208
630, 1.70156, 0.396455, 90.0623, 0, -0.00195312, -0.000976562, -0.0898438, 0.292969, -9.73145, 1.18.2022 20:55:31.216
631, 1.70156, 0.396455, 90.0623, 0, 0.000976562, -0.000976562, -0.0117188, 0.27832, -9.72559, 1.18.2022 20:55:31.224
632, 1.69662, 0.391507, 90.0625, 0, -0.000976562, -0.000976562, -0.0947266, 0.290039, -9.7168, 1.18.2022 20:55:31.232
633, 1.69662, 0.391507, 90.0625, 0, -0.000976562, -0.000976562, -0.0810547, 0.307617, -9.74023, 1.18.2022 20:55:31.240
634, 1.69662, 0.391507, 90.0625, 0, -0.000976562, -0.000976562, -0.0566406, 0.258789, -9.70215, 1.18.2022 20:55:31.248
635, 1.69662, 0.391507, 90.0625, 0, 0, 0, -0.121094, 0.290039, -9.7168, 1.18.2022 20:55:31.256
636, 1.69662, 0.391507, 90.0625, 0, 0, -0.000976562, -0.0273438, 0.267578, -9.69531, 1.18.2022 20:55:31.264
637, 1.69662, 0.391507, 90.0625, -0.000976562, 0, -0.000976562, -0.0693359, 0.287109, -9.7832, 1.18.2022 20:55:31.272
638, 1.69662, 0.391507, 90.0625, 0, 0, -0.000976562, -0.0761719, 0.311523, -9.73047, 1.18.2022 20:55:31.280
639, 1.69638, 0.391597, 90.0625, -0.000976562, 0, -0.00195312, -0.015625, 0.283203, -9.80566, 1.18.2022 20:55:31.288
640, 1.69638, 0.391597, 90.0625, -0.000976562, 0, 0, -0.108398, 0.304688, -9.79395, 1.18.2022 20:55:31.296
641, 1.69168, 0.38656, 90.0626, -0.000976562, -0.000976562, 0, -0.0859375, 0.293945, -9.77148, 1.18.2022 20:55:31.304
642, 1.69168, 0.38656, 90.0626, -0.000976562, 0, 0, -0.00292969, 0.250977, -9.77148, 1.18.2022 20:55:31.312
643, 1.69168, 0.38656, 90.0626, -0.000976562, -0.000976562, 0, -0.112305, 0.300781, -9.76172, 1.18.2022 20:55:31.320
644, 1.69168, 0.38656, 90.0626, 0, 0, -0.000976562, -0.0283203, 0.283203, -9.7207, 1.18.2022 20:55:31.328
645, 1.69168, 0.38656, 90.0626, 0, 0, -0.00195312, -0.0664062, 0.261719, -9.74902, 1.18.2022 20:55:31.336
646, 1.69168, 0.38656, 90.0626, -0.000976562, 0, -0.000976562, -0.102539, 0.316406, -9.73242, 1.18.2022 20:55:31.344
647, 1.69168, 0.38656, 90.0626, 0, -0.000976562, -0.000976562, -0.0117188, 0.288086, -9.73438, 1.18.2022 20:55:31.352
648, 1.69168, 0.38656, 90.0626, -0.000976562, 0, 0, -0.107422, 0.28418, -9.7666, 1.18.2022 20:55:31.360
649, 1.69168, 0.38656, 90.0626, -0.000976562, -0.000976562, -0.000976562, -0.0810547, 0.3125, -9.74219, 1.18.2022 20:55:31.368
650, 1.69168, 0.38656, 90.0626, -0.000976562, -0.000976562, -0.00195312, -0.0117188, 0.254883, -9.76367, 1.18.2022 20:55:31.376
651, 1.69168, 0.38656, 90.0626, -0.000976562, 0, -0.000976562, -0.116211, 0.311523, -9.72266, 1.18.2022 20:55:31.384
652, 1.69168, 0.38656, 90.0626, 0, 0, -0.000976562, -0.0185547, 0.307617, -9.74609, 1.18.2022 20:55:31.392
653, 1.69168, 0.38656, 90.0626, -0.000976562, 0, 0, -0.0546875, 0.285156, -9.73145, 1.18.2022 20:55:31.400
654, 1.69168, 0.38656, 90.0626, -0.000976562, 0, 0, -0.104492, 0.291016, -9.75195, 1.18.2022 20:55:31.408
655, 1.69168, 0.38656, 90.0626, -0.000976562, -0.000976562, -0.000976562, -0.0126953, 0.262695, -9.77539, 1.18.2022 20:55:31.416
656, 1.69168, 0.38656, 90.0626, 0, -0.000976562, -0.000976562, -0.0791016, 0.287109, -9.7832, 1.18.2022 20:55:31.424
657, 1.69168, 0.38656, 90.0626, 0, -0.000976562, -0.000976562, -0.0693359, 0.295898, -9.75, 1.18.2022 20:55:31.432
658, 1.69168, 0.376671, 90.0628, -0.000976562, 0, -0.000976562, 0, 0.30957, -9.75293, 1.18.2022 20:55:31.440
659, 1.69168, 0.376671, 90.0628, -0.000976562, 0, 0, -0.133789, 0.308594, -9.77734, 1.18.2022 20:55:31.448
660, 1.69168, 0.376671, 90.0628, -0.000976562, 0, -0.000976562, -0.0810547, 0.271484, -9.73145, 1.18.2022 20:55:31.456
661, 1.69168, 0.376671, 90.0628, -0.000976562, 0, -0.000976562, -0.0625, 0.277344, -9.76953, 1.18.2022 20:55:31.464
662, 1.69168, 0.376671, 90.0628, 0, 0, -0.000976562, -0.0957031, 0.254883, -9.75293, 1.18.2022 20:55:31.472
663, 1.69168, 0.376671, 90.0628, 0, -0.000976562, -0.00195312, -0.0380859, 0.301758, -9.72949, 1.18.2022 20:55:31.480
664, 1.69168, 0.376671, 90.0628, 0, 0, -0.000976562, -0.100586, 0.303711, -9.76562, 1.18.2022 20:55:31.488
665, 1.69168, 0.376671, 90.0628, -0.000976562, -0.000976562, -0.000976562, -0.0996094, 0.311523, -9.71582, 1.18.2022 20:55:31.496
666, 1.69168, 0.376671, 90.0628, -0.000976562, -0.000976562, -0.000976562, -0.0185547, 0.286133, -9.7373, 1.18.2022 20:55:31.504
667, 1.69168, 0.376671, 90.0628, -0.000976562, -0.000976562, -0.000976562, -0.107422, 0.295898, -9.75391, 1.18.2022 20:55:31.512
668, 1.69662, 0.381618, 90.0626, 0, -0.000976562, -0.000976562, -0.0566406, 0.311523, -9.7168, 1.18.2022 20:55:31.520
669, 1.69662, 0.381618, 90.0626, 0, -0.000976562, -0.000976562, -0.0400391, 0.271484, -9.74902, 1.18.2022 20:55:31.528
670, 1.69662, 0.381618, 90.0626, 0, 0, 0, -0.111328, 0.288086, -9.73535, 1.18.2022 20:55:31.536
671, 1.69662, 0.381618, 90.0626, 0, 0, -0.000976562, -0.0625, 0.263672, -9.80273, 1.18.2022 20:55:31.544
672, 1.69662, 0.381618, 90.0626, -0.000976562, 0, -0.000976562, -0.0859375, 0.254883, -9.74902, 1.18.2022 20:55:31.550
673, 1.69662, 0.381618, 90.0626, 0, -0.000976562, 0, -0.0957031, 0.28418, -9.75488, 1.18.2022 20:55:31.558
674, 1.69662, 0.381618, 90.0626, -0.000976562, -0.00195312, 0, -0.0361328, 0.246094, -9.7832, 1.18.2022 20:55:31.566
675, 1.69662, 0.381618, 90.0626, -0.000976562, -0.000976562, -0.000976562, -0.0898438, 0.28125, -9.7334, 1.18.2022 20:55:31.574
676, 1.69662, 0.381618, 90.0626, 0, -0.000976562, -0.000976562, -0.0712891, 0.318359, -9.71875, 1.18.2022 20:55:31.582
677, 1.69662, 0.381618, 90.0626, 0, 0, -0.00195312, -0.0146484, 0.292969, -9.74609, 1.18.2022 20:55:31.590
678, 1.69168, 0.38656, 90.0626, 0, -0.000976562, -0.00195312, -0.12793, 0.333008, -9.72461, 1.18.2022 20:55:31.598
679, 1.69168, 0.38656, 90.0626, 0, -0.000976562, -0.000976562, -0.0527344, 0.277344, -9.77734, 1.18.2022 20:55:31.606
680, 1.69168, 0.38656, 90.0626, 0, 0, -0.000976562, -0.0429688, 0.259766, -9.7373, 1.18.2022 20:55:31.614
681, 1.69168, 0.38656, 90.0626, -0.000976562, -0.000976562, -0.000976562, -0.104492, 0.305664, -9.74707, 1.18.2022 20:55:31.622
682, 1.69144, 0.38665, 90.0626, 0, -0.000976562, -0.00195312, -0.0117188, 0.285156, -9.7207, 1.18.2022 20:55:31.630
683, 1.69144, 0.38665, 90.0626, -0.000976562, -0.000976562, -0.000976562, -0.0859375, 0.314453, -9.74023, 1.18.2022 20:55:31.638
684, 1.69144, 0.38665, 90.0626, 0, -0.000976562, -0.000976562, -0.0644531, 0.302734, -9.75977, 1.18.2022 20:55:31.646
685, 1.69144, 0.38665, 90.0626, 0, -0.000976562, -0.000976562, 0.00292969, 0.266602, -9.74023, 1.18.2022 20:55:31.654
686, 1.69144, 0.38665, 90.0626, 0, 0, -0.000976562, -0.105469, 0.308594, -9.77051, 1.18.2022 20:55:31.662
687, 1.69144, 0.38665, 90.0626, 0, 0, -0.000976562, -0.0615234, 0.290039, -9.73438, 1.18.2022 20:55:31.670
688, 1.69144, 0.38665, 90.0626, 0, 0, 0.000976562, -0.0742188, 0.236328, -9.75684, 1.18.2022 20:55:31.678
689, 1.69144, 0.38665, 90.0626, 0, -0.000976562, -0.000976562, -0.140625, 0.290039, -9.72754, 1.18.2022 20:55:31.686
690, 1.69144, 0.38665, 90.0626, 0, 0, -0.000976562, -0.0332031, 0.263672, -9.71387, 1.18.2022 20:55:31.694
691, 1.69144, 0.38665, 90.0626, -0.000976562, -0.000976562, -0.000976562, -0.0498047, 0.283203, -9.73633, 1.18.2022 20:55:31.702
692, 1.69144, 0.38665, 90.0626, 0, 0, -0.000976562, -0.0878906, 0.302734, -9.74023, 1.18.2022 20:55:31.710
693, 1.69144, 0.38665, 90.0626, -0.000976562, -0.000976562, -0.000976562, -0.0283203, 0.269531, -9.74414, 1.18.2022 20:55:31.718
694, 1.69144, 0.38665, 90.0626, -0.000976562, -0.000976562, 0, -0.0791016, 0.298828, -9.76172, 1.18.2022 20:55:31.726
695, 1.69144, 0.38665, 90.0626, -0.000976562, 0, -0.000976562, -0.0615234, 0.319336, -9.72852, 1.18.2022 20:55:31.734
696, 1.69144, 0.38665, 90.0626, -0.000976562, -0.000976562, -0.000976562, -0.03125, 0.259766, -9.74902, 1.18.2022 20:55:31.742
697, 1.69144, 0.38665, 90.0626, -0.00195312, 0, -0.00195312, -0.111328, 0.316406, -9.71582, 1.18.2022 20:55:31.750
698, 1.69144, 0.38665, 90.0626, 0, -0.000976562, 0, -0.0498047, 0.335938, -9.74707, 1.18.2022 20:55:31.758
699, 1.69144, 0.38665, 90.0626, -0.000976562, -0.000976562, -0.000976562, -0.046875, 0.272461, -9.69922, 1.18.2022 20:55:31.766
700, 1.69144, 0.38665, 90.0626, -0.000976562, 0, -0.000976562, -0.0810547, 0.326172, -9.73535, 1.18.2022 20:55:31.774
701, 1.69144, 0.38665, 90.0626, 0, -0.000976562, -0.00195312, 0.00292969, 0.261719, -9.74512, 1.18.2022 20:55:31.782
702, 1.69144, 0.38665, 90.0626, 0, -0.000976562, -0.000976562, -0.0927734, 0.276367, -9.73828, 1.18.2022 20:55:31.790
703, 1.69144, 0.38665, 90.0626, -0.000976562, 0, -0.00195312, -0.078125, 0.314453, -9.72852, 1.18.2022 20:55:31.798
704, 1.69144, 0.38665, 90.0626, -0.000976562, -0.000976562, -0.000976562, -0.0195312, 0.277344, -9.78906, 1.18.2022 20:55:31.806
705, 1.69639, 0.381708, 90.0626, -0.000976562, -0.00195312, -0.000976562, -0.106445, 0.319336, -9.73438, 1.18.2022 20:55:31.814
706, 1.69639, 0.381708, 90.0626, -0.000976562, -0.000976562, -0.000976562, -0.03125, 0.28418, -9.76074, 1.18.2022 20:55:31.822
707, 1.69639, 0.381708, 90.0626, -0.000976562, 0, -0.000976562, -0.0615234, 0.248047, -9.74219, 1.18.2022 20:55:31.830
708, 1.69639, 0.381708, 90.0626, 0, 0, -0.000976562, -0.118164, 0.301758, -9.71582, 1.18.2022 20:55:31.838
709, 1.69639, 0.381708, 90.0626, 0, -0.000976562, -0.00195312, -0.0351562, 0.291016, -9.74609, 1.18.2022 20:55:31.846
710, 1.69639, 0.381708, 90.0626, -0.000976562, -0.000976562, 0, -0.0576172, 0.28418, -9.75977, 1.18.2022 20:55:31.854
711, 1.69639, 0.381708, 90.0626, 0, -0.000976562, 0, -0.0947266, 0.302734, -9.73535, 1.18.2022 20:55:31.862
712, 1.69639, 0.381708, 90.0626, 0, 0, 0, -0.0322266, 0.28418, -9.69727, 1.18.2022 20:55:31.870
713, 1.69639, 0.381708, 90.0626, 0.000976562, -0.000976562, 0, -0.12793, 0.294922, -9.72852, 1.18.2022 20:55:31.878
714, 1.69639, 0.381708, 90.0626, -0.000976562, -0.000976562, 0, -0.0615234, 0.292969, -9.74609, 1.18.2022 20:55:31.886
715, 1.70133, 0.376765, 90.0626, -0.000976562, 0, 0, -0.0595703, 0.263672, -9.72266, 1.18.2022 20:55:31.894
716, 1.70133, 0.376765, 90.0626, 0, -0.000976562, 0, -0.104492, 0.302734, -9.74023, 1.18.2022 20:55:31.902
717, 1.70133, 0.376765, 90.0626, -0.000976562, 0, -0.000976562, -0.0166016, 0.269531, -9.76172, 1.18.2022 20:55:31.910
718, 1.70133, 0.376765, 90.0626, -0.000976562, 0, 0, -0.0576172, 0.291016, -9.76758, 1.18.2022 20:55:31.918
719, 1.70133, 0.376765, 90.0626, -0.000976562, 0, 0, -0.078125, 0.333008, -9.72266, 1.18.2022 20:55:31.926
720, 1.70133, 0.376765, 90.0626, 0, 0, 0, -0.0283203, 0.285156, -9.73438, 1.18.2022 20:55:31.934
721, 1.70133, 0.376765, 90.0626, 0, -0.000976562, 0, -0.128906, 0.28418, -9.74707, 1.18.2022 20:55:31.942
722, 1.70133, 0.376765, 90.0626, 0, -0.000976562, 0, -0.0761719, 0.295898, -9.74805, 1.18.2022 20:55:31.950
723, 1.70133, 0.376765, 90.0626, -0.000976562, 0, 0, -0.0478516, 0.277344, -9.78223, 1.18.2022 20:55:31.958
724, 1.70628, 0.381713, 90.0625, -0.000976562, -0.000976562, 0, -0.132812, 0.299805, -9.72754, 1.18.2022 20:55:31.966
725, 1.70628, 0.381713, 90.0625, -0.000976562, -0.000976562, 0, -0.0517578, 0.286133, -9.73633, 1.18.2022 20:55:31.974
726, 1.70628, 0.381713, 90.0625, 0, -0.000976562, -0.00195312, -0.0410156, 0.267578, -9.77539, 1.18.2022 20:55:31.982
727, 1.70628, 0.381713, 90.0625, 0, -0.000976562, 0, -0.12207, 0.300781, -9.75684, 1.18.2022 20:55:31.990
728, 1.70628, 0.381713, 90.0625, -0.000976562, -0.000976562, 0, -0.0332031, 0.263672, -9.71387, 1.18.2022 20:55:31.998
729, 1.70628, 0.381713, 90.0625, -0.000976562, -0.000976562, 0, -0.0957031, 0.267578, -9.75488, 1.18.2022 20:55:32.006
730, 1.70628, 0.381713, 90.0625, 0, -0.000976562, 0, -0.0419922, 0.282227, -9.71582, 1.18.2022 20:55:32.014
731, 1.70133, 0.386655, 90.0625, -0.000976562, 0, 0, -0.0371094, 0.255859, -9.71387, 1.18.2022 20:55:32.022
732, 1.70133, 0.386655, 90.0625, -0.000976562, 0, 0, -0.143555, 0.275391, -9.77051, 1.18.2022 20:55:32.030
733, 1.70133, 0.386655, 90.0625, 0, -0.000976562, 0, -0.0400391, 0.302734, -9.73828, 1.18.2022 20:55:32.038
734, 1.70133, 0.386655, 90.0625, -0.000976562, -0.000976562, 0, -0.0488281, 0.296875, -9.70117, 1.18.2022 20:55:32.046
735, 1.70133, 0.386655, 90.0625, -0.000976562, -0.000976562, 0.000976562, -0.108398, 0.326172, -9.71094, 1.18.2022 20:55:32.054
736, 1.70133, 0.386655, 90.0625, -0.000976562, 0, 0, 0.00976562, 0.28125, -9.75684, 1.18.2022 20:55:32.062
737, 1.70133, 0.386655, 90.0625, -0.000976562, -0.000976562, -0.00195312, -0.0908203, 0.263672, -9.78906, 1.18.2022 20:55:32.070
738, 1.70133, 0.386655, 90.0625, -0.000976562, -0.000976562, 0, -0.0595703, 0.341797, -9.76562, 1.18.2022 20:55:32.078
739, 1.70133, 0.386655, 90.0625, 0, 0, -0.00195312, -0.00488281, 0.283203, -9.74902, 1.18.2022 20:55:32.086
740, 1.70133, 0.386655, 90.0625, 0, 0, 0, -0.0947266, 0.27832, -9.73828, 1.18.2022 20:55:32.094
741, 1.70133, 0.386655, 90.0625, -0.000976562, 0, 0, -0.0566406, 0.295898, -9.74316, 1.18.2022 20:55:32.102
742, 1.70133, 0.386655, 90.0625, -0.000976562, 0, 0, -0.03125, 0.249023, -9.79199, 1.18.2022 20:55:32.110
743, 1.70133, 0.386655, 90.0625, 0, -0.000976562, 0, -0.111328, 0.286133, -9.73828, 1.18.2022 20:55:32.118
744, 1.70133, 0.386655, 90.0625, 0, 0, 0, -0.046875, 0.283203, -9.71777, 1.18.2022 20:55:32.126
745, 1.70133, 0.386655, 90.0625, 0, 0, 0, -0.0488281, 0.270508, -9.79395, 1.18.2022 20:55:32.134
746, 1.70133, 0.386655, 90.0625, -0.000976562, 0, 0, -0.0908203, 0.303711, -9.78516, 1.18.2022 20:55:32.142
747, 1.69639, 0.381708, 90.0626, 0, -0.000976562, 0, -0.00683594, 0.297852, -9.75781, 1.18.2022 20:55:32.150
748, 1.69639, 0.381708, 90.0626, -0.000976562, 0, 0, -0.0878906, 0.306641, -9.72363, 1.18.2022 20:55:32.158
749, 1.69639, 0.381708, 90.0626, 0, -0.000976562, 0, -0.0595703, 0.293945, -9.77441, 1.18.2022 20:55:32.166
750, 1.69639, 0.381708, 90.0626, -0.000976562, -0.000976562, 0, -0.0332031, 0.285156, -9.7207, 1.18.2022 20:55:32.174
751, 1.69639, 0.381708, 90.0626, 0, -0.000976562, 0, -0.135742, 0.292969, -9.7207, 1.18.2022 20:55:32.182
752, 1.69639, 0.381708, 90.0626, 0, -0.000976562, 0, -0.0332031, 0.294922, -9.71973, 1.18.2022 20:55:32.190
753, 1.69639, 0.381708, 90.0626, 0, -0.000976562, 0.000976562, -0.0664062, 0.311523, -9.7334, 1.18.2022 20:55:32.198
754, 1.69639, 0.381708, 90.0626, -0.000976562, -0.000976562, 0.000976562, -0.116211, 0.294922, -9.72363, 1.18.2022 20:55:32.206
755, 1.69639, 0.381708, 90.0626, -0.00195312, -0.000976562, 0, 0.00292969, 0.266602, -9.74023, 1.18.2022 20:55:32.214
756, 1.69639, 0.381708, 90.0626, -0.000976562, -0.000976562, 0, -0.0957031, 0.266602, -9.75098, 1.18.2022 20:55:32.222
757, 1.69639, 0.381708, 90.0626, -0.000976562, -0.000976562, 0.000976562, -0.0732422, 0.328125, -9.69727, 1.18.2022 20:55:32.230
758, 1.69639, 0.381708, 90.0626, 0, -0.000976562, 0, -0.0351562, 0.294922, -9.73145, 1.18.2022 20:55:32.238
759, 1.70133, 0.376765, 90.0626, 0, 0, 0, -0.138672, 0.301758, -9.79102, 1.18.2022 20:55:32.246
760, 1.70133, 0.376765, 90.0626, -0.00195312, 0, 0, -0.0419922, 0.294922, -9.71289, 1.18.2022 20:55:32.254
761, 1.70133, 0.376765, 90.0626, -0.000976562, 0, 0, -0.0439453, 0.287109, -9.79785, 1.18.2022 20:55:32.262
762, 1.70133, 0.376765, 90.0626, -0.000976562, -0.000976562, 0, -0.116211, 0.321289, -9.73242, 1.18.2022 20:55:32.270
763, 1.70133, 0.376765, 90.0626, -0.000976562, -0.000976562, 0, -0.0332031, 0.302734, -9.7627, 1.18.2022 20:55:32.278
764, 1.70133, 0.376765, 90.0626, -0.000976562, 0, 0, -0.0927734, 0.264648, -9.73926, 1.18.2022 20:55:32.286
765, 1.70157, 0.376676, 90.0626, -0.000976562, 0, 0.000976562, -0.0712891, 0.280273, -9.72949, 1.18.2022 20:55:32.294
766, 1.70651, 0.381623, 90.0625, 0, -0.000976562, 0.00195312, 0.00683594, 0.250977, -9.76465, 1.18.2022 20:55:32.302
767, 1.70651, 0.381623, 90.0625, 0, -0.000976562, -0.00195312, -0.109375, 0.295898, -9.74023, 1.18.2022 20:55:32.310
768, 1.70651, 0.381623, 90.0625, 0, -0.000976562, 0, -0.0742188, 0.257812, -9.75391, 1.18.2022 20:55:32.318
769, 1.70651, 0.381623, 90.0625, -0.000976562, -0.000976562, 0.000976562, -0.0332031, 0.28125, -9.7373, 1.18.2022 20:55:32.326
770, 1.70651, 0.381623, 90.0625, 0, -0.000976562, 0.000976562, -0.121094, 0.316406, -9.73242, 1.18.2022 20:55:32.334
771, 1.70631, 0.381566, 90.0526, 0, -0.000976562, 0.000976562, -0.0410156, 0.289062, -9.76465, 1.18.2022 20:55:32.342
772, 1.70631, 0.381566, 90.0526, -0.000976562, 0, 0, -0.0615234, 0.283203, -9.73438, 1.18.2022 20:55:32.350
773, 1.70631, 0.381566, 90.0526, 0, -0.000976562, 0, -0.112305, 0.307617, -9.74707, 1.18.2022 20:55:32.358
774, 1.70631, 0.381566, 90.0526, 0, 0, -0.000976562, -0.0166016, 0.276367, -9.75391, 1.18.2022 20:55:32.366
775, 1.70631, 0.381566, 90.0526, 0, -0.000976562, -0.000976562, -0.109375, 0.275391, -9.70801, 1.18.2022 20:55:32.374
776, 1.70631, 0.381566, 90.0526, 0, 0, -0.000976562, -0.0830078, 0.30957, -9.72559, 1.18.2022 20:55:32.382
777, 1.70631, 0.381566, 90.0526, 0, 0, -0.000976562, -0.0371094, 0.291992, -9.69922, 1.18.2022 20:55:32.390
778, 1.70651, 0.381623, 90.0625, -0.000976562, 0, -0.000976562, -0.121094, 0.294922, -9.71387, 1.18.2022 20:55:32.398
779, 1.70651, 0.381623, 90.0625, 0, 0, -0.000976562, -0.0322266, 0.289062, -9.70117, 1.18.2022 20:55:32.406
780, 1.70651, 0.381623, 90.0625, -0.000976562, 0, -0.000976562, -0.0595703, 0.263672, -9.73438, 1.18.2022 20:55:32.414
781, 1.70651, 0.381623, 90.0625, -0.000976562, 0, -0.000976562, -0.0898438, 0.283203, -9.73145, 1.18.2022 20:55:32.422
782, 1.70651, 0.381623, 90.0625, -0.000976562, -0.000976562, -0.000976562, -0.0253906, 0.263672, -9.72363, 1.18.2022 20:55:32.430
783, 1.70651, 0.381623, 90.0625, -0.000976562, -0.000976562, -0.00195312, -0.109375, 0.297852, -9.75, 1.18.2022 20:55:32.438
784, 1.70651, 0.381623, 90.0625, 0, 0, -0.00195312, -0.0800781, 0.347656, -9.71582, 1.18.2022 20:55:32.446
785, 1.70157, 0.386565, 90.0625, -0.000976562, -0.000976562, -0.000976562, -0.0429688, 0.274414, -9.7627, 1.18.2022 20:55:32.454
786, 1.70157, 0.386565, 90.0625, 0, 0, -0.000976562, -0.129883, 0.279297, -9.68555, 1.18.2022 20:55:32.462
787, 1.70157, 0.386565, 90.0625, 0, -0.000976562, -0.000976562, -0.0537109, 0.301758, -9.70508, 1.18.2022 20:55:32.470
788, 1.70133, 0.386655, 90.0625, -0.000976562, -0.000976562, -0.00195312, -0.0644531, 0.290039, -9.73633, 1.18.2022 20:55:32.478
789, 1.70133, 0.386655, 90.0625, -0.000976562, -0.000976562, -0.00195312, -0.0966797, 0.303711, -9.69531, 1.18.2022 20:55:32.486
790, 1.70133, 0.386655, 90.0625, -0.00195312, -0.000976562, -0.00195312, -0.00195312, 0.263672, -9.7168, 1.18.2022 20:55:32.494
791, 1.70627, 0.391603, 90.0623, 0, -0.000976562, -0.000976562, -0.0693359, 0.286133, -9.75098, 1.18.2022 20:55:32.502
792, 1.70627, 0.391603, 90.0623, -0.000976562, -0.000976562, 0, -0.0957031, 0.291992, -9.77832, 1.18.2022 20:55:32.510
793, 1.70627, 0.391603, 90.0623, -0.000976562, 0, -0.000976562, -0.03125, 0.25, -9.73828, 1.18.2022 20:55:32.518
794, 1.70627, 0.391603, 90.0623, -0.000976562, 0, -0.000976562, -0.0878906, 0.28125, -9.73828, 1.18.2022 20:55:32.524
795, 1.70627, 0.391603, 90.0623, -0.000976562, 0, -0.000976562, -0.0380859, 0.295898, -9.74414, 1.18.2022 20:55:32.532
796, 1.70627, 0.391603, 90.0623, 0, -0.000976562, -0.000976562, -0.0576172, 0.277344, -9.76953, 1.18.2022 20:55:32.540
797, 1.70627, 0.391603, 90.0623, 0, -0.000976562, -0.000976562, -0.109375, 0.321289, -9.73047, 1.18.2022 20:55:32.548
798, 1.70627, 0.391603, 90.0623, 0, -0.000976562, -0.000976562, -0.0136719, 0.301758, -9.73242, 1.18.2022 20:55:32.556
799, 1.70627, 0.391603, 90.0623, -0.000976562, 0, -0.000976562, -0.0664062, 0.285156, -9.73145, 1.18.2022 20:55:32.564
800, 1.70627, 0.391603, 90.0623, 0, -0.000976562, -0.000976562, -0.109375, 0.288086, -9.73047, 1.18.2022 20:55:32.572
801, 1.70627, 0.391603, 90.0623, -0.000976562, 0, -0.000976562, -0.015625, 0.273438, -9.71387, 1.18.2022 20:55:32.580
802, 1.70133, 0.386655, 90.0625, 0, 0, -0.000976562, -0.121094, 0.286133, -9.73828, 1.18.2022 20:55:32.588
803, 1.70133, 0.386655, 90.0625, -0.000976562, -0.000976562, -0.000976562, -0.0761719, 0.286133, -9.75, 1.18.2022 20:55:32.596
804, 1.70133, 0.386655, 90.0625, -0.000976562, -0.000976562, -0.000976562, -0.0351562, 0.288086, -9.72461, 1.18.2022 20:55:32.604
805, 1.70133, 0.386655, 90.0625, -0.000976562, 0, -0.000976562, -0.114258, 0.291016, -9.74023, 1.18.2022 20:55:32.612
806, 1.70133, 0.386655, 90.0625, -0.000976562, -0.000976562, 0, -0.0429688, 0.305664, -9.76953, 1.18.2022 20:55:32.620
807, 1.70133, 0.386655, 90.0625, 0, -0.000976562, 0, -0.0644531, 0.28418, -9.75293, 1.18.2022 20:55:32.628
808, 1.70133, 0.386655, 90.0625, 0, 0.000976562, 0, -0.111328, 0.276367, -9.7334, 1.18.2022 20:55:32.636
809, 1.70133, 0.386655, 90.0625, 0, -0.000976562, 0, -0.0195312, 0.272461, -9.77051, 1.18.2022 20:55:32.644
810, 1.70133, 0.386655, 90.0625, 0, -0.000976562, 0, -0.0908203, 0.293945, -9.77148, 1.18.2022 20:55:32.652
811, 1.70133, 0.386655, 90.0625, 0, 0, -0.000976562, -0.0878906, 0.316406, -9.72559, 1.18.2022 20:55:32.660
812, 1.70133, 0.386655, 90.0625, -0.000976562, -0.000976562, 0, -0.0283203, 0.268555, -9.73535, 1.18.2022 20:55:32.668
813, 1.70133, 0.386655, 90.0625, -0.000976562, 0, 0, -0.104492, 0.283203, -9.74512, 1.18.2022 20:55:32.676
814, 1.70133, 0.386655, 90.0625, -0.000976562, 0, 0, -0.0644531, 0.307617, -9.7334, 1.18.2022 20:55:32.684
815, 1.70133, 0.386655, 90.0625, -0.000976562, -0.000976562, 0, -0.0625, 0.277344, -9.76074, 1.18.2022 20:55:32.692
816, 1.69638, 0.391597, 90.0625, -0.000976562, 0, 0.000976562, -0.133789, 0.300781, -9.74707, 1.18.2022 20:55:32.700
817, 1.69638, 0.391597, 90.0625, -0.000976562, -0.000976562, 0, -0.0263672, 0.271484, -9.74902, 1.18.2022 20:55:32.708
818, 1.70132, 0.396545, 90.0623, -0.000976562, -0.000976562, 0.000976562, -0.0566406, 0.288086, -9.74805, 1.18.2022 20:55:32.716
819, 1.70132, 0.396545, 90.0623, 0, -0.000976562, 0, -0.0634766, 0.283203, -9.72949, 1.18.2022 20:55:32.724
820, 1.70132, 0.396545, 90.0623, -0.000976562, -0.000976562, -0.000976562, -0.0185547, 0.291992, -9.72559, 1.18.2022 20:55:32.732
821, 1.70132, 0.396545, 90.0623, -0.000976562, -0.000976562, -0.000976562, -0.119141, 0.30957, -9.73535, 1.18.2022 20:55:32.740
822, 1.70132, 0.396545, 90.0623, 0, -0.000976562, 0, -0.0371094, 0.291992, -9.71973, 1.18.2022 20:55:32.748
823, 1.70132, 0.396545, 90.0623, 0, -0.000976562, 0, -0.0498047, 0.270508, -9.71777, 1.18.2022 20:55:32.756
824, 1.70132, 0.396545, 90.0623, 0, -0.000976562, 0, -0.0898438, 0.294922, -9.72168, 1.18.2022 20:55:32.764
825, 1.70132, 0.396545, 90.0623, 0, -0.000976562, 0, -0.0400391, 0.251953, -9.72559, 1.18.2022 20:55:32.772
826, 1.70132, 0.396545, 90.0623, -0.000976562, -0.000976562, -0.000976562, -0.0634766, 0.263672, -9.71094, 1.18.2022 20:55:32.780
827, 1.70132, 0.396545, 90.0623, -0.000976562, -0.000976562, -0.000976562, -0.0615234, 0.297852, -9.7334, 1.18.2022 20:55:32.788
828, 1.69638, 0.391597, 90.0625, -0.000976562, -0.000976562, 0, 0.00683594, 0.266602, -9.75684, 1.18.2022 20:55:32.796
829, 1.69638, 0.391597, 90.0625, 0, -0.000976562, 0, -0.0927734, 0.3125, -9.75195, 1.18.2022 20:55:32.804
830, 1.69638, 0.391597, 90.0625, -0.000976562, -0.000976562, 0, -0.0625, 0.302734, -9.66797, 1.18.2022 20:55:32.812
831, 1.69638, 0.391597, 90.0625, -0.000976562, -0.000976562, 0, -0.0712891, 0.275391, -9.71777, 1.18.2022 20:55:32.820
832, 1.69638, 0.391597, 90.0625, -0.000976562, 0, -0.000976562, -0.118164, 0.301758, -9.70215, 1.18.2022 20:55:32.828
833, 1.69638, 0.391597, 90.0625, -0.000976562, -0.000976562, 0, -0.0498047, 0.297852, -9.75098, 1.18.2022 20:55:32.836
834, 1.69638, 0.391597, 90.0625, -0.000976562, 0, 0.000976562, -0.0498047, 0.27832, -9.73438, 1.18.2022 20:55:32.844
835, 1.69638, 0.391597, 90.0625, 0, -0.000976562, 0, -0.106445, 0.307617, -9.73242, 1.18.2022 20:55:32.852
836, 1.69638, 0.391597, 90.0625, -0.000976562, -0.000976562, 0, -0.0234375, 0.273438, -9.72559, 1.18.2022 20:55:32.860
837, 1.69638, 0.391597, 90.0625, -0.000976562, -0.000976562, 0, -0.107422, 0.275391, -9.77344, 1.18.2022 20:55:32.868
838, 1.69638, 0.391597, 90.0625, 0, -0.000976562, 0, -0.0664062, 0.273438, -9.72266, 1.18.2022 20:55:32.876
839, 1.69638, 0.391597, 90.0625, -0.000976562, -0.000976562, 0, -0.0410156, 0.276367, -9.75879, 1.18.2022 20:55:32.884
840, 1.69638, 0.391597, 90.0625, 0, -0.000976562, 0, -0.137695, 0.296875, -9.7041, 1.18.2022 20:55:32.892
841, 1.69638, 0.391597, 90.0625, -0.000976562, -0.000976562, 0, -0.0449219, 0.291016, -9.75098, 1.18.2022 20:55:32.900
842, 1.69638, 0.391597, 90.0625, 0, 0, 0.000976562, -0.0654297, 0.280273, -9.70117, 1.18.2022 20:55:32.908
843, 1.69638, 0.391597, 90.0625, 0, -0.000976562, 0, -0.12207, 0.287109, -9.76367, 1.18.2022 20:55:32.916
844, 1.69638, 0.391597, 90.0625, 0, 0, 0, -0.00976562, 0.266602, -9.73828, 1.18.2022 20:55:32.924
845, 1.69144, 0.38665, 90.0626, 0, 0, 0, -0.109375, 0.279297, -9.75977, 1.18.2022 20:55:32.932
846, 1.69144, 0.38665, 90.0626, -0.000976562, 0, 0, -0.0791016, 0.269531, -9.76074, 1.18.2022 20:55:32.940
847, 1.69144, 0.38665, 90.0626, -0.00195312, -0.000976562, 0, -0.0146484, 0.264648, -9.75391, 1.18.2022 20:55:32.948
848, 1.69144, 0.38665, 90.0626, -0.000976562, 0, 0, -0.0878906, 0.27832, -9.72461, 1.18.2022 20:55:32.956
849, 1.69144, 0.38665, 90.0626, -0.000976562, 0, 0, -0.0664062, 0.305664, -9.75977, 1.18.2022 20:55:32.964
850, 1.69144, 0.38665, 90.0626, -0.000976562, -0.000976562, 0, -0.0390625, 0.239258, -9.78027, 1.18.2022 20:55:32.972
851, 1.69144, 0.38665, 90.0626, -0.000976562, -0.000976562, 0, -0.116211, 0.314453, -9.7373, 1.18.2022 20:55:32.980
852, 1.69144, 0.38665, 90.0626, -0.000976562, -0.000976562, 0, -0.03125, 0.286133, -9.76074, 1.18.2022 20:55:32.988
853, 1.6865, 0.391592, 90.0626, 0, -0.000976562, -0.00195312, -0.0810547, 0.283203, -9.74316, 1.18.2022 20:55:32.996
854, 1.6865, 0.391592, 90.0626, 0, 0, 0, -0.0732422, 0.294922, -9.7334, 1.18.2022 20:55:33.004
855, 1.6865, 0.391592, 90.0626, 0, 0, 0, -0.03125, 0.295898, -9.75781, 1.18.2022 20:55:33.012
856, 1.6865, 0.391592, 90.0626, -0.000976562, 0, 0, -0.105469, 0.291016, -9.7666, 1.18.2022 20:55:33.020
857, 1.6865, 0.391592, 90.0626, -0.00195312, -0.000976562, -0.000976562, -0.0839844, 0.305664, -9.76172, 1.18.2022 20:55:33.028
858, 1.6865, 0.391592, 90.0626, -0.000976562, 0, 0, -0.0546875, 0.276367, -9.76074, 1.18.2022 20:55:33.036
859, 1.6865, 0.391592, 90.0626, -0.000976562, 0, 0, -0.108398, 0.303711, -9.7002, 1.18.2022 20:55:33.044
860, 1.6865, 0.391592, 90.0626, -0.000976562, 0, 0, -0.0283203, 0.326172, -9.73145, 1.18.2022 20:55:33.052
861, 1.6865, 0.391592, 90.0626, 0, -0.000976562, 0, -0.0634766, 0.295898, -9.6748, 1.18.2022 20:55:33.060
862, 1.6865, 0.391592, 90.0626, -0.000976562, -0.000976562, 0, -0.0800781, 0.285156, -9.72168, 1.18.2022 20:55:33.068
863, 1.6865, 0.391592, 90.0626, -0.000976562, -0.000976562, 0, -0.0400391, 0.24707, -9.73047, 1.18.2022 20:55:33.076
864, 1.6865, 0.391592, 90.0626, -0.000976562, 0, -0.000976562, -0.0898438, 0.292969, -9.73145, 1.18.2022 20:55:33.084
865, 1.6865, 0.391592, 90.0626, -0.000976562, -0.000976562, -0.000976562, -0.0859375, 0.294922, -9.73535, 1.18.2022 20:55:33.092
866, 1.6865, 0.391592, 90.0626, -0.000976562, -0.000976562, 0, -0.0185547, 0.256836, -9.74707, 1.18.2022 20:55:33.100
867, 1.6865, 0.391592, 90.0626, -0.000976562, -0.000976562, 0, -0.0986328, 0.287109, -9.78516, 1.18.2022 20:55:33.108
868, 1.6865, 0.391592, 90.0626, -0.00195312, -0.000976562, 0, -0.0361328, 0.259766, -9.75391, 1.18.2022 20:55:33.116
869, 1.6865, 0.391592, 90.0626, -0.000976562, -0.000976562, 0, -0.0517578, 0.260742, -9.69531, 1.18.2022 20:55:33.124
870, 1.6865, 0.391592, 90.0626, 0, -0.000976562, 0, -0.0976562, 0.291016, -9.74023, 1.18.2022 20:55:33.132
871, 1.6865, 0.391592, 90.0626, -0.000976562, 0, 0, 0.00292969, 0.275391, -9.70703, 1.18.2022 20:55:33.140
872, 1.6865, 0.391592, 90.0626, -0.000976562, 0, 0.000976562, -0.0908203, 0.305664, -9.75195, 1.18.2022 20:55:33.148
873, 1.6865, 0.391592, 90.0626, -0.000976562, -0.000976562, 0.000976562, -0.0615234, 0.337891, -9.71387, 1.18.2022 20:55:33.156
874, 1.6865, 0.391592, 90.0626, -0.000976562, 0, 0, -0.0185547, 0.283203, -9.73535, 1.18.2022 20:55:33.164
875, 1.6865, 0.391592, 90.0626, 0, 0.000976562, 0, -0.125977, 0.28125, -9.74707, 1.18.2022 20:55:33.172
876, 1.69144, 0.38665, 90.0626, 0, 0, 0, -0.0634766, 0.294922, -9.72656, 1.18.2022 20:55:33.180
877, 1.6865, 0.381702, 90.0628, -0.000976562, 0, 0, -0.0566406, 0.25, -9.73242, 1.18.2022 20:55:33.188
878, 1.6865, 0.381702, 90.0628, -0.000976562, -0.000976562, -0.00195312, -0.104492, 0.314453, -9.74219, 1.18.2022 20:55:33.196
879, 1.6865, 0.381702, 90.0628, -0.000976562, -0.000976562, -0.00195312, 0.00488281, 0.268555, -9.74023, 1.18.2022 20:55:33.204
880, 1.6865, 0.381702, 90.0628, 0, -0.000976562, 0, -0.107422, 0.30957, -9.74219, 1.18.2022 20:55:33.212
881, 1.6865, 0.381702, 90.0628, -0.000976562, -0.00195312, -0.00195312, -0.0546875, 0.290039, -9.73438, 1.18.2022 20:55:33.220
882, 1.6865, 0.381702, 90.0628, -0.000976562, -0.000976562, -0.00195312, -0.0214844, 0.288086, -9.74902, 1.18.2022 20:55:33.228
883, 1.6865, 0.381702, 90.0628, -0.000976562, -0.000976562, 0, -0.0810547, 0.308594, -9.7666, 1.18.2022 20:55:33.236
884, 1.6865, 0.381702, 90.0628, -0.000976562, -0.000976562, 0, -0.0683594, 0.283203, -9.72949, 1.18.2022 20:55:33.244
885, 1.6865, 0.381702, 90.0628, 0, -0.000976562, 0, -0.0507812, 0.274414, -9.76562, 1.18.2022 20:55:33.252
886, 1.6865, 0.381702, 90.0628, 0, -0.000976562, 0, -0.12793, 0.301758, -9.70215, 1.18.2022 20:55:33.260
887, 1.6865, 0.381702, 90.0628, -0.000976562, 0, 0, -0.0449219, 0.301758, -9.70996, 1.18.2022 20:55:33.268
888, 1.6865, 0.381702, 90.0628, -0.000976562, -0.000976562, 0, -0.0488281, 0.272461, -9.70605, 1.18.2022 20:55:33.276
889, 1.6865, 0.381702, 90.0628, -0.00195312, 0, 0, -0.0986328, 0.289062, -9.6748, 1.18.2022 20:55:33.284
890, 1.6865, 0.381702, 90.0628, 0, -0.00195312, 0, -0.0195312, 0.277344, -9.78027, 1.18.2022 20:55:33.292
891, 1.6865, 0.381702, 90.0628, 0.000976562, -0.000976562, 0, -0.104492, 0.292969, -9.74707, 1.18.2022 20:55:33.300
892, 1.6865, 0.381702, 90.0628, 0, -0.000976562, -0.00195312, -0.078125, 0.288086, -9.7334, 1.18.2022 20:55:33.308
893, 1.6865, 0.381702, 90.0628, 0, 0, 0.000976562, -0.0292969, 0.282227, -9.78906, 1.18.2022 20:55:33.316
894, 1.6865, 0.381702, 90.0628, 0, 0, 0, 0.0712891, 0.321289, -9.8916, 1.18.2022 20:55:33.324
895, 1.69145, 0.37676, 90.0628, 0, 0.00195312, 0, 0.206055, 0.295898, -9.7002, 1.18.2022 20:55:33.332
896, 1.69145, 0.37676, 90.0628, -0.000976562, -0.000976562, 0, 0.0751953, 0.301758, -9.80957, 1.18.2022 20:55:33.340
897, 1.69145, 0.36687, 90.063, -0.000976562, 0, 0, 0.0380859, 0.31543, -9.62402, 1.18.2022 20:55:33.348
898, 1.69145, 0.36687, 90.063, 0, 0, 0, 0.238281, 0.265625, -9.89258, 1.18.2022 20:55:33.356
899, 1.69146, 0.35698, 90.0632, -0.000976562, 0.00195312, -0.000976562, 0.3125, 0.282227, -9.63184, 1.18.2022 20:55:33.364
900, 1.69146, 0.34709, 90.0633, -0.000976562, -0.00195312, -0.00195312, 0.170898, 0.311523, -9.80078, 1.18.2022 20:55:33.372
901, 1.69642, 0.332258, 90.0635, -0.000976562, 0.000976562, -0.00292969, 0.258789, 0.263672, -9.66699, 1.18.2022 20:55:33.380
902, 1.69148, 0.317421, 90.0639, -0.000976562, -0.00195312, -0.00195312, 0.219727, 0.326172, -9.89844, 1.18.2022 20:55:33.388
903, 1.69149, 0.297641, 90.0642, 0, 0.00195312, -0.000976562, 0.5, 0.291992, -9.65332, 1.18.2022 20:55:33.396
904, 1.69645, 0.272919, 90.0646, 0.000976562, -0.00292969, -0.00292969, 0.257812, 0.336914, -9.87207, 1.18.2022 20:55:33.404
905, 1.69646, 0.25314, 90.0649, 0.000976562, 0.00195312, -0.000976562, 0.276367, 0.267578, -9.62402, 1.18.2022 20:55:33.412
906, 1.69648, 0.22347, 90.0654, 0, -0.000976562, -0.000976562, 0.241211, 0.31543, -9.86816, 1.18.2022 20:55:33.420
907, 1.69649, 0.193801, 90.0659, -0.000976562, 0.00195312, -0.00195312, 0.527344, 0.303711, -9.75488, 1.18.2022 20:55:33.428
908, 1.69651, 0.164132, 90.0664, -0.00195312, 0.000976562, -0.00195312, 0.404297, 0.37207, -9.70605, 1.18.2022 20:55:33.436
909, 1.70147, 0.129521, 90.0668, 0, 0.000976562, -0.000976562, 0.511719, 0.245117, -9.78711, 1.18.2022 20:55:33.444
910, 1.7015, 0.0899617, 90.0675, -0.000976562, 0.000976562, -0.00195312, 0.350586, 0.350586, -9.78418, 1.18.2022 20:55:33.452
911, 1.70646, 0.0454609, 90.0681, -0.000976562, 0.00195312, -0.000976562, 0.458008, 0.334961, -9.72949, 1.18.2022 20:55:33.460
912, 1.70649, 0.00590214, 90.0687, 0, 0, -0.000976562, 0.393555, 0.298828, -9.72656, 1.18.2022 20:55:33.468
913, 1.71145, 359.961, 90.0693, -0.00195312, 0.00390625, -0.000976562, 0.569336, 0.43457, -9.79004, 1.18.2022 20:55:33.476
914, 1.71643, 359.907, 90.07, -0.000976562, 0.00292969, 0.000976562, 0.691406, 0.444336, -9.64062, 1.18.2022 20:55:33.484
915, 1.71646, 359.858, 90.0707, 0.000976562, 0.000976562, 0.00488281, 0.600586, 0.463867, -9.90723, 1.18.2022 20:55:33.492
916, 1.72141, 359.803, 90.0614, -0.000976562, 0.00585938, 0.00976562, 0.585938, 0.505859, -9.68848, 1.18.2022 20:55:33.498
917, 1.73133, 359.744, 90.0621, -0.000976562, 0.00488281, 0.0136719, 0.630859, 0.358398, -9.65625, 1.18.2022 20:55:33.506
918, 1.73627, 359.689, 90.0528, -0.000976562, 0.00390625, 0.0146484, 0.561523, 0.300781, -9.80273, 1.18.2022 20:55:33.514
919, 1.74121, 359.625, 90.0437, -0.000976562, 0.00585938, 0.0117188, 0.787109, 0.165039, -9.74902, 1.18.2022 20:55:33.522
920, 1.75132, 359.555, 90.0444, -0.00292969, 0.00585938, 0.00683594, 0.832031, 0.21582, -9.63477, 1.18.2022 20:55:33.530
921, 1.75628, 359.491, 90.045, -0.00292969, 0.00390625, 0.00195312, 0.532227, 0.200195, -9.96777, 1.18.2022 20:55:33.538
922, 1.76099, 359.427, 90.0358, -0.00390625, 0.00292969, 0.000976562, 0.788086, 0.286133, -9.39844, 1.18.2022 20:55:33.546
923, 1.77089, 359.358, 90.0364, -0.00195312, 0.00488281, -0.000976562, 0.895508, 0.162109, -10.0645, 1.18.2022 20:55:33.554
924, 1.77091, 359.288, 90.037, -0.0078125, 0.0078125, 0.000976562, 0.981445, 0.523438, -9.42578, 1.18.2022 20:55:33.562
925, 1.781, 359.219, 90.0376, -0.00390625, 0.00195312, 0.00390625, 0.794922, 0.34668, -9.82422, 1.18.2022 20:55:33.570
926, 1.78596, 359.145, 90.0381, -0.00488281, 0.00195312, 0.0078125, 0.739258, 0.387695, -9.6123, 1.18.2022 20:55:33.578
927, 1.79578, 359.075, 90.0287, -0.00585938, 0.00195312, 0.00976562, 0.974609, 0.386719, -9.81836, 1.18.2022 20:55:33.586
928, 1.80073, 359.001, 90.0292, -0.00292969, -0.000976562, 0.00976562, 1.0752, 0.319336, -9.49609, 1.18.2022 20:55:33.594
929, 1.80559, 358.927, 90.0198, -0.000976562, -0.00585938, 0.00683594, 0.791016, 0.40332, -10.0566, 1.18.2022 20:55:33.602
930, 1.80577, 358.858, 90.0202, -0.000976562, 0.000976562, 0.00585938, 1.09668, 0.356445, -9.62109, 1.18.2022 20:55:33.610
931, 1.81071, 358.784, 90.0206, 0.000976562, -0.00390625, 0.00488281, 1.08203, 0.407227, -9.62891, 1.18.2022 20:55:33.618
932, 1.81536, 358.709, 90.011, 0.00488281, -0.00390625, 0.00292969, 0.952148, 0.492188, -9.74023, 1.18.2022 20:55:33.626
933, 1.82048, 358.635, 90.0113, 0.00390625, 0.000976562, 0.00390625, 1.12012, 0.376953, -9.6748, 1.18.2022 20:55:33.634
934, 1.82541, 358.561, 90.0116, 0.00292969, 0.000976562, 0.00292969, 1.16992, 0.469727, -9.81055, 1.18.2022 20:55:33.642
935, 1.82557, 358.482, 90.0118, 0.00585938, 0, 0.00292969, 0.956055, 0.37793, -9.77148, 1.18.2022 20:55:33.650
936, 1.8305, 358.407, 90.012, 0.000976562, 0.00585938, 0.00390625, 1.16504, 0.336914, -9.68164, 1.18.2022 20:55:33.658
937, 1.83512, 358.323, 90.0022, 0.000976562, 0.00585938, 0.00488281, 0.97168, 0.462891, -9.4248, 1.18.2022 20:55:33.666
938, 1.84021, 358.249, 90.0023, 0.00585938, 0.00390625, 0.00878906, 1.00098, 0.210938, -9.61621, 1.18.2022 20:55:33.674
939, 1.84035, 358.17, 90.0023, 0.00292969, 0.00585938, 0.0107422, 1.20996, 0.326172, -9.40332, 1.18.2022 20:55:33.682
940, 1.84495, 358.096, 89.9924, 0.00683594, -0.000976562, 0.0117188, 1.08008, 0.414062, -9.37598, 1.18.2022 20:55:33.690
941, 1.84508, 358.026, 89.9924, 0.0107422, -0.015625, 0.0136719, 0.983398, 0.349609, -9.29785, 1.18.2022 20:55:33.698
942, 1.84983, 357.962, 89.9824, 0.00878906, -0.0214844, 0.0185547, 0.688477, 0.641602, -10.2441, 1.18.2022 20:55:33.706
943, 1.84976, 357.892, 89.9724, 0.00488281, -0.0175781, 0.0234375, 0.883789, 0.548828, -10.2266, 1.18.2022 20:55:33.714
944, 1.85449, 357.838, 89.9623, 0.00585938, -0.0322266, 0.0214844, 0.701172, 0.37793, -10.3223, 1.18.2022 20:55:33.722
945, 1.8592, 357.783, 89.9523, 0.00585938, -0.0361328, 0.0146484, 0.602539, 0.149414, -9.78418, 1.18.2022 20:55:33.730
946, 1.86391, 357.729, 89.9422, 0.00488281, -0.0302734, 0.0107422, 0.543945, -0.0107422, -9.71191, 1.18.2022 20:55:33.738
947, 1.86386, 357.669, 89.942, 0.00488281, -0.0146484, 0.00683594, 0.556641, 0.0634766, -10.1113, 1.18.2022 20:55:33.746
948, 1.86889, 357.605, 89.9417, 0.00683594, 0.000976562, 0.00585938, 0.52832, 0.209961, -10.2256, 1.18.2022 20:55:33.754
949, 1.86862, 357.545, 89.9315, 0.00585938, 0.0117188, 0.0107422, 0.621094, 0.370117, -9.82324, 1.18.2022 20:55:33.762
950, 1.86855, 357.476, 89.9312, 0.00488281, 0.0175781, 0.0166016, 0.444336, 0.496094, -9.44141, 1.18.2022 20:55:33.770
951, 1.86839, 357.407, 89.9208, 0, 0.0283203, 0.0234375, 0.362305, 0.43457, -9.7959, 1.18.2022 20:55:33.778
952, 1.87798, 357.337, 89.9105, -0.0117188, 0.0341797, 0.0283203, 0.65625, 0.419922, -9.88086, 1.18.2022 20:55:33.786
953, 1.88768, 357.268, 89.9002, -0.0166016, 0.0185547, 0.0283203, 0.485352, 0.294922, -9.67383, 1.18.2022 20:55:33.794
954, 1.89688, 357.208, 89.88, -0.0136719, 0.00390625, 0.0283203, 0.441406, 0.128906, -9.31641, 1.18.2022 20:55:33.802
955, 1.90658, 357.158, 89.8698, -0.0175781, 0.00195312, 0.0273438, 0.65332, 0.152344, -9.16309, 1.18.2022 20:55:33.810
956, 1.91615, 357.109, 89.8595, -0.0146484, -0.00292969, 0.0253906, 0.900391, 0.389648, -9.66602, 1.18.2022 20:55:33.818
957, 1.92089, 357.064, 89.8492, -0.00683594, -0.00585938, 0.0263672, 1.08789, 0.494141, -9.48926, 1.18.2022 20:55:33.826
958, 1.92056, 357.024, 89.839, 0.00585938, -0.00390625, 0.0273438, 1.25, 0.505859, -9.35254, 1.18.2022 20:55:33.834
959, 1.91984, 356.984, 89.8187, 0.0175781, -0.0078125, 0.0253906, 1.14551, 0.467773, -9.03516, 1.18.2022 20:55:33.842
960, 1.90971, 356.945, 89.8083, 0.0244141, -0.0166016, 0.0205078, 1.03613, 0.553711, -8.85645, 1.18.2022 20:55:33.850
961, 1.89949, 356.915, 89.798, 0.0185547, -0.0224609, 0.0205078, 0.206055, 0.529297, -11.3545, 1.18.2022 20:55:33.858
962, 1.89953, 356.885, 89.7977, 0.00976562, -0.00683594, 0.0185547, 0.762695, 0.546875, -10.7695, 1.18.2022 20:55:33.866
963, 1.88929, 356.855, 89.7873, 0.015625, -0.0332031, 0.0107422, 0.418945, 0.250977, -10.458, 1.18.2022 20:55:33.874
964, 1.88886, 356.835, 89.7772, 0.0117188, -0.0332031, 0.00195312, 0.475586, -0.0498047, -9.25586, 1.18.2022 20:55:33.882
965, 1.88385, 356.811, 89.7769, 0.00195312, -0.0136719, 0.000976562, 0.988281, 0.0683594, -8.84277, 1.18.2022 20:55:33.890
966, 1.88885, 356.786, 89.7766, 0.00195312, -0.00683594, 0.00585938, 1.03418, 0.0703125, -10.0596, 1.18.2022 20:55:33.898
967, 1.88878, 356.756, 89.7763, 0.000976562, 0.0078125, 0.0146484, 0.875977, 0.279297, -10.6396, 1.18.2022 20:55:33.906
968, 1.88839, 356.716, 89.7659, -0.00195312, 0.0195312, 0.0234375, 0.81543, 0.410156, -10.1934, 1.18.2022 20:55:33.914
969, 1.8881, 356.677, 89.7554, 0.00390625, 0.0185547, 0.0253906, 0.571289, 0.310547, -9.65137, 1.18.2022 20:55:33.922
970, 1.89267, 356.642, 89.7451, -0.00390625, 0.0234375, 0.0244141, 0.510742, 0.37793, -9.17578, 1.18.2022 20:55:33.930
971, 1.89226, 356.602, 89.7347, -0.0166016, 0.0185547, 0.0224609, 0.533203, 0.500977, -9.11133, 1.18.2022 20:55:33.938
972, 1.90178, 356.572, 89.7245, -0.015625, 0.0136719, 0.0214844, 0.817383, 0.3125, -8.82617, 1.18.2022 20:55:33.946
973, 1.90636, 356.547, 89.7143, -0.00292969, -0.0185547, 0.0195312, 0.900391, 0.206055, -8.5498, 1.18.2022 20:55:33.954
974, 1.90603, 356.537, 89.7042, 0.00488281, -0.0390625, 0.015625, 0.688477, -0.121094, -8.90234, 1.18.2022 20:55:33.962
975, 1.91066, 356.532, 89.6943, -0.00683594, -0.0380859, 0.015625, 0.352539, 0.682617, -11.2129, 1.18.2022 20:55:33.970
976, 1.91072, 356.522, 89.6941, 0.00195312, -0.0322266, 0.0136719, 0.0644531, 0.580078, -12.9336, 1.18.2022 20:55:33.978
977, 1.91029, 356.512, 89.6841, 0.0195312, -0.00585938, 0.00292969, 0.989258, 0.266602, -11.2607, 1.18.2022 20:55:33.986
978, 1.90042, 356.492, 89.6836, 0.0205078, -0.0078125, -0.00195312, 0.855469, 0.546875, -8.8418, 1.18.2022 20:55:33.994
979, 1.89046, 356.473, 89.6832, 0.0185547, 0.00585938, 0.00292969, 0.935547, 0.610352, -7.68359, 1.18.2022 20:55:34.002
980, 1.88542, 356.448, 89.6828, 0.0166016, 0.0371094, 0.0126953, 0.855469, 0.388672, -9.23145, 1.18.2022 20:55:34.010
981, 1.87508, 356.408, 89.6721, 0.00878906, 0.0400391, 0.0214844, 0.865234, 0.381836, -10.8633, 1.18.2022 20:55:34.018
982, 1.87466, 356.378, 89.6617, 0.00390625, 0.0322266, 0.0244141, 0.767578, 0.493164, -11.0029, 1.18.2022 20:55:34.026
983, 1.87424, 356.348, 89.6513, 0.00585938, 0.00390625, 0.0224609, 0.280273, -0.0488281, -8.96973, 1.18.2022 20:55:34.034
984, 1.87385, 356.328, 89.6411, -0.0126953, 0.015625, 0.0185547, 0.599609, -0.236328, -7.82422, 1.18.2022 20:55:34.042
985, 1.88336, 356.308, 89.631, -0.0214844, 0.015625, 0.0166016, 1.65332, 0.143555, -7.05176, 1.18.2022 20:55:34.050
986, 1.88834, 356.294, 89.6308, -0.00292969, -0.0361328, 0.0146484, 0.942383, 0.0654297, -9.95898, 1.18.2022 20:55:34.058
987, 1.88801, 356.293, 89.6208, -0.00292969, -0.0283203, 0.0146484, 0.617188, 0.568359, -12.7109, 1.18.2022 20:55:34.066
988, 1.89262, 356.288, 89.6109, 0.00488281, -0.00488281, 0.0117188, 1.08398, 0.416992, -12.002, 1.18.2022 20:55:34.074
989, 1.88268, 356.278, 89.6106, 0.0244141, -0.00195312, -0.00195312, 0.911133, 0.354492, -10.4326, 1.18.2022 20:55:34.082
990, 1.8727, 356.259, 89.6101, 0.0214844, 0.00488281, -0.00292969, 1.01367, 0.734375, -7.59375, 1.18.2022 20:55:34.090
991, 1.86769, 356.244, 89.6098, 0.0224609, 0.0195312, 0.00488281, 0.865234, 0.750977, -8.55078, 1.18.2022 20:55:34.098
992, 1.85274, 356.219, 89.6091, 0.0214844, 0.0351562, 0.0107422, 0.957031, 0.510742, -9.17773, 1.18.2022 20:55:34.106
993, 1.84736, 356.194, 89.5986, 0.0117188, 0.0253906, 0.0146484, 0.472656, 0.564453, -11.2773, 1.18.2022 20:55:34.114
994, 1.84238, 356.169, 89.5981, 0.00488281, 0.00976562, 0.0136719, 0.382812, 0.198242, -10.3623, 1.18.2022 20:55:34.122
995, 1.84687, 356.154, 89.588, -0.0146484, 0.0175781, 0.0136719, 0.999023, -0.174805, -8.4668, 1.18.2022 20:55:34.130
996, 1.85183, 356.14, 89.5878, -0.0185547, -0.0117188, 0.0136719, 1.26562, 0.152344, -5.88086, 1.18.2022 20:55:34.138
997, 1.85646, 356.144, 89.578, -0.00878906, -0.0361328, 0.0126953, 0.0488281, -0.417969, -11.1113, 1.18.2022 20:55:34.146
998, 1.86603, 356.144, 89.5682, -0.0205078, 0.0078125, 0.0166016, 0.619141, 0.419922, -13.5488, 1.18.2022 20:55:34.154
999, 1.87087, 356.119, 89.5679, 0.00390625, 0.0273438, 0.0107422, 1.12207, 0.494141, -13.8262, 1.18.2022 20:55:34.162
1000, 1.86059, 356.109, 89.5576, 0.0205078, -0.0224609, 0.00195312, 0.972656, 0.400391, -8.27148, 1.18.2022 20:55:34.170
1001, 1.85562, 356.104, 89.5574, 0.015625, 0.00585938, 0.00390625, 0.459961, 0.293945, -6.72559, 1.18.2022 20:55:34.178
1002, 1.85056, 356.08, 89.5569, 0.0126953, 0.0498047, 0.00976562, 0.811523, 0.635742, -6.58301, 1.18.2022 20:55:34.186
1003, 1.84556, 356.055, 89.5563, 0.0214844, 0.0351562, 0.00976562, 0.686523, 0.72168, -11.0283, 1.18.2022 20:55:34.194
1004, 1.83023, 356.04, 89.5458, 0.015625, -0.00488281, 0.00976562, -0.427734, 0.469727, -12.7021, 1.18.2022 20:55:34.202
1005, 1.83518, 356.025, 89.5456, -0.0175781, 0.0185547, 0.0224609, 0.639648, 0.408203, -8.18555, 1.18.2022 20:55:34.210
1006, 1.83935, 356.02, 89.5258, -0.0175781, -0.0195312, 0.0244141, 1.40039, -0.43457, -5.21191, 1.18.2022 20:55:34.218
1007, 1.84895, 356.029, 89.5162, -0.0341797, -0.0566406, 0.0214844, -0.761719, 0.654297, -12.0391, 1.18.2022 20:55:34.226
1008, 1.8635, 356.024, 89.5063, -0.0244141, 0.0322266, 0.0224609, 1.42188, -0.695312, -12.1143, 1.18.2022 20:55:34.234
1009, 1.87301, 356.014, 89.4964, -0.0263672, -0.015625, 0.0205078, 0.664062, 0.786133, -12.6377, 1.18.2022 20:55:34.242
1010, 1.87764, 356.019, 89.4866, 0.00195312, -0.0390625, 0.0175781, 0.370117, 0.131836, -8.61133, 1.18.2022 20:55:34.250
1011, 1.8773, 356.019, 89.4767, 0.000976562, 0.0078125, 0.0224609, 0.104492, 0.0742188, -7.01465, 1.18.2022 20:55:34.258
1012, 1.88177, 355.994, 89.4663, -0.00878906, 0.0683594, 0.0283203, 1.29688, 0.788086, -7.62598, 1.18.2022 20:55:34.266
1013, 1.88126, 355.964, 89.4558, 0.015625, 0.0175781, 0.0214844, -0.00488281, 0.863281, -12.1377, 1.18.2022 20:55:34.274
1014, 1.87588, 355.949, 89.4455, -0.000976562, 0.0175781, 0.0263672, 0.285156, 0.598633, -10.5527, 1.18.2022 20:55:34.282
1015, 1.88052, 355.944, 89.4355, -0.0205078, 0.00292969, 0.0263672, 0.651367, 0.0712891, -7.20996, 1.18.2022 20:55:34.290
1016, 1.89007, 355.944, 89.4257, -0.015625, -0.0351562, 0.015625, -1.2627, 0.424805, -11.5254, 1.18.2022 20:55:34.298
1017, 1.89457, 355.938, 89.4158, -0.00976562, 0.0390625, 0.0107422, 1.46094, -0.649414, -9.85254, 1.18.2022 20:55:34.306
1018, 1.90448, 355.929, 89.4157, -0.0195312, -0.0253906, 0.0117188, 0.428711, 0.624023, -10.207, 1.18.2022 20:55:34.314
1019, 1.89921, 355.933, 89.4057, 0.0126953, -0.0234375, 0.0146484, 0.393555, 0.368164, -9.72949, 1.18.2022 20:55:34.322
1020, 1.89387, 355.928, 89.3956, 0.0107422, 0.0214844, 0.0302734, 0.334961, 0.327148, -9.13477, 1.18.2022 20:55:34.330
1021, 1.88841, 355.903, 89.385, 0.0107422, 0.0546875, 0.0361328, 0.884766, 0.75, -9.24023, 1.18.2022 20:55:34.338
1022, 1.88758, 355.883, 89.3647, 0.0136719, 0.0224609, 0.0351562, 0.00488281, 0.820312, -10.3467, 1.18.2022 20:55:34.346
1023, 1.88181, 355.868, 89.3444, 0.000976562, 0.0146484, 0.0380859, -0.108398, 0.183594, -8.12988, 1.18.2022 20:55:34.354
1024, 1.88139, 355.858, 89.3342, -0.0185547, 0.0146484, 0.0273438, -0.808594, 0.0458984, -11.1152, 1.18.2022 20:55:34.362
1025, 1.89087, 355.848, 89.3242, -0.0146484, 0.0166016, 0.0117188, 0.333984, -0.520508, -10.0908, 1.18.2022 20:55:34.370
1026, 1.89585, 355.843, 89.3242, -0.0292969, -0.0214844, 0.00683594, 0.310547, 0.263672, -9.43555, 1.18.2022 20:55:34.378
1027, 1.91038, 355.858, 89.3149, -0.0078125, -0.0507812, 0.00488281, -0.205078, -0.328125, -8.87012, 1.18.2022 20:55:34.386
1028, 1.91051, 355.868, 89.315, -0.00292969, 0.00292969, 0.0107422, 0.634766, -0.0126953, -8.84375, 1.18.2022 20:55:34.394
1029, 1.91002, 355.857, 89.3049, 0.00976562, 0.00488281, 0.0107422, 0.0849609, 0.508789, -10.668, 1.18.2022 20:55:34.402
