Seq, Rot x, Rot y, Rot z, Vel x, Vel y, Vel z, Acc x, Acc y, Acc z, Time(m.d.y h:m:s.ms)
0, 18.7522, 348.378, 331.152, -0.111328, 0.0439453, -0.0078125, 2.04492, 3.05176, -8.86914, 1.4.2022 14:53:36.668
1, 18.8065, 348.363, 331.16, -0.107422, 0.0351562, -0.0107422, 1.97559, 3.07715, -8.78613, 1.4.2022 14:53:36.678
2, 18.8415, 348.349, 331.17, -0.0595703, 0.0166016, -0.00683594, 1.91992, 3.18359, -8.8291, 1.4.2022 14:53:36.681
3, 18.8478, 348.347, 331.172, 0.0380859, -0.0126953, 0.00488281, 1.95312, 3.17285, -8.85449, 1.4.2022 14:53:36.689
4, 18.8065, 348.363, 331.16, 0.125977, -0.0419922, 0.0107422, 1.95801, 3.04785, -8.91797, 1.4.2022 14:53:36.697
5, 18.7506, 348.376, 331.146, 0.106445, -0.0429688, 0.00683594, 1.89941, 3.00781, -9.15234, 1.4.2022 14:53:36.705
6, 18.7219, 348.383, 331.144, 0.0214844, -0.00390625, 0.00292969, 1.9707, 3.00391, -9.18164, 1.4.2022 14:53:36.713
7, 18.7283, 348.381, 331.146, -0.0546875, 0.0205078, -0.00488281, 1.95605, 2.96875, -9.06641, 1.4.2022 14:53:36.721
8, 18.765, 348.374, 331.155, -0.105469, 0.0341797, -0.00976562, 1.93359, 3.05273, -8.93164, 1.4.2022 14:53:36.729
9, 18.8129, 348.361, 331.161, -0.0917969, 0.03125, -0.0078125, 1.96289, 3.1416, -8.85547, 1.4.2022 14:53:36.737
10, 18.8335, 348.349, 331.163, -0.00878906, 0.00292969, -0.00195312, 1.98926, 3.11523, -8.83984, 1.4.2022 14:53:36.745
11, 18.8175, 348.353, 331.164, 0.0742188, -0.0273438, 0.00585938, 1.94727, 3.0625, -8.93164, 1.4.2022 14:53:36.753
12, 18.7778, 348.37, 331.158, 0.0947266, -0.0332031, 0.0078125, 1.95312, 3.03613, -9.07812, 1.4.2022 14:53:36.761
13, 18.7411, 348.378, 331.149, 0.0605469, -0.0205078, 0.00488281, 1.94043, 2.98438, -9.16113, 1.4.2022 14:53:36.769
14, 18.7283, 348.381, 331.146, -0.00976562, 0.00292969, 0, 1.95312, 3.02051, -9.09277, 1.4.2022 14:53:36.777
15, 18.7411, 348.378, 331.149, -0.0664062, 0.0224609, -0.00585938, 1.9834, 3.0459, -8.99512, 1.4.2022 14:53:36.785
16, 18.7778, 348.37, 331.158, -0.0791016, 0.0273438, -0.0078125, 1.97656, 3.09863, -8.92578, 1.4.2022 14:53:36.793
17, 18.8048, 348.356, 331.161, -0.0458984, 0.015625, -0.00292969, 1.95801, 3.13281, -8.87207, 1.4.2022 14:53:36.801
18, 18.8112, 348.354, 331.163, 0.0224609, -0.0078125, 0.00195312, 1.96875, 3.10742, -8.91602, 1.4.2022 14:53:36.809
19, 18.7937, 348.367, 331.157, 0.0693359, -0.0253906, 0.00585938, 1.94727, 3.0293, -8.99512, 1.4.2022 14:53:36.817
20, 18.757, 348.374, 331.148, 0.0576172, -0.0214844, 0.00390625, 1.95996, 3.06348, -9.0918, 1.4.2022 14:53:36.825
21, 18.7411, 348.378, 331.149, 0.0175781, -0.00683594, 0.000976562, 1.97461, 3.03125, -9.11914, 1.4.2022 14:53:36.833
22, 18.7411, 348.378, 331.149, -0.0253906, 0.0078125, -0.00195312, 1.9541, 3.0293, -9.01367, 1.4.2022 14:53:36.841
23, 18.7634, 348.372, 331.149, -0.0556641, 0.0185547, -0.00488281, 1.94727, 3.0498, -8.9707, 1.4.2022 14:53:36.849
24, 18.7873, 348.369, 331.155, -0.046875, 0.0136719, -0.00390625, 1.95508, 3.11816, -8.92773, 1.4.2022 14:53:36.857
25, 18.8001, 348.365, 331.158, 0, 0, -0.000976562, 1.94336, 3.07227, -8.92188, 1.4.2022 14:53:36.865
26, 18.7937, 348.367, 331.157, 0.0351562, -0.0107422, 0.00292969, 1.96387, 3.05957, -8.9707, 1.4.2022 14:53:36.873
27, 18.7698, 348.371, 331.151, 0.0390625, -0.0136719, 0.00292969, 1.98438, 3.04004, -9.0332, 1.4.2022 14:53:36.881
28, 18.757, 348.374, 331.148, 0.0214844, -0.00683594, 0.000976562, 1.97266, 3.04297, -9.03809, 1.4.2022 14:53:36.889
29, 18.7506, 348.376, 331.146, -0.00683594, 0.000976562, -0.000976562, 1.98242, 3.06152, -9.02734, 1.4.2022 14:53:36.897
30, 18.757, 348.374, 331.148, -0.0283203, 0.00878906, -0.00292969, 1.96875, 3.04688, -9.01172, 1.4.2022 14:53:36.905
31, 18.7698, 348.371, 331.151, -0.0273438, 0.0078125, -0.00488281, 1.97559, 3.07715, -8.99609, 1.4.2022 14:53:36.913
32, 18.7778, 348.37, 331.158, -0.0078125, 0.00195312, -0.00195312, 1.94727, 3.09082, -8.92383, 1.4.2022 14:53:36.921
33, 18.7778, 348.37, 331.158, 0.0136719, -0.00390625, 0, 1.9502, 3.05859, -8.96289, 1.4.2022 14:53:36.929
34, 18.7698, 348.371, 331.151, 0.0185547, -0.00683594, 0.00195312, 1.95703, 3.04004, -8.97754, 1.4.2022 14:53:36.937
35, 18.7634, 348.372, 331.149, 0.0078125, -0.00488281, 0, 1.95898, 3.05371, -9.00586, 1.4.2022 14:53:36.945
36, 18.7634, 348.372, 331.149, -0.00585938, 0, -0.000976562, 1.94727, 3.03613, -8.99707, 1.4.2022 14:53:36.953
37, 18.7634, 348.372, 331.149, -0.0107422, 0.00390625, -0.00195312, 1.98535, 3.07812, -8.95801, 1.4.2022 14:53:36.961
38, 18.7698, 348.371, 331.151, -0.00878906, 0.00390625, -0.00195312, 1.96191, 3.08496, -8.94824, 1.4.2022 14:53:36.969
39, 18.7698, 348.371, 331.151, 0.00195312, -0.00195312, -0.000976562, 1.94238, 3.06152, -8.97656, 1.4.2022 14:53:36.977
40, 18.7698, 348.371, 331.151, 0.0117188, -0.00390625, 0, 1.9209, 3.0498, -8.98926, 1.4.2022 14:53:36.985
41, 18.7634, 348.372, 331.149, 0.00488281, -0.00195312, -0.000976562, 1.95215, 3.04102, -9.00391, 1.4.2022 14:53:36.993
42, 18.7634, 348.372, 331.149, -0.00878906, 0.00195312, -0.00195312, 1.94238, 3.05273, -8.99121, 1.4.2022 14:53:37.001
43, 18.7714, 348.372, 331.157, -0.0126953, 0.00488281, -0.000976562, 1.94043, 3.06152, -8.95801, 1.4.2022 14:53:37.009
44, 18.7696, 348.365, 331.158, -0.0078125, 0.00292969, 0, 1.97168, 3.07812, -8.94824, 1.4.2022 14:53:37.017
45, 18.7696, 348.365, 331.158, 0.00488281, -0.00292969, -0.000976562, 1.96094, 3.09961, -8.96875, 1.4.2022 14:53:37.025
46, 18.7696, 348.365, 331.158, 0.0175781, -0.00585938, 0.000976562, 1.94434, 3.03906, -9.01367, 1.4.2022 14:53:37.033
47, 18.7553, 348.368, 331.149, 0.0175781, -0.00585938, 0.00195312, 1.97461, 3.03223, -9.07617, 1.4.2022 14:53:37.041
48, 18.7553, 348.368, 331.149, 0.00390625, -0.00292969, 0, 1.94629, 3.01367, -9.03613, 1.4.2022 14:53:37.049
49, 18.7553, 348.368, 331.149, -0.0175781, 0.00585938, -0.00195312, 1.96484, 2.99414, -8.96777, 1.4.2022 14:53:37.057
50, 18.7778, 348.37, 331.158, -0.0869141, 0.0175781, -0.0126953, 1.72363, 2.21973, -8.36328, 1.4.2022 14:53:37.065
51, 18.856, 348.352, 331.172, -0.223633, 0.0722656, -0.0273438, 2.25195, 3.89941, -8.76074, 1.4.2022 14:53:37.073
52, 18.8624, 348.35, 331.174, 0.173828, -0.0576172, 0.0214844, 2.09375, 3.31348, -8.81836, 1.4.2022 14:53:37.081
53, 18.7411, 348.378, 331.149, 0.325195, -0.102539, 0.0283203, 1.82812, 2.7627, -9.08496, 1.4.2022 14:53:37.089
54, 18.639, 348.41, 331.128, 0.130859, -0.0644531, 0.00976562, 2.04297, 3.3623, -9.88574, 1.4.2022 14:53:37.097
55, 18.5831, 348.423, 331.114, 0.0869141, -0.0126953, 0.00976562, 2.05664, 2.45898, -9.13281, 1.4.2022 14:53:37.105
56, 18.6086, 348.41, 331.128, -0.180664, 0.0644531, -0.0214844, 1.91406, 2.9043, -8.8457, 1.4.2022 14:53:37.113
57, 18.738, 348.388, 331.152, -0.361328, 0.0849609, -0.0498047, 1.6543, 3.31738, -9.08301, 1.4.2022 14:53:37.121
58, 18.8863, 348.346, 331.18, -0.279297, 0.124023, -0.00976562, 2.19434, 2.8623, -8.34863, 1.4.2022 14:53:37.129
59, 18.9738, 348.31, 331.199, -0.0751953, 0.0302734, -0.0205078, 2, 3.36719, -8.30273, 1.4.2022 14:53:37.137
60, 18.9276, 348.33, 331.191, 0.261719, -0.0966797, 0.0234375, 1.8252, 3.51172, -9.06445, 1.4.2022 14:53:37.145
61, 18.7491, 348.377, 331.157, 0.478516, -0.158203, 0.0488281, 1.84863, 2.8125, -9.4873, 1.4.2022 14:53:37.153
62, 18.5688, 348.428, 331.122, 0.291016, -0.09375, 0.0292969, 2.1084, 2.73828, -9.57422, 1.4.2022 14:53:37.161
63, 18.5051, 348.449, 331.11, -0.0253906, -0.0117188, -0.0107422, 1.79492, 2.9707, -9.76465, 1.4.2022 14:53:37.169
64, 18.588, 348.422, 331.127, -0.325195, 0.136719, -0.0175781, 2.05859, 2.84961, -8.98633, 1.4.2022 14:53:37.177
65, 18.776, 348.363, 331.159, -0.482422, 0.162109, -0.0498047, 2.04785, 3.2002, -8.36816, 1.4.2022 14:53:37.185
66, 18.9738, 348.31, 331.199, -0.325195, 0.103516, -0.0322266, 1.97852, 3.46191, -8.26758, 1.4.2022 14:53:37.193
67, 19.0297, 348.297, 331.213, 0.0957031, -0.0361328, 0.00683594, 1.97559, 3.37988, -8.52148, 1.4.2022 14:53:37.201
68, 18.8909, 348.337, 331.182, 0.475586, -0.158203, 0.0419922, 1.87695, 3.04785, -9.05762, 1.4.2022 14:53:37.209
69, 18.6581, 348.399, 331.14, 0.505859, -0.176758, 0.046875, 1.84766, 2.67969, -9.59668, 1.4.2022 14:53:37.217
70, 18.4906, 348.446, 331.108, 0.191406, -0.0644531, 0.0195312, 1.94629, 2.65234, -9.74414, 1.4.2022 14:53:37.225
71, 18.4906, 348.446, 331.108, -0.208984, 0.0712891, -0.0195312, 1.9248, 2.91895, -9.41992, 1.4.2022 14:53:37.233
72, 18.6517, 348.401, 331.138, -0.458984, 0.15918, -0.0400391, 1.92578, 3.09863, -8.78516, 1.4.2022 14:53:37.241
73, 18.8589, 348.336, 331.176, -0.426758, 0.143555, -0.0419922, 1.99902, 3.33398, -8.37793, 1.4.2022 14:53:37.249
74, 18.993, 348.305, 331.204, -0.115234, 0.0351562, -0.0136719, 2.00586, 3.45898, -8.33301, 1.4.2022 14:53:37.257
75, 18.9515, 348.316, 331.199, 0.273438, -0.0947266, 0.0234375, 1.95996, 3.1748, -8.71875, 1.4.2022 14:53:37.265
76, 18.784, 348.363, 331.167, 0.446289, -0.152344, 0.0400391, 1.9248, 2.87988, -9.25684, 1.4.2022 14:53:37.273
77, 18.6021, 348.412, 331.126, 0.308594, -0.105469, 0.0283203, 1.94043, 2.77441, -9.60645, 1.4.2022 14:53:37.281
78, 18.5257, 348.438, 331.111, 0.00683594, -0.00292969, 0.000976562, 1.92188, 2.80957, -9.52832, 1.4.2022 14:53:37.289
79, 18.5862, 348.416, 331.128, -0.274414, 0.0947266, -0.0234375, 1.94336, 2.94629, -9.10254, 1.4.2022 14:53:37.297
80, 18.7409, 348.372, 331.156, -0.383789, 0.128906, -0.0361328, 1.98438, 3.19824, -8.62695, 1.4.2022 14:53:37.305
81, 18.8973, 348.336, 331.184, -0.237305, 0.0761719, -0.0234375, 2.02637, 3.38477, -8.46484, 1.4.2022 14:53:37.313
82, 18.9307, 348.32, 331.188, 0.0644531, -0.0234375, 0.00488281, 2.02734, 3.28711, -8.61133, 1.4.2022 14:53:37.321
83, 18.8478, 348.347, 331.172, 0.299805, -0.104492, 0.0244141, 1.93066, 2.99414, -8.9502, 1.4.2022 14:53:37.329
84, 18.7076, 348.388, 331.152, 0.289062, -0.102539, 0.0234375, 1.85645, 2.79785, -9.24707, 1.4.2022 14:53:37.337
85, 18.6183, 348.417, 331.134, 0.0888672, -0.0341797, 0.00683594, 1.8877, 2.88379, -9.39258, 1.4.2022 14:53:37.345
86, 18.6247, 348.415, 331.136, -0.111328, 0.0390625, -0.00878906, 1.95117, 3.00391, -9.24805, 1.4.2022 14:53:37.353
87, 18.6948, 348.392, 331.149, -0.203125, 0.0722656, -0.0185547, 1.98438, 3.17578, -9, 1.4.2022 14:53:37.361
88, 18.7794, 348.371, 331.164, -0.139648, 0.0478516, -0.0136719, 2.05078, 3.2627, -8.80957, 1.4.2022 14:53:37.369
89, 18.8063, 348.358, 331.167, 0.0273438, -0.00976562, 0, 2.00977, 3.1748, -8.89844, 1.4.2022 14:53:37.377
90, 18.7666, 348.375, 331.161, 0.135742, -0.046875, 0.00976562, 1.97852, 2.99707, -8.96582, 1.4.2022 14:53:37.385
91, 18.714, 348.386, 331.154, 0.0800781, -0.0292969, 0.00683594, 1.92871, 2.8623, -9.0332, 1.4.2022 14:53:37.393
92, 18.7076, 348.388, 331.152, -0.0664062, 0.0205078, -0.00585938, 1.93555, 2.98047, -8.98242, 1.4.2022 14:53:37.401
93, 18.7571, 348.377, 331.164, -0.142578, 0.0458984, -0.0126953, 1.96289, 3.13672, -8.8623, 1.4.2022 14:53:37.409
94, 18.8145, 348.362, 331.167, -0.0722656, 0.0234375, -0.00683594, 1.94434, 3.19434, -8.78711, 1.4.2022 14:53:37.417
95, 18.8081, 348.364, 331.166, 0.0771484, -0.0273438, 0.00585938, 1.91895, 3.09766, -8.9209, 1.4.2022 14:53:37.425
96, 18.7491, 348.377, 331.157, 0.179688, -0.0615234, 0.0146484, 1.89941, 3.01465, -9.13965, 1.4.2022 14:53:37.431
97, 18.6678, 348.405, 331.146, 0.152344, -0.0537109, 0.0117188, 1.94336, 2.93359, -9.29102, 1.4.2022 14:53:37.441
98, 18.6311, 348.413, 331.137, 0.000976562, -0.000976562, -0.000976562, 1.9707, 2.93848, -9.21777, 1.4.2022 14:53:37.447
99, 18.6742, 348.404, 331.148, -0.172852, 0.0576172, -0.015625, 2.00391, 3.01074, -9.02246, 1.4.2022 14:53:37.455
100, 18.7666, 348.375, 331.161, -0.229492, 0.0761719, -0.0205078, 1.99609, 3.13965, -8.71973, 1.4.2022 14:53:37.463
101, 18.8512, 348.355, 331.176, -0.12207, 0.0380859, -0.0126953, 1.97461, 3.22852, -8.66406, 1.4.2022 14:53:37.471
102, 18.864, 348.351, 331.18, 0.078125, -0.0292969, 0.00488281, 1.91309, 3.17773, -8.80566, 1.4.2022 14:53:37.479
103, 18.7858, 348.37, 331.166, 0.228516, -0.0800781, 0.0185547, 1.92871, 3.04492, -9.10156, 1.4.2022 14:53:37.487
104, 18.6806, 348.402, 331.149, 0.228516, -0.078125, 0.0195312, 1.96484, 2.92773, -9.33496, 1.4.2022 14:53:37.495
105, 18.6055, 348.42, 331.131, 0.0751953, -0.0263672, 0.0078125, 1.9375, 2.89062, -9.37402, 1.4.2022 14:53:37.503
106, 18.6247, 348.415, 331.136, -0.140625, 0.0478516, -0.0117188, 1.96289, 2.96387, -9.12109, 1.4.2022 14:53:37.511
107, 18.7157, 348.393, 331.153, -0.264648, 0.0898438, -0.0234375, 1.9873, 3.11621, -8.82129, 1.4.2022 14:53:37.519
108, 18.8289, 348.36, 331.177, -0.210938, 0.0703125, -0.0195312, 2.00391, 3.2627, -8.5918, 1.4.2022 14:53:37.527
109, 18.8832, 348.346, 331.185, -0.0146484, 0.00292969, -0.00292969, 1.95312, 3.25391, -8.63477, 1.4.2022 14:53:37.535
110, 18.8417, 348.356, 331.18, 0.188477, -0.0673828, 0.015625, 1.93164, 3.07617, -8.89746, 1.4.2022 14:53:37.543
111, 18.738, 348.388, 331.152, 0.260742, -0.0917969, 0.0234375, 1.91992, 2.94824, -9.22852, 1.4.2022 14:53:37.551
112, 18.6329, 348.42, 331.136, 0.164062, -0.0566406, 0.0146484, 1.9209, 2.86523, -9.39551, 1.4.2022 14:53:37.559
113, 18.6072, 348.427, 331.13, -0.0390625, 0.0126953, -0.00390625, 1.91504, 2.89941, -9.26562, 1.4.2022 14:53:37.567
114, 18.6598, 348.406, 331.139, -0.211914, 0.0722656, -0.0195312, 1.94922, 3.03613, -8.99902, 1.4.2022 14:53:37.575
115, 18.7747, 348.38, 331.161, -0.242188, 0.0820312, -0.0224609, 2.00488, 3.18555, -8.7334, 1.4.2022 14:53:37.583
116, 18.8576, 348.353, 331.178, -0.115234, 0.0400391, -0.0117188, 2.00879, 3.24609, -8.60938, 1.4.2022 14:53:37.591
117, 18.864, 348.351, 331.18, 0.0820312, -0.0283203, 0.0078125, 1.98828, 3.17773, -8.72363, 1.4.2022 14:53:37.599
118, 18.7922, 348.368, 331.167, 0.219727, -0.0761719, 0.0185547, 1.93945, 3.06152, -9.03418, 1.4.2022 14:53:37.607
119, 18.6901, 348.4, 331.146, 0.21582, -0.0761719, 0.0185547, 1.93164, 2.9209, -9.27734, 1.4.2022 14:53:37.615
120, 18.6201, 348.423, 331.133, 0.0751953, -0.0273438, 0.00683594, 1.93555, 2.91406, -9.35156, 1.4.2022 14:53:37.623
121, 18.6247, 348.415, 331.136, -0.110352, 0.0361328, -0.0107422, 1.93262, 2.94727, -9.18848, 1.4.2022 14:53:37.631
122, 18.7029, 348.396, 331.149, -0.219727, 0.0742188, -0.0205078, 1.94043, 3.07422, -8.90723, 1.4.2022 14:53:37.639
123, 18.7986, 348.366, 331.169, -0.18457, 0.0625, -0.0175781, 1.98438, 3.19238, -8.66797, 1.4.2022 14:53:37.647
124, 18.8576, 348.353, 331.178, -0.0361328, 0.0107422, -0.00390625, 1.9834, 3.19141, -8.6875, 1.4.2022 14:53:37.655
125, 18.8353, 348.358, 331.178, 0.12793, -0.0449219, 0.0107422, 1.95801, 3.125, -8.84863, 1.4.2022 14:53:37.663
126, 18.7524, 348.385, 331.162, 0.200195, -0.0683594, 0.0185547, 1.91895, 2.99316, -9.13184, 1.4.2022 14:53:37.671
127, 18.6742, 348.404, 331.148, 0.140625, -0.0478516, 0.0126953, 1.93945, 2.93262, -9.25293, 1.4.2022 14:53:37.679
128, 18.6375, 348.411, 331.139, -0.00195312, 0, -0.000976562, 1.94434, 2.94238, -9.2002, 1.4.2022 14:53:37.687
129, 18.6742, 348.404, 331.148, -0.134766, 0.0449219, -0.0117188, 1.96582, 2.99609, -9.02441, 1.4.2022 14:53:37.695
130, 18.7444, 348.386, 331.154, -0.170898, 0.0556641, -0.015625, 1.94141, 3.0791, -8.84961, 1.4.2022 14:53:37.703
131, 18.8081, 348.364, 331.166, -0.0986328, 0.03125, -0.00976562, 1.94238, 3.18262, -8.72949, 1.4.2022 14:53:37.711
132, 18.8209, 348.361, 331.169, 0.0302734, -0.0107422, 0.00195312, 1.97266, 3.15723, -8.8125, 1.4.2022 14:53:37.719
133, 18.7875, 348.376, 331.165, 0.130859, -0.0449219, 0.00976562, 1.93457, 3.0625, -9.00293, 1.4.2022 14:53:37.727
134, 18.7221, 348.391, 331.154, 0.142578, -0.0488281, 0.0117188, 1.95215, 2.99707, -9.16992, 1.4.2022 14:53:37.735
135, 18.6678, 348.405, 331.146, 0.0664062, -0.0234375, 0.00585938, 1.94434, 2.95801, -9.22852, 1.4.2022 14:53:37.743
136, 18.6678, 348.405, 331.146, -0.0439453, 0.015625, -0.00390625, 1.94824, 2.9668, -9.14746, 1.4.2022 14:53:37.751
137, 18.7029, 348.396, 331.149, -0.119141, 0.0410156, -0.0107422, 1.94629, 3.06543, -9.02246, 1.4.2022 14:53:37.759
138, 18.7588, 348.383, 331.163, -0.116211, 0.0380859, -0.00976562, 1.95801, 3.09766, -8.83105, 1.4.2022 14:53:37.767
139, 18.8003, 348.373, 331.168, -0.0419922, 0.0126953, -0.00488281, 1.95605, 3.13965, -8.80566, 1.4.2022 14:53:37.775
140, 18.7939, 348.374, 331.166, 0.046875, -0.0175781, 0.00390625, 1.95117, 3.10352, -8.86621, 1.4.2022 14:53:37.783
141, 18.7588, 348.383, 331.163, 0.0957031, -0.0341797, 0.00683594, 1.9541, 3.03027, -8.97363, 1.4.2022 14:53:37.791
142, 18.7157, 348.393, 331.153, 0.078125, -0.0283203, 0.00683594, 1.97949, 2.97559, -9.09961, 1.4.2022 14:53:37.799
143, 18.6965, 348.398, 331.148, 0.015625, -0.00585938, 0, 1.9502, 3.00781, -9.14062, 1.4.2022 14:53:37.807
144, 18.7029, 348.396, 331.149, -0.0449219, 0.0146484, -0.00488281, 1.94336, 3.06934, -9.06543, 1.4.2022 14:53:37.815
145, 18.7316, 348.389, 331.151, -0.0654297, 0.0214844, -0.00683594, 1.96582, 3.06641, -8.97754, 1.4.2022 14:53:37.823
146, 18.7524, 348.385, 331.162, -0.0400391, 0.0126953, -0.00390625, 1.95898, 3.07715, -8.94531, 1.4.2022 14:53:37.831
147, 18.7652, 348.381, 331.165, 0.00878906, -0.00390625, -0.000976562, 1.95996, 3.0918, -8.93359, 1.4.2022 14:53:37.839
148, 18.7524, 348.385, 331.162, 0.0429688, -0.0166016, 0.00292969, 1.93945, 3.04297, -8.98438, 1.4.2022 14:53:37.847
149, 18.7332, 348.391, 331.157, 0.0419922, -0.015625, 0.00292969, 1.94434, 3.04883, -9.00391, 1.4.2022 14:53:37.855
150, 18.7157, 348.393, 331.153, 0.00878906, -0.00390625, 0.000976562, 1.94629, 3.0332, -9.03809, 1.4.2022 14:53:37.863
151, 18.7221, 348.391, 331.154, -0.0253906, 0.00878906, -0.00195312, 1.97559, 3.05762, -8.99707, 1.4.2022 14:53:37.871
152, 18.7396, 348.389, 331.158, -0.0419922, 0.0126953, -0.00488281, 1.97852, 3.08984, -8.96191, 1.4.2022 14:53:37.879
153, 18.7524, 348.385, 331.162, -0.0253906, 0.0078125, -0.00292969, 1.9668, 3.11816, -8.92773, 1.4.2022 14:53:37.887
154, 18.7588, 348.383, 331.163, 0.00488281, -0.00292969, -0.000976562, 1.95605, 3.10547, -8.98535, 1.4.2022 14:53:37.895
155, 18.7524, 348.385, 331.162, 0.0283203, -0.00976562, 0.00195312, 1.9541, 3.05957, -8.96582, 1.4.2022 14:53:37.903
156, 18.7396, 348.389, 331.158, 0.0283203, -0.0117188, 0.00292969, 1.97266, 3.04199, -9.02148, 1.4.2022 14:53:37.911
157, 18.7237, 348.392, 331.16, 0.00976562, -0.00390625, 0.000976562, 1.94922, 3.03516, -9.02344, 1.4.2022 14:53:37.919
158, 18.7316, 348.389, 331.151, -0.0126953, 0.00488281, 0, 1.95703, 3.0498, -8.9873, 1.4.2022 14:53:37.927
159, 18.7396, 348.389, 331.158, -0.0205078, 0.00683594, -0.00195312, 1.94727, 3.06934, -8.99609, 1.4.2022 14:53:37.935
160, 18.746, 348.387, 331.16, -0.00878906, 0.00390625, -0.00195312, 1.93555, 3.05566, -8.94336, 1.4.2022 14:53:37.943
161, 18.746, 348.387, 331.16, 0.00683594, -0.00195312, 0, 1.95898, 3.07422, -8.99316, 1.4.2022 14:53:37.951
162, 18.7396, 348.389, 331.158, 0.0146484, -0.00585938, 0, 1.94434, 3.06348, -9.0127, 1.4.2022 14:53:37.959
163, 18.7332, 348.391, 331.157, 0.0078125, -0.00390625, 0, 1.95215, 3.0459, -9.00195, 1.4.2022 14:53:37.967
164, 18.7332, 348.391, 331.157, -0.00683594, 0.000976562, -0.000976562, 1.94141, 3.0752, -9.0166, 1.4.2022 14:53:37.975
165, 18.7396, 348.389, 331.158, -0.0166016, 0.00585938, -0.000976562, 1.97852, 3.03516, -8.97168, 1.4.2022 14:53:37.983
166, 18.746, 348.387, 331.16, -0.0136719, 0.00488281, -0.000976562, 1.94238, 3.06836, -8.96289, 1.4.2022 14:53:37.991
167, 18.7524, 348.385, 331.162, -0.000976562, 0, -0.000976562, 1.94434, 3.08496, -8.96387, 1.4.2022 14:53:37.999
168, 18.746, 348.387, 331.16, 0.0126953, -0.00488281, 0, 1.97363, 3.06641, -8.96289, 1.4.2022 14:53:38.007
169, 18.7396, 348.389, 331.158, 0.0185547, -0.0078125, 0.000976562, 1.94922, 3.05371, -9.03027, 1.4.2022 14:53:38.015
170, 18.7316, 348.389, 331.151, 0.0117188, -0.00488281, 0, 1.9541, 3.03516, -9.03027, 1.4.2022 14:53:38.023
171, 18.7316, 348.389, 331.151, -0.00195312, 0.00195312, -0.000976562, 1.92676, 3.04688, -9.04395, 1.4.2022 14:53:38.031
172, 18.7332, 348.391, 331.157, -0.0166016, 0.00488281, -0.000976562, 1.95117, 3.04199, -9.02051, 1.4.2022 14:53:38.039
173, 18.7396, 348.389, 331.158, -0.0195312, 0.00585938, -0.000976562, 1.94727, 3.0625, -8.99121, 1.4.2022 14:53:38.047
174, 18.746, 348.387, 331.16, -0.00878906, 0.00195312, -0.00195312, 1.93359, 3.05762, -8.93457, 1.4.2022 14:53:38.055
175, 18.746, 348.387, 331.16, 0.00683594, -0.00292969, -0.000976562, 1.9541, 3.07129, -8.96484, 1.4.2022 14:53:38.063
176, 18.746, 348.387, 331.16, 0.0175781, -0.00585938, 0, 1.94238, 3.06152, -8.98145, 1.4.2022 14:53:38.071
177, 18.7396, 348.389, 331.158, 0.015625, -0.00585938, 0.000976562, 1.95215, 3.02832, -8.98535, 1.4.2022 14:53:38.079
178, 18.7332, 348.391, 331.157, 0.00390625, -0.00195312, -0.000976562, 1.95605, 3.02734, -9.0166, 1.4.2022 14:53:38.087
179, 18.7332, 348.391, 331.157, -0.0117188, 0.00292969, -0.00195312, 1.94141, 3.06543, -9.00781, 1.4.2022 14:53:38.095
180, 18.7396, 348.389, 331.158, -0.0205078, 0.00585938, -0.00195312, 1.9707, 3.05566, -8.99414, 1.4.2022 14:53:38.103
181, 18.746, 348.387, 331.16, -0.0195312, 0.00683594, -0.000976562, 1.97363, 3.08691, -8.92188, 1.4.2022 14:53:38.111
182, 18.7524, 348.385, 331.162, -0.00292969, 0, -0.000976562, 1.97168, 3.07324, -8.94629, 1.4.2022 14:53:38.119
183, 18.7524, 348.385, 331.162, 0.0175781, -0.00585938, 0.000976562, 1.94043, 3.05566, -8.94336, 1.4.2022 14:53:38.127
184, 18.7396, 348.389, 331.158, 0.0283203, -0.0107422, 0.00195312, 1.9541, 3.06348, -9.01074, 1.4.2022 14:53:38.135
185, 18.7252, 348.391, 331.149, 0.0224609, -0.0078125, 0.00195312, 1.94434, 3.02734, -9.02148, 1.4.2022 14:53:38.143
186, 18.7221, 348.391, 331.154, 0.00390625, -0.00195312, -0.000976562, 1.94922, 3.03027, -9.02832, 1.4.2022 14:53:38.151
187, 18.7221, 348.391, 331.154, -0.0195312, 0.00683594, -0.00195312, 1.9375, 3.06055, -9.00098, 1.4.2022 14:53:38.159
188, 18.7396, 348.389, 331.158, -0.0341797, 0.0107422, -0.00292969, 1.92578, 3.07324, -8.96484, 1.4.2022 14:53:38.167
189, 18.7524, 348.385, 331.162, -0.03125, 0.00976562, -0.00292969, 1.95703, 3.09277, -8.9043, 1.4.2022 14:53:38.175
190, 18.7588, 348.383, 331.163, -0.00683594, 0.000976562, -0.000976562, 1.95898, 3.09863, -8.94043, 1.4.2022 14:53:38.183
191, 18.7588, 348.383, 331.163, 0.0253906, -0.00878906, 0.00195312, 1.95898, 3.10938, -8.9541, 1.4.2022 14:53:38.191
192, 18.7396, 348.389, 331.158, 0.0429688, -0.015625, 0.00292969, 1.96582, 3.05176, -9.03516, 1.4.2022 14:53:38.199
193, 18.7221, 348.391, 331.154, 0.0332031, -0.0126953, 0.00292969, 1.94824, 3.04102, -9.07031, 1.4.2022 14:53:38.207
194, 18.7157, 348.393, 331.153, 0.000976562, 0, -0.000976562, 1.93945, 3.03027, -9.04004, 1.4.2022 14:53:38.215
195, 18.7221, 348.391, 331.154, -0.0380859, 0.0126953, -0.00390625, 1.94922, 3.0293, -9.01855, 1.4.2022 14:53:38.223
196, 18.746, 348.387, 331.16, -0.0576172, 0.0195312, -0.00585938, 1.94824, 3.06445, -8.92676, 1.4.2022 14:53:38.231
197, 18.7666, 348.375, 331.161, -0.0400391, 0.0136719, -0.00292969, 1.93555, 3.0957, -8.90625, 1.4.2022 14:53:38.239
198, 18.7794, 348.371, 331.164, 0.00488281, -0.00195312, -0.000976562, 1.94336, 3.09277, -8.9043, 1.4.2022 14:53:38.247
199, 18.7635, 348.375, 331.166, 0.0507812, -0.0175781, 0.00390625, 1.96094, 3.05957, -8.9873, 1.4.2022 14:53:38.255
200, 18.7396, 348.389, 331.158, 0.0654297, -0.0224609, 0.00488281, 1.95801, 3.05371, -9.08008, 1.4.2022 14:53:38.263
201, 18.7093, 348.395, 331.151, 0.0371094, -0.0136719, 0.00292969, 1.96484, 3.01172, -9.11523, 1.4.2022 14:53:38.271
202, 18.7029, 348.396, 331.149, -0.0117188, 0.00390625, 0, 1.96973, 3.0127, -9.08594, 1.4.2022 14:53:38.279
203, 18.7221, 348.391, 331.154, -0.0537109, 0.0195312, -0.00390625, 1.95117, 3.05273, -9.00098, 1.4.2022 14:53:38.287
204, 18.7507, 348.378, 331.163, -0.0615234, 0.0214844, -0.00488281, 1.94922, 3.09766, -8.96191, 1.4.2022 14:53:38.295
205, 18.7794, 348.371, 331.164, -0.0322266, 0.0107422, -0.00292969, 1.95996, 3.08496, -8.87891, 1.4.2022 14:53:38.303
206, 18.7939, 348.374, 331.166, 0.0136719, -0.00488281, 0, 1.91699, 3.0918, -8.88281, 1.4.2022 14:53:38.311
207, 18.7811, 348.378, 331.163, 0.0429688, -0.015625, 0.00292969, 1.94531, 3.02539, -8.95703, 1.4.2022 14:53:38.319
208, 18.7588, 348.383, 331.163, 0.0419922, -0.015625, 0.00195312, 1.93652, 3.00879, -9.0498, 1.4.2022 14:53:38.327
209, 18.746, 348.387, 331.16, 0.0136719, -0.00585938, 0, 1.95605, 3.01367, -9.03809, 1.4.2022 14:53:38.335
210, 18.7396, 348.389, 331.158, -0.0146484, 0.00488281, -0.000976562, 1.93164, 3.0498, -9.04395, 1.4.2022 14:53:38.343
211, 18.746, 348.387, 331.16, -0.0253906, 0.00878906, -0.00195312, 1.92578, 3.0498, -8.99121, 1.4.2022 14:53:38.351
212, 18.7588, 348.383, 331.163, -0.015625, 0.00585938, -0.000976562, 1.9707, 3.07422, -8.98633, 1.4.2022 14:53:38.359
213, 18.7588, 348.383, 331.163, 0, 0, 0.000976562, 1.95703, 3.07812, -8.96191, 1.4.2022 14:53:38.367
214, 18.7588, 348.383, 331.163, 0.00878906, -0.00195312, 0, 1.97168, 3.04883, -8.93945, 1.4.2022 14:53:38.375
215, 18.7524, 348.385, 331.162, 0.00976562, -0.00390625, 0, 1.94531, 3.04004, -8.96777, 1.4.2022 14:53:38.383
216, 18.7524, 348.385, 331.162, -0.000976562, 0, -0.000976562, 1.93945, 3.04199, -9.02734, 1.4.2022 14:53:38.391
217, 18.7524, 348.385, 331.162, -0.0126953, 0.00390625, -0.00292969, 1.9502, 3.06348, -8.95801, 1.4.2022 14:53:38.399
218, 18.7588, 348.383, 331.163, -0.0126953, 0.00390625, 0, 1.94043, 3.0498, -8.97461, 1.4.2022 14:53:38.407
219, 18.7652, 348.381, 331.165, -0.00195312, 0.000976562, -0.000976562, 1.96875, 3.0791, -8.97949, 1.4.2022 14:53:38.415
220, 18.7588, 348.383, 331.163, 0.00878906, -0.00390625, 0, 1.95215, 3.03613, -9.00684, 1.4.2022 14:53:38.423
221, 18.7588, 348.383, 331.163, 0.0175781, -0.00585938, 0, 1.95898, 3.03516, -8.96582, 1.4.2022 14:53:38.431
222, 18.746, 348.387, 331.16, 0.0146484, -0.00488281, 0, 1.9375, 3.04883, -9.0127, 1.4.2022 14:53:38.439
223, 18.746, 348.387, 331.16, 0, 0, 0.000976562, 1.93457, 3.05469, -9.03906, 1.4.2022 14:53:38.447
224, 18.746, 348.387, 331.16, -0.0185547, 0.00585938, -0.00195312, 1.9541, 3.0498, -8.97754, 1.4.2022 14:53:38.455
225, 18.7588, 348.383, 331.163, -0.0253906, 0.00878906, -0.00292969, 1.9541, 3.07031, -8.95508, 1.4.2022 14:53:38.463
226, 18.7652, 348.381, 331.165, -0.0175781, 0.00585938, -0.00195312, 1.95215, 3.07715, -8.93652, 1.4.2022 14:53:38.471
227, 18.7747, 348.38, 331.161, 0.00195312, -0.00195312, -0.000976562, 1.94727, 3.06738, -8.93164, 1.4.2022 14:53:38.479
228, 18.7716, 348.38, 331.166, 0.0146484, -0.00488281, 0, 1.94531, 3.02051, -8.94727, 1.4.2022 14:53:38.487
229, 18.7652, 348.381, 331.165, 0.015625, -0.00585938, 0, 1.9541, 3.03125, -8.99707, 1.4.2022 14:53:38.495
230, 18.7588, 348.383, 331.163, 0.0107422, -0.00488281, -0.000976562, 2.00195, 3.04199, -9.01953, 1.4.2022 14:53:38.503
231, 18.7524, 348.385, 331.162, 0.000976562, -0.00195312, -0.00195312, 1.9707, 3.05566, -9.00586, 1.4.2022 14:53:38.511
232, 18.7588, 348.383, 331.163, -0.00878906, 0.00292969, 0, 1.95312, 3.08105, -9.05566, 1.4.2022 14:53:38.519
233, 18.7571, 348.377, 331.164, -0.00488281, 0.000976562, -0.000976562, 1.94727, 3.07031, -8.94336, 1.4.2022 14:53:38.527
234, 18.7571, 348.377, 331.164, -0.000976562, 0, -0.000976562, 1.9668, 3.03711, -8.96387, 1.4.2022 14:53:38.535
235, 18.7571, 348.377, 331.164, 0, 0, -0.000976562, 1.96191, 3.01855, -8.97168, 1.4.2022 14:53:38.543
236, 18.7635, 348.375, 331.166, -0.00390625, 0.000976562, -0.000976562, 1.91406, 3.06348, -8.96191, 1.4.2022 14:53:38.551
237, 18.7635, 348.375, 331.166, -0.00878906, 0.000976562, -0.00195312, 1.94727, 3.04492, -8.97754, 1.4.2022 14:53:38.559
238, 18.773, 348.373, 331.163, -0.0078125, 0.000976562, -0.00195312, 1.97559, 3.05273, -8.97754, 1.4.2022 14:53:38.567
239, 18.7712, 348.366, 331.164, 0.000976562, -0.00195312, -0.000976562, 1.97363, 3.06738, -8.99902, 1.4.2022 14:53:38.575
240, 18.7617, 348.368, 331.167, 0.0117188, -0.00488281, 0, 1.96094, 3.06836, -9.02441, 1.4.2022 14:53:38.583
241, 18.7553, 348.37, 331.165, 0.0195312, -0.0078125, 0, 1.95605, 3.04688, -9.01562, 1.4.2022 14:53:38.591
242, 18.7489, 348.372, 331.164, 0.0126953, -0.00488281, 0.000976562, 1.96387, 3.01953, -9.00781, 1.4.2022 14:53:38.599
243, 18.7489, 348.372, 331.164, -0.00683594, 0.000976562, -0.00195312, 1.96582, 3.03516, -9.03809, 1.4.2022 14:53:38.607
244, 18.7553, 348.37, 331.165, -0.0214844, 0.00585938, -0.00195312, 1.93652, 3.06836, -9.04102, 1.4.2022 14:53:38.615
245, 18.7617, 348.368, 331.167, -0.0234375, 0.00683594, -0.00292969, 1.95605, 3.07422, -8.98633, 1.4.2022 14:53:38.621
246, 18.7712, 348.366, 331.164, -0.0107422, 0.00292969, -0.00195312, 1.95703, 3.04883, -8.93945, 1.4.2022 14:53:38.629
247, 18.7712, 348.366, 331.164, 0.0078125, -0.00488281, 0, 1.96875, 3.05664, -8.96094, 1.4.2022 14:53:38.637
248, 18.7617, 348.368, 331.167, 0.0214844, -0.00878906, 0.000976562, 1.97168, 3.03516, -8.95898, 1.4.2022 14:53:38.645
249, 18.7489, 348.372, 331.164, 0.0205078, -0.0078125, 0.000976562, 1.91309, 3.01465, -9, 1.4.2022 14:53:38.653
250, 18.7425, 348.374, 331.162, 0.00390625, -0.00292969, -0.000976562, 1.95215, 3.03223, -9.00879, 1.4.2022 14:53:38.661
251, 18.7425, 348.374, 331.162, -0.0126953, 0.00390625, -0.000976562, 1.94629, 3.02832, -9.0332, 1.4.2022 14:53:38.669
252, 18.7489, 348.372, 331.164, -0.0195312, 0.00585938, -0.00195312, 1.9707, 3.0625, -8.99902, 1.4.2022 14:53:38.677
253, 18.7535, 348.363, 331.167, -0.0136719, 0.00390625, -0.000976562, 1.97852, 3.08203, -8.94141, 1.4.2022 14:53:38.685
254, 18.7631, 348.362, 331.163, -0.00195312, -0.000976562, -0.000976562, 1.9541, 3.0791, -8.97656, 1.4.2022 14:53:38.693
255, 18.7631, 348.362, 331.163, 0.00878906, -0.00390625, 0.000976562, 1.97363, 3.0752, -8.95117, 1.4.2022 14:53:38.701
256, 18.7535, 348.363, 331.167, 0.0136719, -0.00683594, 0, 1.94727, 3.05762, -8.98242, 1.4.2022 14:53:38.709
257, 18.7471, 348.365, 331.165, 0.00878906, -0.00488281, 0, 1.94434, 3.03418, -9.02051, 1.4.2022 14:53:38.717
258, 18.7471, 348.365, 331.165, -0.00292969, -0.000976562, -0.000976562, 1.95215, 3.00977, -8.99805, 1.4.2022 14:53:38.725
259, 18.7471, 348.365, 331.165, -0.0107422, 0.00292969, -0.00195312, 1.96191, 3.06348, -8.96094, 1.4.2022 14:53:38.733
260, 18.7535, 348.363, 331.167, -0.00976562, 0.000976562, -0.00195312, 1.93555, 3.05664, -8.97266, 1.4.2022 14:53:38.741
261, 18.7631, 348.362, 331.163, -0.00585938, 0.00195312, -0.00292969, 1.94727, 3.03516, -8.95898, 1.4.2022 14:53:38.749
262, 18.7631, 348.362, 331.163, -0.0078125, -0.000976562, -0.00292969, 1.94336, 3.01172, -8.92188, 1.4.2022 14:53:38.757
263, 18.7695, 348.36, 331.165, -0.015625, 0, -0.00390625, 1.93848, 3.03809, -8.9043, 1.4.2022 14:53:38.765
264, 18.7759, 348.358, 331.167, -0.0205078, 0.000976562, -0.00488281, 1.91504, 3.04395, -8.88184, 1.4.2022 14:53:38.773
265, 18.7856, 348.364, 331.173, -0.000976562, -0.00390625, -0.00292969, 1.95898, 3.13184, -8.91797, 1.4.2022 14:53:38.781
266, 18.7728, 348.368, 331.17, 0.0488281, -0.0195312, 0.00390625, 1.98633, 3.17285, -9.05469, 1.4.2022 14:53:38.789
267, 18.7443, 348.38, 331.161, 0.0966797, -0.0341797, 0.0078125, 1.98438, 3.09375, -9.19824, 1.4.2022 14:53:38.797
268, 18.7027, 348.391, 331.156, 0.0888672, -0.0302734, 0.0078125, 1.98438, 3.0459, -9.25977, 1.4.2022 14:53:38.805
269, 18.6724, 348.397, 331.149, 0.0146484, -0.00585938, 0.000976562, 1.97754, 2.97461, -9.22852, 1.4.2022 14:53:38.813
270, 18.6883, 348.393, 331.147, -0.0966797, 0.03125, -0.00878906, 1.96582, 2.96094, -9.03125, 1.4.2022 14:53:38.821
271, 18.7489, 348.372, 331.164, -0.179688, 0.0585938, -0.0166016, 1.9502, 3.02441, -8.7998, 1.4.2022 14:53:38.829
272, 18.8335, 348.351, 331.179, -0.161133, 0.0527344, -0.015625, 1.94727, 3.14746, -8.60938, 1.4.2022 14:53:38.837
273, 18.883, 348.34, 331.192, -0.0371094, 0.00976562, -0.00488281, 1.95801, 3.17773, -8.6377, 1.4.2022 14:53:38.845
274, 18.8574, 348.348, 331.185, 0.129883, -0.0478516, 0.00976562, 1.94824, 3.12988, -8.8584, 1.4.2022 14:53:38.853
275, 18.7714, 348.374, 331.173, 0.231445, -0.0800781, 0.0185547, 1.92969, 3.04004, -9.17969, 1.4.2022 14:53:38.861
276, 18.6678, 348.405, 331.146, 0.207031, -0.0712891, 0.0166016, 1.96387, 2.91504, -9.37793, 1.4.2022 14:53:38.869
277, 18.604, 348.421, 331.142, 0.0458984, -0.0166016, 0.00292969, 1.92578, 2.86328, -9.4082, 1.4.2022 14:53:38.877
278, 18.6327, 348.414, 331.143, -0.152344, 0.0498047, -0.0146484, 1.95508, 2.96289, -9.15723, 1.4.2022 14:53:38.885
279, 18.7283, 348.384, 331.163, -0.265625, 0.0859375, -0.0244141, 1.97852, 3.08691, -8.7832, 1.4.2022 14:53:38.893
280, 18.8432, 348.358, 331.186, -0.220703, 0.0703125, -0.0214844, 1.97852, 3.20801, -8.55273, 1.4.2022 14:53:38.901
281, 18.9071, 348.342, 331.19, -0.0400391, 0.00878906, -0.00390625, 1.97559, 3.25488, -8.58203, 1.4.2022 14:53:38.909
282, 18.872, 348.351, 331.187, 0.170898, -0.0595703, 0.0146484, 1.95801, 3.16699, -8.83789, 1.4.2022 14:53:38.917
283, 18.7668, 348.383, 331.171, 0.279297, -0.0957031, 0.0244141, 1.95117, 3.02637, -9.20996, 1.4.2022 14:53:38.925
284, 18.6455, 348.411, 331.146, 0.222656, -0.0771484, 0.0195312, 1.94434, 2.90723, -9.44238, 1.4.2022 14:53:38.933
285, 18.5849, 348.432, 331.13, 0.0292969, -0.0126953, 0.00195312, 1.93262, 2.86719, -9.45312, 1.4.2022 14:53:38.941
286, 18.6216, 348.425, 331.139, -0.188477, 0.0634766, -0.0175781, 1.94043, 2.94531, -9.14258, 1.4.2022 14:53:38.949
287, 18.7396, 348.389, 331.158, -0.291992, 0.0976562, -0.0273438, 1.9248, 3.07812, -8.69727, 1.4.2022 14:53:38.957
288, 18.856, 348.354, 331.189, -0.222656, 0.0722656, -0.0224609, 1.94043, 3.21582, -8.50488, 1.4.2022 14:53:38.965
289, 18.9151, 348.341, 331.198, -0.0224609, 0.00390625, -0.00390625, 1.93359, 3.19434, -8.51465, 1.4.2022 14:53:38.973
290, 18.8801, 348.355, 331.188, 0.185547, -0.0673828, 0.0146484, 1.90332, 3.1543, -8.81641, 1.4.2022 14:53:38.981
291, 18.7686, 348.389, 331.17, 0.28125, -0.0986328, 0.0244141, 1.94043, 2.99902, -9.16309, 1.4.2022 14:53:38.989
292, 18.6472, 348.417, 331.145, 0.214844, -0.0742188, 0.0185547, 1.94043, 2.87988, -9.40234, 1.4.2022 14:53:38.997
293, 18.5883, 348.44, 331.135, 0.0263672, -0.00976562, 0.00292969, 1.92285, 2.88672, -9.4043, 1.4.2022 14:53:39.005
294, 18.6234, 348.432, 331.138, -0.167969, 0.0566406, -0.0146484, 1.96191, 2.96777, -9.16895, 1.4.2022 14:53:39.013
295, 18.7255, 348.399, 331.159, -0.258789, 0.0859375, -0.0244141, 1.97754, 3.07422, -8.83203, 1.4.2022 14:53:39.021
296, 18.8322, 348.368, 331.181, -0.195312, 0.0634766, -0.0195312, 1.99023, 3.19824, -8.60352, 1.4.2022 14:53:39.029
297, 18.8801, 348.355, 331.188, -0.0263672, 0.00585938, -0.00488281, 1.97363, 3.18945, -8.56836, 1.4.2022 14:53:39.037
298, 18.8532, 348.369, 331.185, 0.145508, -0.0527344, 0.0117188, 1.9707, 3.12891, -8.82031, 1.4.2022 14:53:39.045
299, 18.7622, 348.391, 331.168, 0.227539, -0.0810547, 0.0195312, 1.92383, 3.01367, -9.11914, 1.4.2022 14:53:39.053
300, 18.6729, 348.42, 331.15, 0.175781, -0.0634766, 0.0146484, 1.9209, 2.94336, -9.37402, 1.4.2022 14:53:39.061
301, 18.6203, 348.431, 331.143, 0.0253906, -0.00976562, 0.00195312, 1.91016, 2.93457, -9.31641, 1.4.2022 14:53:39.069
302, 18.6426, 348.426, 331.142, -0.126953, 0.0429688, -0.00976562, 1.94238, 3.0127, -9.15527, 1.4.2022 14:53:39.077
303, 18.7208, 348.408, 331.156, -0.201172, 0.0673828, -0.0175781, 1.91699, 3.09766, -8.85156, 1.4.2022 14:53:39.085
304, 18.8037, 348.381, 331.173, -0.157227, 0.0507812, -0.0136719, 1.92871, 3.16895, -8.6748, 1.4.2022 14:53:39.093
305, 18.8468, 348.371, 331.183, -0.0263672, 0.00585938, -0.00390625, 1.96289, 3.1377, -8.67871, 1.4.2022 14:53:39.101
306, 18.826, 348.375, 331.173, 0.112305, -0.0410156, 0.00878906, 1.94629, 3.09766, -8.83008, 1.4.2022 14:53:39.109
307, 18.7575, 348.4, 331.165, 0.181641, -0.0644531, 0.015625, 1.94727, 3.01953, -9.12598, 1.4.2022 14:53:39.117
308, 18.6811, 348.425, 331.15, 0.142578, -0.0517578, 0.0126953, 1.95312, 2.95996, -9.2832, 1.4.2022 14:53:39.125
309, 18.638, 348.435, 331.14, 0.0244141, -0.00976562, 0.000976562, 1.93164, 2.95703, -9.2832, 1.4.2022 14:53:39.133
310, 18.6572, 348.429, 331.145, -0.100586, 0.0332031, -0.0107422, 1.93848, 3.00977, -9.12695, 1.4.2022 14:53:39.141
311, 18.7208, 348.408, 331.156, -0.162109, 0.0556641, -0.015625, 1.94531, 3.10254, -8.91602, 1.4.2022 14:53:39.149
312, 18.7895, 348.391, 331.173, -0.129883, 0.0429688, -0.0136719, 1.94922, 3.15527, -8.75684, 1.4.2022 14:53:39.157
313, 18.8262, 348.383, 331.182, -0.0244141, 0.00585938, -0.00195312, 1.96973, 3.1748, -8.70215, 1.4.2022 14:53:39.165
314, 18.8118, 348.385, 331.173, 0.0878906, -0.03125, 0.00585938, 1.93652, 3.1123, -8.84863, 1.4.2022 14:53:39.173
315, 18.7593, 348.407, 331.164, 0.143555, -0.0517578, 0.0117188, 1.93848, 3.01758, -9.09277, 1.4.2022 14:53:39.181
316, 18.6939, 348.421, 331.154, 0.111328, -0.0410156, 0.0078125, 1.92871, 2.9834, -9.27051, 1.4.2022 14:53:39.189
317, 18.6587, 348.43, 331.15, 0.0166016, -0.00683594, 0, 1.93262, 2.9834, -9.21582, 1.4.2022 14:53:39.197
318, 18.6811, 348.425, 331.15, -0.0820312, 0.0283203, -0.00878906, 1.93848, 3.03125, -9.12109, 1.4.2022 14:53:39.205
319, 18.7306, 348.414, 331.163, -0.128906, 0.0439453, -0.0117188, 1.9502, 3.08691, -8.92578, 1.4.2022 14:53:39.213
320, 18.7785, 348.401, 331.169, -0.0996094, 0.0332031, -0.00976562, 1.96777, 3.12598, -8.81055, 1.4.2022 14:53:39.221
321, 18.807, 348.389, 331.177, -0.0166016, 0.00390625, -0.00292969, 1.96094, 3.14258, -8.82422, 1.4.2022 14:53:39.229
322, 18.7944, 348.398, 331.167, 0.0693359, -0.0263672, 0.00585938, 1.97168, 3.11816, -8.87305, 1.4.2022 14:53:39.237
323, 18.7498, 348.408, 331.167, 0.111328, -0.0410156, 0.00976562, 1.92773, 3.03906, -9.01074, 1.4.2022 14:53:39.245
324, 18.7003, 348.42, 331.155, 0.0859375, -0.0302734, 0.00878906, 1.94531, 2.96191, -9.14941, 1.4.2022 14:53:39.253
325, 18.6828, 348.432, 331.149, 0.0126953, -0.00585938, 0, 1.9375, 2.98438, -9.16504, 1.4.2022 14:53:39.261
326, 18.6956, 348.428, 331.152, -0.0625, 0.0195312, -0.00683594, 1.92188, 3.02148, -9.05469, 1.4.2022 14:53:39.269
327, 18.7306, 348.414, 331.163, -0.0966797, 0.0322266, -0.00976562, 1.9209, 3.06836, -8.95996, 1.4.2022 14:53:39.277
328, 18.7721, 348.403, 331.167, -0.0722656, 0.0224609, -0.00683594, 1.93164, 3.07715, -8.87891, 1.4.2022 14:53:39.285
329, 18.7849, 348.399, 331.171, -0.0078125, 0.00195312, -0.00195312, 1.89062, 3.10742, -8.84863, 1.4.2022 14:53:39.293
330, 18.7785, 348.401, 331.169, 0.0566406, -0.0205078, 0.00390625, 1.9209, 3.09961, -8.95898, 1.4.2022 14:53:39.301
331, 18.7434, 348.41, 331.166, 0.0859375, -0.0292969, 0.0078125, 1.91895, 3.0293, -9.08691, 1.4.2022 14:53:39.309
332, 18.7084, 348.424, 331.156, 0.0634766, -0.0214844, 0.00488281, 1.94043, 3.00977, -9.12207, 1.4.2022 14:53:39.317
333, 18.6892, 348.43, 331.151, 0.00195312, -0.00195312, 0, 1.95801, 3.00098, -9.08691, 1.4.2022 14:53:39.325
334, 18.702, 348.426, 331.154, -0.0585938, 0.0185547, -0.00585938, 1.9541, 3.02051, -9.03125, 1.4.2022 14:53:39.333
335, 18.7387, 348.419, 331.163, -0.0830078, 0.0273438, -0.00878906, 1.97168, 3.09863, -8.91699, 1.4.2022 14:53:39.341
336, 18.7721, 348.403, 331.167, -0.0605469, 0.0185547, -0.00585938, 1.93164, 3.11719, -8.84375, 1.4.2022 14:53:39.349
337, 18.7849, 348.399, 331.171, -0.00488281, -0.000976562, -0.00195312, 1.92969, 3.10449, -8.83691, 1.4.2022 14:53:39.357
338, 18.7738, 348.41, 331.166, 0.0527344, -0.0205078, 0.00390625, 1.94043, 3.05078, -8.92773, 1.4.2022 14:53:39.365
339, 18.7451, 348.417, 331.165, 0.0751953, -0.0292969, 0.00585938, 1.94141, 3.00781, -9.08105, 1.4.2022 14:53:39.373
340, 18.71, 348.426, 331.161, 0.0537109, -0.0214844, 0.00390625, 1.94727, 3.0127, -9.14844, 1.4.2022 14:53:39.381
341, 18.6974, 348.435, 331.151, 0.00292969, -0.00292969, -0.000976562, 1.93652, 3.02539, -9.09766, 1.4.2022 14:53:39.389
342, 18.7118, 348.432, 331.16, -0.0458984, 0.015625, -0.00488281, 1.93262, 3.03711, -9.01562, 1.4.2022 14:53:39.397
343, 18.7323, 348.421, 331.161, -0.0634766, 0.0224609, -0.00683594, 1.9668, 3.07324, -8.94336, 1.4.2022 14:53:39.405
344, 18.7579, 348.413, 331.168, -0.0449219, 0.015625, -0.00390625, 1.96484, 3.06836, -8.88672, 1.4.2022 14:53:39.413
345, 18.7738, 348.41, 331.166, 0, 0, -0.000976562, 1.97754, 3.08398, -8.8623, 1.4.2022 14:53:39.421
346, 18.761, 348.413, 331.163, 0.0400391, -0.0146484, 0.00292969, 1.9668, 3.06055, -8.94141, 1.4.2022 14:53:39.429
347, 18.7387, 348.419, 331.163, 0.0527344, -0.0185547, 0.00292969, 1.94238, 2.99414, -9.01758, 1.4.2022 14:53:39.437
348, 18.7164, 348.424, 331.163, 0.0322266, -0.0117188, 0.000976562, 1.95117, 3.03418, -9.06641, 1.4.2022 14:53:39.445
349, 18.71, 348.426, 331.161, -0.00488281, 0, -0.000976562, 1.95801, 3.04102, -9.06348, 1.4.2022 14:53:39.453
350, 18.7228, 348.422, 331.165, -0.0371094, 0.0117188, -0.00292969, 1.95996, 3.07129, -9.05078, 1.4.2022 14:53:39.461
351, 18.7387, 348.419, 331.163, -0.0439453, 0.0146484, -0.00390625, 1.93066, 3.0752, -8.95215, 1.4.2022 14:53:39.469
352, 18.7579, 348.413, 331.168, -0.0244141, 0.00683594, -0.00292969, 1.95215, 3.08398, -8.91406, 1.4.2022 14:53:39.477
353, 18.7579, 348.413, 331.168, 0.00585938, -0.00195312, -0.000976562, 1.9668, 3.08887, -8.91699, 1.4.2022 14:53:39.485
354, 18.7515, 348.415, 331.166, 0.03125, -0.0107422, 0.00292969, 1.9375, 3.05176, -8.96094, 1.4.2022 14:53:39.493
355, 18.7387, 348.419, 331.163, 0.0361328, -0.0136719, 0.00195312, 1.93652, 3.03516, -9.04688, 1.4.2022 14:53:39.501
356, 18.7228, 348.422, 331.165, 0.0195312, -0.0078125, 0.000976562, 1.94336, 3.0293, -9.07617, 1.4.2022 14:53:39.509
357, 18.7182, 348.431, 331.162, -0.0078125, 0.00292969, -0.00195312, 1.90527, 3.02832, -9.04688, 1.4.2022 14:53:39.517
358, 18.7259, 348.422, 331.16, -0.03125, 0.00976562, -0.00292969, 1.94727, 3.07617, -8.9834, 1.4.2022 14:53:39.525
359, 18.7451, 348.417, 331.165, -0.0371094, 0.0117188, -0.00390625, 1.9668, 3.08398, -8.91992, 1.4.2022 14:53:39.533
360, 18.7579, 348.413, 331.168, -0.0205078, 0.00683594, -0.00195312, 1.95215, 3.0918, -8.93555, 1.4.2022 14:53:39.541
361, 18.7595, 348.414, 331.174, 0.00585938, -0.00292969, 0, 1.95215, 3.07422, -8.92188, 1.4.2022 14:53:39.549
362, 18.7515, 348.415, 331.166, 0.0302734, -0.0107422, 0.00195312, 1.96582, 3.06055, -8.99902, 1.4.2022 14:53:39.557
363, 18.7387, 348.419, 331.163, 0.0361328, -0.0136719, 0.00195312, 1.97559, 3.0498, -9.03711, 1.4.2022 14:53:39.565
364, 18.7246, 348.429, 331.164, 0.0224609, -0.00878906, 0.00195312, 1.94141, 3.03418, -9.0752, 1.4.2022 14:53:39.573
365, 18.7182, 348.431, 331.162, -0.00292969, 0, -0.000976562, 1.94141, 3.04688, -9.02051, 1.4.2022 14:53:39.581
366, 18.7246, 348.429, 331.164, -0.0273438, 0.00878906, -0.00195312, 1.93555, 3.05469, -8.98438, 1.4.2022 14:53:39.589
367, 18.7387, 348.419, 331.163, -0.0341797, 0.0117188, -0.00292969, 1.95703, 3.06934, -8.92188, 1.4.2022 14:53:39.597
368, 18.7515, 348.415, 331.166, -0.0224609, 0.00683594, -0.00195312, 1.93945, 3.06055, -8.87207, 1.4.2022 14:53:39.605
369, 18.7579, 348.413, 331.168, 0, -0.00195312, 0, 1.94043, 3.06055, -8.93164, 1.4.2022 14:53:39.613
370, 18.7515, 348.415, 331.166, 0.0214844, -0.00878906, 0.00195312, 1.95605, 3.06445, -8.99121, 1.4.2022 14:53:39.621
371, 18.7387, 348.419, 331.163, 0.0302734, -0.0107422, 0.00195312, 1.94238, 3.04492, -8.96582, 1.4.2022 14:53:39.629
372, 18.7277, 348.429, 331.159, 0.0195312, -0.0078125, 0, 1.92969, 3.06055, -9.02246, 1.4.2022 14:53:39.637
373, 18.7246, 348.429, 331.164, -0.000976562, -0.000976562, -0.000976562, 1.94922, 3.03418, -9.0166, 1.4.2022 14:53:39.645
374, 18.7277, 348.429, 331.159, -0.0185547, 0.00585938, -0.00195312, 1.96582, 3.05859, -9.01758, 1.4.2022 14:53:39.653
375, 18.7405, 348.425, 331.162, -0.0244141, 0.00683594, -0.00195312, 1.94238, 3.08301, -8.95703, 1.4.2022 14:53:39.661
376, 18.7469, 348.424, 331.164, -0.0166016, 0.00390625, -0.000976562, 1.93848, 3.06641, -8.89844, 1.4.2022 14:53:39.669
377, 18.7533, 348.422, 331.165, 0.000976562, -0.000976562, -0.000976562, 1.9502, 3.06738, -8.91992, 1.4.2022 14:53:39.677
378, 18.7469, 348.424, 331.164, 0.0136719, -0.00585938, 0, 1.94043, 3.04395, -8.93457, 1.4.2022 14:53:39.685
379, 18.7405, 348.425, 331.162, 0.0195312, -0.0078125, 0.000976562, 1.96094, 3.06543, -9.00293, 1.4.2022 14:53:39.693
380, 18.7341, 348.427, 331.16, 0.0126953, -0.00488281, 0, 1.9541, 3.04883, -9.01562, 1.4.2022 14:53:39.701
381, 18.7277, 348.429, 331.159, 0, -0.000976562, -0.000976562, 1.9248, 3.04199, -9.02246, 1.4.2022 14:53:39.709
382, 18.7341, 348.427, 331.16, -0.0117188, 0.00390625, -0.000976562, 1.96094, 3.06445, -8.99414, 1.4.2022 14:53:39.717
383, 18.7405, 348.425, 331.162, -0.0136719, 0.00390625, -0.00292969, 1.94727, 3.0625, -8.98438, 1.4.2022 14:53:39.725
384, 18.7405, 348.425, 331.162, -0.00878906, 0.00292969, -0.00195312, 1.97559, 3.05957, -8.9707, 1.4.2022 14:53:39.733
385, 18.7469, 348.424, 331.164, 0.00292969, -0.00195312, -0.000976562, 1.9209, 3.04395, -9.00781, 1.4.2022 14:53:39.741
386, 18.7405, 348.425, 331.162, 0.0136719, -0.00585938, 0, 1.96777, 3.05664, -9.04199, 1.4.2022 14:53:39.749
387, 18.7341, 348.427, 331.16, 0.015625, -0.00683594, 0.000976562, 1.94141, 3.05957, -9.05078, 1.4.2022 14:53:39.757
388, 18.7277, 348.429, 331.159, 0.0078125, -0.00390625, 0, 1.92773, 3.04004, -9.03223, 1.4.2022 14:53:39.765
389, 18.7246, 348.429, 331.164, -0.00683594, 0, -0.00195312, 1.95215, 3.0293, -8.99512, 1.4.2022 14:53:39.771
390, 18.7341, 348.427, 331.16, -0.0175781, 0.00488281, -0.00292969, 1.93262, 3.0293, -8.99707, 1.4.2022 14:53:39.779
391, 18.7405, 348.425, 331.162, -0.0195312, 0.00585938, -0.00390625, 1.94922, 3.07812, -8.95996, 1.4.2022 14:53:39.787
392, 18.7469, 348.424, 331.164, -0.0107422, 0.00390625, -0.00292969, 1.9502, 3.06348, -8.95801, 1.4.2022 14:53:39.795
393, 18.7484, 348.425, 331.169, 0.00292969, -0.000976562, -0.000976562, 1.96875, 3.08105, -8.97656, 1.4.2022 14:53:39.803
394, 18.7484, 348.425, 331.169, 0.0136719, -0.00488281, 0, 1.9209, 3.06641, -8.98828, 1.4.2022 14:53:39.811
395, 18.7673, 348.406, 331.172, 0.015625, -0.00585938, 0, 1.94531, 3.01953, -8.98828, 1.4.2022 14:53:39.821
396, 18.7655, 348.399, 331.173, 0.00878906, -0.00390625, 0, 1.9375, 3.04102, -8.99902, 1.4.2022 14:53:39.827
397, 18.7655, 348.399, 331.173, -0.00292969, 0, -0.00195312, 1.93652, 3.07617, -9.04297, 1.4.2022 14:53:39.835
398, 18.7719, 348.398, 331.174, -0.0126953, 0.00488281, -0.000976562, 1.93457, 3.04395, -9.00391, 1.4.2022 14:53:39.843
399, 18.7719, 348.398, 331.174, -0.0136719, 0.00390625, -0.000976562, 1.94434, 3.05957, -8.97754, 1.4.2022 14:53:39.851
400, 18.7783, 348.396, 331.176, -0.0078125, 0.00195312, -0.00195312, 1.91602, 3.07422, -8.98047, 1.4.2022 14:53:39.859
401, 18.78, 348.402, 331.175, 0.00195312, -0.000976562, -0.00195312, 1.9541, 3.05273, -8.97949, 1.4.2022 14:53:39.867
402, 18.78, 348.402, 331.175, 0.00976562, -0.00390625, -0.000976562, 1.94922, 3.03906, -9.00684, 1.4.2022 14:53:39.875
403, 18.7736, 348.404, 331.173, 0.0107422, -0.00390625, 0, 1.94238, 3.04883, -8.96094, 1.4.2022 14:53:39.883
404, 18.7673, 348.406, 331.172, 0.00292969, -0.00195312, -0.000976562, 1.94043, 3.05176, -8.97266, 1.4.2022 14:53:39.891
405, 18.7673, 348.406, 331.172, -0.00683594, 0, -0.000976562, 1.96875, 3.04492, -8.96387, 1.4.2022 14:53:39.899
406, 18.7736, 348.404, 331.173, -0.0107422, 0.00292969, -0.00195312, 1.94434, 3.05078, -8.99219, 1.4.2022 14:53:39.907
407, 18.78, 348.402, 331.175, -0.0078125, 0.00195312, -0.00195312, 1.93555, 3.06152, -8.96973, 1.4.2022 14:53:39.915
408, 18.78, 348.402, 331.175, 0, -0.00195312, -0.000976562, 1.93262, 3.04492, -8.97754, 1.4.2022 14:53:39.923
409, 18.7736, 348.404, 331.173, 0.00585938, -0.00292969, 0, 1.94238, 3.03906, -8.94922, 1.4.2022 14:53:39.931
410, 18.7736, 348.404, 331.173, 0.00976562, -0.00488281, 0.000976562, 1.93262, 3.0625, -9.00293, 1.4.2022 14:53:39.939
411, 18.769, 348.413, 331.17, 0.00488281, -0.00390625, 0, 1.95898, 3.04395, -9.00879, 1.4.2022 14:53:39.947
412, 18.7659, 348.413, 331.175, -0.000976562, -0.000976562, -0.000976562, 1.93262, 3.0459, -8.99414, 1.4.2022 14:53:39.955
413, 18.769, 348.413, 331.17, -0.0078125, 0.00195312, 0, 1.94238, 3.06152, -8.96777, 1.4.2022 14:53:39.963
414, 18.7754, 348.411, 331.172, -0.00976562, 0.00292969, -0.00195312, 1.96387, 3.06445, -8.97266, 1.4.2022 14:53:39.971
415, 18.7754, 348.411, 331.172, -0.00585938, 0.00195312, -0.00195312, 1.96191, 3.08301, -8.96191, 1.4.2022 14:53:39.979
416, 18.7818, 348.409, 331.174, 0, -0.000976562, -0.000976562, 1.93262, 3.0498, -8.97754, 1.4.2022 14:53:39.987
417, 18.7754, 348.411, 331.172, 0.00292969, -0.00292969, -0.000976562, 1.89844, 3.05273, -9, 1.4.2022 14:53:39.995
418, 18.7754, 348.411, 331.172, 0.00390625, -0.00390625, -0.000976562, 1.93262, 3.04883, -9.00586, 1.4.2022 14:53:40.003
419, 18.7659, 348.413, 331.175, 0.0185547, -0.00488281, 0.000976562, 1.95117, 3.08008, -9.02148, 1.4.2022 14:53:40.011
420, 18.7613, 348.421, 331.173, 0.0214844, -0.00683594, 0.000976562, 1.90234, 2.96582, -8.99121, 1.4.2022 14:53:40.019
421, 18.7613, 348.421, 331.173, -0.0224609, 0.00585938, -0.00390625, 1.95801, 3.08203, -9.07715, 1.4.2022 14:53:40.027
422, 18.7676, 348.419, 331.174, -0.03125, 0.00878906, -0.00195312, 1.9502, 3.04883, -8.95801, 1.4.2022 14:53:40.035
423, 18.7836, 348.416, 331.173, -0.0380859, 0.0146484, -0.00390625, 1.95508, 3.08008, -8.88086, 1.4.2022 14:53:40.043
424, 18.8043, 348.412, 331.183, -0.0244141, 0.00585938, -0.00195312, 1.96777, 3.12109, -8.87305, 1.4.2022 14:53:40.051
425, 18.8043, 348.412, 331.183, 0.0224609, -0.00878906, 0.00195312, 1.94238, 3.09473, -8.96191, 1.4.2022 14:53:40.059
426, 18.79, 348.414, 331.174, 0.0625, -0.0214844, 0.00390625, 1.92969, 3.0791, -9, 1.4.2022 14:53:40.067
427, 18.7566, 348.43, 331.17, 0.0751953, -0.0244141, 0.00585938, 1.92578, 3.03809, -9.12305, 1.4.2022 14:53:40.075
428, 18.7279, 348.437, 331.168, 0.0351562, -0.0117188, 0.00292969, 1.90918, 2.95996, -9.14453, 1.4.2022 14:53:40.083
429, 18.7279, 348.437, 331.168, -0.0429688, 0.0117188, -0.00390625, 1.92871, 3, -9.13184, 1.4.2022 14:53:40.091
430, 18.7566, 348.43, 331.17, -0.0966797, 0.0322266, -0.00878906, 1.94531, 3.07031, -8.95312, 1.4.2022 14:53:40.099
431, 18.7997, 348.42, 331.181, -0.0878906, 0.0302734, -0.00976562, 1.94922, 3.07715, -8.80469, 1.4.2022 14:53:40.107
432, 18.8348, 348.411, 331.184, -0.03125, 0.00976562, -0.00292969, 1.9541, 3.125, -8.80371, 1.4.2022 14:53:40.115
433, 18.8284, 348.413, 331.182, 0.0488281, -0.0185547, 0.00292969, 1.96191, 3.125, -8.91992, 1.4.2022 14:53:40.123
434, 18.7997, 348.42, 331.181, 0.104492, -0.0351562, 0.0078125, 1.94336, 3.07617, -9.05273, 1.4.2022 14:53:40.131
435, 18.752, 348.438, 331.167, 0.0908203, -0.0332031, 0.00878906, 1.93066, 2.99121, -9.15527, 1.4.2022 14:53:40.139
436, 18.7233, 348.445, 331.166, 0.0205078, -0.0078125, 0.00195312, 1.95215, 3.00879, -9.16504, 1.4.2022 14:53:40.147
437, 18.7297, 348.444, 331.167, -0.0625, 0.0205078, -0.00585938, 1.94141, 2.99609, -9.0791, 1.4.2022 14:53:40.155
438, 18.7648, 348.435, 331.17, -0.102539, 0.0332031, -0.00878906, 1.9502, 3.08691, -8.93359, 1.4.2022 14:53:40.163
439, 18.8079, 348.425, 331.181, -0.0771484, 0.0263672, -0.0078125, 1.96387, 3.08789, -8.82422, 1.4.2022 14:53:40.171
440, 18.8284, 348.413, 331.182, -0.00878906, 0.00292969, -0.00195312, 1.96094, 3.07324, -8.82422, 1.4.2022 14:53:40.179
441, 18.8189, 348.415, 331.185, 0.0644531, -0.0224609, 0.00488281, 1.96484, 3.08105, -8.91699, 1.4.2022 14:53:40.187
442, 18.7758, 348.424, 331.175, 0.0947266, -0.03125, 0.0078125, 1.92676, 3.03418, -9.08496, 1.4.2022 14:53:40.195
443, 18.7425, 348.44, 331.17, 0.0644531, -0.0224609, 0.00488281, 1.9043, 3.01074, -9.15723, 1.4.2022 14:53:40.203
444, 18.7297, 348.444, 331.167, -0.00488281, -0.000976562, -0.000976562, 1.93848, 3.03223, -9.08789, 1.4.2022 14:53:40.211
445, 18.7425, 348.44, 331.17, -0.0654297, 0.0214844, -0.00585938, 1.94238, 3.03613, -8.99023, 1.4.2022 14:53:40.219
446, 18.7712, 348.433, 331.172, -0.0830078, 0.0283203, -0.0078125, 1.92871, 3.08008, -8.89258, 1.4.2022 14:53:40.227
447, 18.8061, 348.418, 331.182, -0.0527344, 0.0175781, -0.00488281, 1.94922, 3.07812, -8.82129, 1.4.2022 14:53:40.235
448, 18.8189, 348.415, 331.185, 0.00683594, -0.00292969, -0.000976562, 1.94141, 3.09863, -8.87109, 1.4.2022 14:53:40.243
449, 18.8061, 348.418, 331.182, 0.0576172, -0.0214844, 0.00488281, 1.9375, 3.05078, -8.94824, 1.4.2022 14:53:40.251
450, 18.7776, 348.431, 331.174, 0.0703125, -0.0244141, 0.00585938, 1.9209, 3.02246, -9.01367, 1.4.2022 14:53:40.259
451, 18.752, 348.438, 331.167, 0.0380859, -0.0146484, 0.00292969, 1.91895, 3.02246, -9.10449, 1.4.2022 14:53:40.267
452, 18.7425, 348.44, 331.17, -0.0146484, 0.00390625, -0.00292969, 1.92676, 3.01953, -9.07324, 1.4.2022 14:53:40.275
453, 18.7584, 348.436, 331.169, -0.0527344, 0.0175781, -0.00488281, 1.93945, 3.03418, -9.01562, 1.4.2022 14:53:40.283
454, 18.7791, 348.432, 331.179, -0.0595703, 0.0205078, -0.00683594, 1.94629, 3.05957, -8.89844, 1.4.2022 14:53:40.291
455, 18.8015, 348.427, 331.179, -0.0292969, 0.00976562, -0.00195312, 1.91309, 3.0625, -8.85059, 1.4.2022 14:53:40.299
456, 18.8079, 348.425, 331.181, 0.015625, -0.00585938, 0.00195312, 1.94531, 3.07812, -8.90039, 1.4.2022 14:53:40.307
457, 18.7951, 348.429, 331.178, 0.0478516, -0.0175781, 0.00292969, 1.91895, 3.05176, -8.95996, 1.4.2022 14:53:40.315
458, 18.7681, 348.443, 331.175, 0.0478516, -0.0175781, 0.00292969, 1.95117, 3.0332, -9.04004, 1.4.2022 14:53:40.323
459, 18.7537, 348.445, 331.166, 0.0224609, -0.0078125, 0.000976562, 1.95117, 3.02637, -9.06152, 1.4.2022 14:53:40.331
460, 18.7442, 348.447, 331.169, -0.0166016, 0.00488281, -0.000976562, 1.93457, 3.03027, -9.03516, 1.4.2022 14:53:40.339
461, 18.7601, 348.443, 331.168, -0.0410156, 0.0126953, -0.00292969, 1.93262, 3.04395, -9.00586, 1.4.2022 14:53:40.347
462, 18.7809, 348.439, 331.178, -0.0410156, 0.0146484, -0.00292969, 1.9209, 3.0498, -8.97461, 1.4.2022 14:53:40.355
463, 18.7873, 348.437, 331.18, -0.0185547, 0.00585938, -0.00195312, 1.94336, 3.05957, -8.9248, 1.4.2022 14:53:40.363
464, 18.7873, 348.437, 331.18, 0.0117188, -0.00488281, 0, 1.9209, 3.0625, -8.94043, 1.4.2022 14:53:40.371
465, 18.7809, 348.439, 331.178, 0.0322266, -0.0117188, 0.00195312, 1.94531, 3.06543, -8.95312, 1.4.2022 14:53:40.379
466, 18.7665, 348.441, 331.169, 0.0341797, -0.0136719, 0.00195312, 1.91992, 3.03418, -9.01562, 1.4.2022 14:53:40.387
467, 18.7506, 348.445, 331.171, 0.015625, -0.00683594, 0.000976562, 1.9502, 3.03223, -9.08301, 1.4.2022 14:53:40.395
468, 18.746, 348.453, 331.168, -0.00878906, 0.00195312, -0.00195312, 1.94434, 3.04199, -9.03027, 1.4.2022 14:53:40.403
469, 18.7506, 348.445, 331.171, -0.0273438, 0.00976562, -0.00195312, 1.9541, 3.05078, -8.99902, 1.4.2022 14:53:40.411
470, 18.7665, 348.441, 331.169, -0.0292969, 0.00976562, -0.00292969, 1.9668, 3.04883, -8.93945, 1.4.2022 14:53:40.419
471, 18.7745, 348.441, 331.177, -0.0136719, 0.00390625, 0, 1.92578, 3.06641, -8.96191, 1.4.2022 14:53:40.427
472, 18.7745, 348.441, 331.177, 0.0078125, -0.00390625, 0, 1.92773, 3.0498, -8.98633, 1.4.2022 14:53:40.435
473, 18.7665, 348.441, 331.169, 0.0234375, -0.00878906, 0.00195312, 1.94727, 3.0332, -8.98535, 1.4.2022 14:53:40.443
474, 18.7537, 348.445, 331.166, 0.0234375, -0.00878906, 0.00195312, 1.93457, 3.04004, -9.03711, 1.4.2022 14:53:40.451
475, 18.7442, 348.447, 331.169, 0.0107422, -0.00488281, 0.000976562, 1.93262, 3.0293, -9.01562, 1.4.2022 14:53:40.459
476, 18.7378, 348.448, 331.168, -0.00976562, 0.00292969, -0.00195312, 1.91992, 3.03711, -9.02539, 1.4.2022 14:53:40.467
477, 18.7442, 348.447, 331.169, -0.0234375, 0.0078125, -0.00195312, 1.94531, 3.0498, -8.9707, 1.4.2022 14:53:40.475
478, 18.7537, 348.445, 331.166, -0.0224609, 0.0078125, -0.00292969, 1.93848, 3.04883, -8.93945, 1.4.2022 14:53:40.483
479, 18.7601, 348.443, 331.168, -0.0078125, 0.00195312, -0.00195312, 1.93066, 3.09668, -8.9375, 1.4.2022 14:53:40.491
480, 18.7601, 348.443, 331.168, 0.0117188, -0.00585938, 0, 1.94043, 3.06836, -8.96289, 1.4.2022 14:53:40.499
481, 18.7555, 348.452, 331.165, 0.0244141, -0.00878906, 0.000976562, 1.93262, 3.0498, -8.99121, 1.4.2022 14:53:40.507
482, 18.7396, 348.455, 331.167, 0.0244141, -0.00878906, 0.00195312, 1.92285, 3.01562, -9.04297, 1.4.2022 14:53:40.515
483, 18.7332, 348.457, 331.165, 0.00878906, -0.00292969, 0, 1.94434, 3.03711, -9.03711, 1.4.2022 14:53:40.523
484, 18.7332, 348.457, 331.165, -0.0136719, 0.00488281, -0.000976562, 1.9375, 3.05273, -8.98926, 1.4.2022 14:53:40.531
485, 18.7396, 348.455, 331.167, -0.0283203, 0.00878906, -0.00292969, 1.93066, 3.04199, -8.95117, 1.4.2022 14:53:40.539
486, 18.7555, 348.452, 331.165, -0.0273438, 0.0078125, -0.00292969, 1.95508, 3.08008, -8.94043, 1.4.2022 14:53:40.547
487, 18.7619, 348.45, 331.166, -0.0107422, 0.00195312, 0, 1.94043, 3.10156, -8.93555, 1.4.2022 14:53:40.555
488, 18.7683, 348.448, 331.168, 0.0126953, -0.00585938, 0.000976562, 1.93066, 3.08789, -8.97363, 1.4.2022 14:53:40.563
489, 18.7555, 348.452, 331.165, 0.0292969, -0.00976562, 0.00195312, 1.92773, 3.05273, -8.99609, 1.4.2022 14:53:40.571
490, 18.746, 348.453, 331.168, 0.0263672, -0.00878906, 0.00195312, 1.93945, 3.05469, -9.04395, 1.4.2022 14:53:40.579
491, 18.7396, 348.455, 331.167, 0.00878906, -0.00292969, 0, 1.92969, 3.03906, -9.01562, 1.4.2022 14:53:40.587
492, 18.7396, 348.455, 331.167, -0.0166016, 0.00488281, -0.000976562, 1.94922, 3.03418, -9.00195, 1.4.2022 14:53:40.595
493, 18.746, 348.453, 331.168, -0.03125, 0.00976562, -0.00292969, 1.94531, 3.05371, -8.95312, 1.4.2022 14:53:40.603
494, 18.7683, 348.448, 331.168, -0.0273438, 0.00878906, -0.00292969, 1.95312, 3.0498, -8.90625, 1.4.2022 14:53:40.611
495, 18.7763, 348.448, 331.176, -0.00585938, 0.00195312, -0.00195312, 1.95703, 3.09375, -8.92383, 1.4.2022 14:53:40.619
496, 18.7763, 348.448, 331.176, 0.0185547, -0.00683594, 0.000976562, 1.93066, 3.06445, -8.97461, 1.4.2022 14:53:40.627
497, 18.7619, 348.45, 331.166, 0.0302734, -0.00976562, 0.00292969, 1.91504, 3.05371, -9.03125, 1.4.2022 14:53:40.635
498, 18.7524, 348.452, 331.17, 0.0244141, -0.0078125, 0.000976562, 1.94434, 3.04199, -9.02344, 1.4.2022 14:53:40.643
499, 18.746, 348.453, 331.168, 0.00195312, -0.00195312, -0.000976562, 1.93652, 3.05664, -9.02246, 1.4.2022 14:53:40.651
500, 18.7524, 348.452, 331.17, -0.0205078, 0.00683594, -0.000976562, 1.9375, 3.0498, -8.98926, 1.4.2022 14:53:40.659
501, 18.7619, 348.45, 331.166, -0.0302734, 0.00878906, -0.00292969, 1.92773, 3.07422, -8.99316, 1.4.2022 14:53:40.667
502, 18.7763, 348.448, 331.176, -0.0205078, 0.00585938, -0.00195312, 1.93066, 3.09375, -8.93066, 1.4.2022 14:53:40.675
503, 18.7827, 348.446, 331.177, 0.000976562, -0.00195312, -0.000976562, 1.96875, 3.07031, -8.94141, 1.4.2022 14:53:40.683
504, 18.7827, 348.446, 331.177, 0.0205078, -0.0078125, 0.000976562, 1.97559, 3.07324, -8.96484, 1.4.2022 14:53:40.691
505, 18.7763, 348.448, 331.176, 0.0273438, -0.00878906, 0.00195312, 1.92773, 3.0459, -9.01758, 1.4.2022 14:53:40.699
506, 18.7619, 348.45, 331.166, 0.015625, -0.00488281, 0.000976562, 1.95117, 3.03613, -9.05664, 1.4.2022 14:53:40.707
507, 18.7619, 348.45, 331.166, -0.00488281, 0.00195312, -0.00195312, 1.92969, 3.02832, -9.06348, 1.4.2022 14:53:40.715
508, 18.7683, 348.448, 331.168, -0.0214844, 0.00683594, -0.00195312, 1.94629, 3.04199, -9.01562, 1.4.2022 14:53:40.723
509, 18.7763, 348.448, 331.176, -0.0244141, 0.00878906, -0.00195312, 1.95215, 3.07227, -8.93359, 1.4.2022 14:53:40.731
510, 18.7891, 348.444, 331.179, -0.0136719, 0.00488281, -0.000976562, 1.95801, 3.05469, -8.90137, 1.4.2022 14:53:40.739
511, 18.7891, 348.444, 331.179, 0.00488281, -0.00195312, 0, 1.92578, 3.05859, -8.95312, 1.4.2022 14:53:40.747
512, 18.7809, 348.439, 331.178, 0.0185547, -0.00683594, 0.000976562, 1.94434, 3.02441, -8.99219, 1.4.2022 14:53:40.755
513, 18.7729, 348.44, 331.171, 0.0195312, -0.0078125, 0.000976562, 1.93945, 3.05078, -8.99121, 1.4.2022 14:53:40.763
514, 18.7665, 348.441, 331.169, 0.0078125, -0.00390625, 0, 1.92773, 3.04785, -8.98633, 1.4.2022 14:53:40.771
515, 18.7665, 348.441, 331.169, -0.00976562, 0.00292969, -0.000976562, 1.92285, 3.02637, -8.99707, 1.4.2022 14:53:40.779
516, 18.7729, 348.44, 331.171, -0.0185547, 0.00585938, -0.00195312, 1.94434, 3.06934, -8.99121, 1.4.2022 14:53:40.787
517, 18.7793, 348.438, 331.172, -0.0146484, 0.00390625, -0.00292969, 1.93555, 3.06055, -8.93359, 1.4.2022 14:53:40.795
518, 18.7809, 348.439, 331.178, 0, -0.000976562, -0.000976562, 1.93457, 3.07617, -8.99023, 1.4.2022 14:53:40.803
519, 18.7793, 348.438, 331.172, 0.0146484, -0.00585938, 0.000976562, 1.9707, 3.0459, -9.00195, 1.4.2022 14:53:40.811
520, 18.7729, 348.44, 331.171, 0.0205078, -0.0078125, 0.000976562, 1.94434, 3.04297, -8.9873, 1.4.2022 14:53:40.819
521, 18.7665, 348.441, 331.169, 0.0117188, -0.00488281, 0, 1.9375, 3.04395, -9.01367, 1.4.2022 14:53:40.827
522, 18.7601, 348.443, 331.168, -0.00683594, 0.00195312, 0, 1.97754, 3.02734, -9.02637, 1.4.2022 14:53:40.835
523, 18.7665, 348.441, 331.169, -0.0234375, 0.0078125, -0.00292969, 1.95215, 3.05469, -8.9707, 1.4.2022 14:53:40.843
524, 18.7776, 348.431, 331.174, -0.0283203, 0.00878906, -0.00390625, 1.92871, 3.05859, -8.94629, 1.4.2022 14:53:40.851
525, 18.7887, 348.431, 331.176, -0.0136719, 0.00488281, -0.000976562, 1.96387, 3.0791, -8.97461, 1.4.2022 14:53:40.859
526, 18.7951, 348.429, 331.178, 0.00878906, -0.00390625, 0, 1.94434, 3.0791, -8.99805, 1.4.2022 14:53:40.867
527, 18.7776, 348.431, 331.174, 0.0253906, -0.0107422, 0.000976562, 1.92578, 3.06641, -8.96191, 1.4.2022 14:53:40.875
528, 18.7712, 348.433, 331.172, 0.0273438, -0.00976562, 0.000976562, 1.95605, 3.01855, -9.03125, 1.4.2022 14:53:40.883
529, 18.7584, 348.436, 331.169, 0.0126953, -0.00488281, 0, 1.93652, 3.0625, -9.0625, 1.4.2022 14:53:40.891
530, 18.7584, 348.436, 331.169, -0.0117188, 0.00390625, -0.000976562, 1.91699, 3.04492, -9.04883, 1.4.2022 14:53:40.899
531, 18.7648, 348.435, 331.17, -0.0292969, 0.00878906, -0.00292969, 1.95605, 3.05859, -9.02734, 1.4.2022 14:53:40.905
532, 18.7776, 348.431, 331.174, -0.0302734, 0.00976562, -0.00195312, 1.96191, 3.06055, -8.92773, 1.4.2022 14:53:40.913
533, 18.7951, 348.429, 331.178, -0.0126953, 0.00390625, -0.00292969, 1.95508, 3.0498, -8.89648, 1.4.2022 14:53:40.921
534, 18.7933, 348.422, 331.179, 0.0117188, -0.00488281, 0, 1.93652, 3.04102, -8.91797, 1.4.2022 14:53:40.929
535, 18.7758, 348.424, 331.175, 0.0253906, -0.00878906, 0.00195312, 1.94922, 3.06055, -9.00098, 1.4.2022 14:53:40.937
536, 18.763, 348.428, 331.171, 0.0253906, -0.00976562, 0.000976562, 1.92969, 3.03223, -9.03027, 1.4.2022 14:53:40.945
537, 18.7566, 348.43, 331.17, 0.00878906, -0.00488281, 0, 1.94336, 3.0293, -9.06348, 1.4.2022 14:53:40.953
538, 18.7566, 348.43, 331.17, -0.0117188, 0.00292969, -0.000976562, 1.9375, 3.03906, -9.00879, 1.4.2022 14:53:40.961
539, 18.763, 348.428, 331.171, -0.0244141, 0.0078125, -0.00292969, 1.93945, 3.07422, -8.99609, 1.4.2022 14:53:40.969
540, 18.7694, 348.426, 331.173, -0.0214844, 0.00683594, -0.00195312, 1.96875, 3.04688, -8.96094, 1.4.2022 14:53:40.977
541, 18.7758, 348.424, 331.175, -0.0078125, 0.00195312, 0, 1.93945, 3.0625, -8.99609, 1.4.2022 14:53:40.985
542, 18.7758, 348.424, 331.175, 0.0107422, -0.00390625, 0, 1.94629, 3.08203, -9.0166, 1.4.2022 14:53:40.993
543, 18.7694, 348.426, 331.173, 0.0195312, -0.0078125, 0.000976562, 1.94238, 3.03906, -9.00879, 1.4.2022 14:53:41.001
544, 18.763, 348.428, 331.171, 0.015625, -0.00585938, 0.000976562, 1.94922, 3.03516, -9.02344, 1.4.2022 14:53:41.009
545, 18.7566, 348.43, 331.17, 0.000976562, -0.00195312, 0, 1.91992, 3.0332, -9.04883, 1.4.2022 14:53:41.017
546, 18.7566, 348.43, 331.17, -0.0117188, 0.00292969, -0.000976562, 1.93262, 3.05566, -8.99609, 1.4.2022 14:53:41.025
547, 18.7566, 348.43, 331.17, -0.0166016, 0.00488281, -0.000976562, 1.93555, 3.05371, -8.96484, 1.4.2022 14:53:41.033
548, 18.763, 348.428, 331.171, -0.00878906, 0.00292969, -0.000976562, 1.9082, 3.0459, -9.00586, 1.4.2022 14:53:41.041
549, 18.763, 348.428, 331.171, 0.00390625, -0.00195312, 0, 1.93066, 3.04688, -8.96289, 1.4.2022 14:53:41.049
550, 18.7566, 348.43, 331.17, 0.0117188, -0.00488281, 0.000976562, 1.9375, 3.06152, -8.97949, 1.4.2022 14:53:41.057
551, 18.752, 348.438, 331.167, 0.0107422, -0.00390625, 0.000976562, 1.94727, 3.0459, -8.99902, 1.4.2022 14:53:41.065
552, 18.752, 348.438, 331.167, 0, 0.000976562, -0.000976562, 1.94434, 3.05078, -9.00098, 1.4.2022 14:53:41.073
553, 18.752, 348.438, 331.167, -0.0117188, 0.00390625, -0.000976562, 1.93555, 3.05176, -8.95312, 1.4.2022 14:53:41.081
554, 18.7584, 348.436, 331.169, -0.015625, 0.00390625, -0.000976562, 1.92773, 3.07617, -8.96875, 1.4.2022 14:53:41.089
555, 18.7584, 348.436, 331.169, -0.00683594, 0.00292969, -0.000976562, 1.92285, 3.05957, -8.98145, 1.4.2022 14:53:41.097
556, 18.7584, 348.436, 331.169, 0.00585938, -0.00292969, -0.000976562, 1.9541, 3.05469, -8.97266, 1.4.2022 14:53:41.105
557, 18.7584, 348.436, 331.169, 0.0136719, -0.00488281, 0, 1.95605, 3.05078, -9.01562, 1.4.2022 14:53:41.113
558, 18.752, 348.438, 331.167, 0.0126953, -0.00488281, 0.000976562, 1.97363, 3.0459, -9.00391, 1.4.2022 14:53:41.121
559, 18.7456, 348.44, 331.166, 0.000976562, -0.00195312, 0.000976562, 1.9248, 3.05859, -9.03418, 1.4.2022 14:53:41.129
560, 18.752, 348.438, 331.167, -0.0117188, 0.00390625, -0.000976562, 1.9209, 3.03809, -8.98438, 1.4.2022 14:53:41.137
561, 18.752, 348.438, 331.167, -0.015625, 0.00488281, -0.000976562, 1.92969, 3.07715, -9.00684, 1.4.2022 14:53:41.145
562, 18.7584, 348.436, 331.169, -0.00878906, 0.00292969, -0.000976562, 1.92773, 3.10059, -8.97754, 1.4.2022 14:53:41.153
563, 18.7665, 348.441, 331.169, 0.00390625, -0.00292969, 0, 1.9541, 3.07129, -8.98145, 1.4.2022 14:53:41.161
564, 18.7601, 348.443, 331.168, 0.0126953, -0.00488281, 0.000976562, 1.94434, 3.05371, -9.02734, 1.4.2022 14:53:41.169
565, 18.7537, 348.445, 331.166, 0.0126953, -0.00585938, 0.000976562, 1.95898, 3.0625, -8.98438, 1.4.2022 14:53:41.177
566, 18.7537, 348.445, 331.166, 0.00488281, -0.00292969, 0, 1.94922, 3.04395, -9.00391, 1.4.2022 14:53:41.185
567, 18.7537, 348.445, 331.166, -0.0078125, 0.00195312, 0, 1.95801, 3.07129, -9.03418, 1.4.2022 14:53:41.193
568, 18.7601, 348.443, 331.168, -0.015625, 0.00488281, -0.00195312, 1.94531, 3.0752, -8.94824, 1.4.2022 14:53:41.201
569, 18.7665, 348.441, 331.169, -0.015625, 0.00488281, -0.00195312, 1.93066, 3.05957, -8.9248, 1.4.2022 14:53:41.209
570, 18.7729, 348.44, 331.171, -0.00683594, 0.00292969, -0.000976562, 1.94043, 3.06543, -8.94336, 1.4.2022 14:53:41.217
571, 18.7729, 348.44, 331.171, 0.00488281, -0.00195312, 0, 1.92773, 3.0752, -9.0166, 1.4.2022 14:53:41.225
572, 18.7729, 348.44, 331.171, 0.0126953, -0.00585938, 0.000976562, 1.91797, 3.05566, -9.02441, 1.4.2022 14:53:41.233
573, 18.7665, 348.441, 331.169, 0.0117188, -0.00488281, 0, 1.93066, 3.05664, -8.96289, 1.4.2022 14:53:41.241
574, 18.7665, 348.441, 331.169, 0.00488281, -0.00195312, -0.000976562, 1.93652, 3.04199, -9.02734, 1.4.2022 14:53:41.249
575, 18.7665, 348.441, 331.169, -0.00585938, 0.000976562, -0.00195312, 1.94238, 3.05762, -8.99902, 1.4.2022 14:53:41.257
576, 18.7747, 348.446, 331.17, -0.0126953, 0.00390625, -0.000976562, 1.93945, 3.07617, -8.97656, 1.4.2022 14:53:41.265
577, 18.7811, 348.444, 331.171, -0.0126953, 0.00390625, -0.000976562, 1.95898, 3.06543, -9.01758, 1.4.2022 14:53:41.273
578, 18.7811, 348.444, 331.171, -0.00488281, 0.00195312, 0, 1.92578, 3.05664, -8.98145, 1.4.2022 14:53:41.281
579, 18.7811, 348.444, 331.171, 0.00488281, -0.00292969, 0, 1.93262, 3.05762, -8.99414, 1.4.2022 14:53:41.289
580, 18.7811, 348.444, 331.171, 0.0126953, -0.00390625, 0, 1.93262, 3.05078, -9.00391, 1.4.2022 14:53:41.297
581, 18.7747, 348.446, 331.17, 0.0107422, -0.00390625, -0.000976562, 1.92285, 3.05469, -8.99316, 1.4.2022 14:53:41.305
582, 18.7747, 348.446, 331.17, 0, -0.000976562, 0.000976562, 1.9541, 3.05762, -9.00391, 1.4.2022 14:53:41.313
583, 18.7747, 348.446, 331.17, -0.0107422, 0.00292969, 0, 1.96582, 3.0459, -9.00684, 1.4.2022 14:53:41.321
584, 18.7811, 348.444, 331.171, -0.015625, 0.00683594, -0.000976562, 1.9375, 3.04492, -8.97949, 1.4.2022 14:53:41.329
585, 18.7875, 348.443, 331.173, -0.0107422, 0.00390625, 0, 1.94238, 3.07129, -8.96973, 1.4.2022 14:53:41.337
586, 18.7875, 348.443, 331.173, 0, -0.000976562, 0.000976562, 1.95215, 3.07227, -8.9248, 1.4.2022 14:53:41.345
587, 18.7875, 348.443, 331.173, 0.0117188, -0.00390625, 0, 1.9541, 3.06641, -8.96777, 1.4.2022 14:53:41.353
588, 18.7811, 348.444, 331.171, 0.0146484, -0.00585938, 0, 1.93262, 3.03613, -8.99902, 1.4.2022 14:53:41.361
589, 18.7747, 348.446, 331.17, 0.00878906, -0.00292969, 0, 1.92969, 3.03223, -9.03223, 1.4.2022 14:53:41.369
590, 18.7747, 348.446, 331.17, -0.00292969, 0.000976562, -0.00292969, 1.92773, 3.04883, -9.02246, 1.4.2022 14:53:41.377
591, 18.7747, 348.446, 331.17, -0.0136719, 0.00390625, -0.00390625, 1.91504, 3.0459, -9.01562, 1.4.2022 14:53:41.385
592, 18.7827, 348.446, 331.177, -0.0166016, 0.00488281, -0.00195312, 1.92383, 3.03223, -8.96094, 1.4.2022 14:53:41.393
593, 18.7891, 348.444, 331.179, -0.00976562, 0.00390625, 0, 1.94531, 3.05371, -8.96094, 1.4.2022 14:53:41.401
594, 18.7891, 348.444, 331.179, 0.00292969, -0.000976562, -0.000976562, 1.94238, 3.07324, -8.95996, 1.4.2022 14:53:41.409
595, 18.7827, 348.446, 331.177, 0.0126953, -0.00585938, 0.000976562, 1.9209, 3.04785, -8.98633, 1.4.2022 14:53:41.417
596, 18.7763, 348.448, 331.176, 0.0146484, -0.00585938, 0, 1.91504, 3.03027, -9.04395, 1.4.2022 14:53:41.425
597, 18.7683, 348.448, 331.168, 0.0078125, -0.00292969, 0, 1.91797, 3.0459, -9.00098, 1.4.2022 14:53:41.433
598, 18.77, 348.455, 331.167, -0.00195312, 0.000976562, 0, 1.91992, 3.03223, -9.02734, 1.4.2022 14:53:41.441
599, 18.7716, 348.456, 331.173, -0.00976562, 0.00390625, -0.00195312, 1.9209, 3.06055, -9.00098, 1.4.2022 14:53:41.449
600, 18.7716, 348.456, 331.173, -0.0107422, 0.00390625, -0.000976562, 1.9541, 3.07227, -8.99316, 1.4.2022 14:53:41.457
601, 18.778, 348.454, 331.174, -0.00488281, 0.00195312, -0.00195312, 1.96191, 3.06836, -8.95117, 1.4.2022 14:53:41.465
602, 18.7716, 348.456, 331.173, 0.000976562, -0.00195312, 0.000976562, 1.95215, 3.02832, -8.98047, 1.4.2022 14:53:41.473
603, 18.7716, 348.456, 331.173, 0.00488281, -0.00390625, -0.000976562, 1.91895, 3.05176, -8.95801, 1.4.2022 14:53:41.481
604, 18.7716, 348.456, 331.173, 0.00390625, -0.00292969, 0, 1.94727, 3.04688, -8.95605, 1.4.2022 14:53:41.489
605, 18.7652, 348.458, 331.171, 0, -0.000976562, -0.000976562, 1.94434, 3.02441, -8.99219, 1.4.2022 14:53:41.497
606, 18.7652, 348.458, 331.171, -0.00390625, 0.000976562, -0.00195312, 1.92773, 3.05273, -8.98633, 1.4.2022 14:53:41.505
607, 18.7652, 348.458, 331.171, -0.00585938, 0.00195312, -0.00195312, 1.92773, 3.05566, -9.00293, 1.4.2022 14:53:41.513
608, 18.7716, 348.456, 331.173, -0.00195312, 0.00195312, 0, 1.94043, 3.05176, -8.96289, 1.4.2022 14:53:41.521
609, 18.7652, 348.458, 331.171, 0, -0.000976562, -0.000976562, 1.93262, 3.05078, -9.0127, 1.4.2022 14:53:41.529
610, 18.7652, 348.458, 331.171, 0.00195312, -0.00195312, -0.000976562, 1.9668, 3.05176, -8.9707, 1.4.2022 14:53:41.537
611, 18.7652, 348.458, 331.171, 0.00292969, -0.00195312, 0.000976562, 1.95117, 3.06055, -9.01074, 1.4.2022 14:53:41.545
612, 18.7636, 348.457, 331.165, 0.00195312, -0.000976562, 0.00195312, 1.96777, 3.05176, -9.03711, 1.4.2022 14:53:41.553
613, 18.7572, 348.459, 331.164, 0, 0.000976562, 0.000976562, 1.94141, 3.04199, -9.02734, 1.4.2022 14:53:41.561
614, 18.7555, 348.452, 331.165, -0.00195312, 0.000976562, 0, 1.94629, 3.05859, -9.02051, 1.4.2022 14:53:41.569
615, 18.7555, 348.452, 331.165, -0.00292969, -0.000976562, -0.000976562, 1.94141, 3.07227, -9.00293, 1.4.2022 14:53:41.577
616, 18.7619, 348.45, 331.166, -0.00585938, 0.000976562, 0, 1.92285, 3.0625, -8.98828, 1.4.2022 14:53:41.585
617, 18.7619, 348.45, 331.166, -0.00585938, 0.00292969, 0, 1.92773, 3.06348, -8.9668, 1.4.2022 14:53:41.593
618, 18.7619, 348.45, 331.166, -0.000976562, 0.00195312, 0.000976562, 1.95215, 3.06641, -8.96973, 1.4.2022 14:53:41.601
619, 18.7619, 348.45, 331.166, 0.00390625, -0.00195312, 0, 1.94727, 3.05469, -8.97461, 1.4.2022 14:53:41.609
620, 18.7619, 348.45, 331.166, 0.00488281, -0.00292969, 0, 1.94727, 3.0625, -9.00098, 1.4.2022 14:53:41.617
621, 18.7619, 348.45, 331.166, 0.00292969, -0.00195312, 0.000976562, 1.95898, 3.04688, -8.96094, 1.4.2022 14:53:41.625
622, 18.7619, 348.45, 331.166, 0, -0.000976562, -0.000976562, 1.9375, 3.06055, -9.00098, 1.4.2022 14:53:41.633
623, 18.7619, 348.45, 331.166, -0.00390625, 0.000976562, 0, 1.94824, 3.07617, -9.03125, 1.4.2022 14:53:41.641
624, 18.7619, 348.45, 331.166, -0.00585938, 0.00195312, 0, 1.91309, 3.0625, -8.98828, 1.4.2022 14:53:41.649
625, 18.7683, 348.448, 331.168, -0.00195312, -0.00195312, -0.000976562, 1.9541, 3.09473, -8.9668, 1.4.2022 14:53:41.657
626, 18.7683, 348.448, 331.168, 0.00195312, -0.00195312, -0.000976562, 1.92969, 3.08105, -8.99512, 1.4.2022 14:53:41.665
627, 18.7683, 348.448, 331.168, 0.00390625, -0.00195312, -0.000976562, 1.95117, 3.0625, -8.99902, 1.4.2022 14:53:41.677
628, 18.7683, 348.448, 331.168, 0.00292969, -0.000976562, -0.000976562, 1.96387, 3.03906, -9.01855, 1.4.2022 14:53:41.681
629, 18.7683, 348.448, 331.168, -0.00195312, 0.000976562, 0.000976562, 1.94434, 3.05273, -9.00391, 1.4.2022 14:53:41.689
630, 18.7683, 348.448, 331.168, -0.00585938, 0.00195312, -0.00195312, 1.93555, 3.04688, -8.96777, 1.4.2022 14:53:41.697
631, 18.7729, 348.44, 331.171, -0.00292969, 0.00195312, 0, 1.92578, 3.01367, -8.95898, 1.4.2022 14:53:41.705
632, 18.7729, 348.44, 331.171, 0.000976562, -0.00195312, 0.000976562, 1.94531, 3.06543, -8.95508, 1.4.2022 14:53:41.713
633, 18.7665, 348.441, 331.169, 0.0078125, -0.00390625, 0, 1.95898, 3.06836, -9.01562, 1.4.2022 14:53:41.721
634, 18.7665, 348.441, 331.169, 0.0078125, -0.00488281, 0, 1.95898, 3.05371, -9.02246, 1.4.2022 14:53:41.729
635, 18.7665, 348.441, 331.169, 0.000976562, -0.00195312, -0.000976562, 1.92969, 3.04004, -9.03711, 1.4.2022 14:53:41.737
636, 18.7665, 348.441, 331.169, -0.0078125, 0.00195312, -0.000976562, 1.9248, 3.05078, -9.00098, 1.4.2022 14:53:41.745
637, 18.7665, 348.441, 331.169, -0.0107422, 0.00390625, -0.00195312, 1.93652, 3.05664, -9.03418, 1.4.2022 14:53:41.753
638, 18.7729, 348.44, 331.171, -0.00585938, 0.00195312, 0, 1.93848, 3.06055, -8.94336, 1.4.2022 14:53:41.761
639, 18.7729, 348.44, 331.171, 0.00585938, -0.00195312, -0.000976562, 1.9375, 3.0498, -8.98438, 1.4.2022 14:53:41.769
640, 18.7665, 348.441, 331.169, 0.0126953, -0.00488281, -0.000976562, 1.94727, 3.05957, -8.98926, 1.4.2022 14:53:41.777
641, 18.7601, 348.443, 331.168, 0.0107422, -0.00292969, 0, 1.94727, 3.04004, -8.98242, 1.4.2022 14:53:41.785
642, 18.7601, 348.443, 331.168, -0.00292969, 0.000976562, -0.00195312, 1.92773, 3.0625, -9.00781, 1.4.2022 14:53:41.793
643, 18.7601, 348.443, 331.168, -0.0175781, 0.00488281, -0.00195312, 1.93262, 3.05469, -8.98926, 1.4.2022 14:53:41.801
644, 18.7729, 348.44, 331.171, -0.0195312, 0.00585938, -0.00195312, 1.9209, 3.06348, -8.95801, 1.4.2022 14:53:41.809
645, 18.7793, 348.438, 331.172, -0.00683594, 0.00195312, -0.00195312, 1.93555, 3.07422, -8.92676, 1.4.2022 14:53:41.817
646, 18.7793, 348.438, 331.172, 0.0126953, -0.00488281, 0, 1.97168, 3.08203, -8.94336, 1.4.2022 14:53:41.825
647, 18.7665, 348.441, 331.169, 0.0253906, -0.0078125, 0.000976562, 1.94336, 3.07129, -9.04785, 1.4.2022 14:53:41.833
648, 18.7601, 348.443, 331.168, 0.0205078, -0.00585938, 0.000976562, 1.94629, 3.04199, -9.02539, 1.4.2022 14:53:41.841
649, 18.7537, 348.445, 331.166, -0.000976562, 0.000976562, 0, 1.94336, 3.0625, -9.07227, 1.4.2022 14:53:41.849
650, 18.7601, 348.443, 331.168, -0.0253906, 0.00878906, -0.00195312, 1.93066, 3.03516, -8.97754, 1.4.2022 14:53:41.857
651, 18.7793, 348.438, 331.172, -0.0351562, 0.0117188, -0.00292969, 1.9209, 3.0918, -8.94727, 1.4.2022 14:53:41.865
652, 18.7968, 348.436, 331.177, -0.0234375, 0.0078125, -0.00292969, 1.94531, 3.0752, -8.94043, 1.4.2022 14:53:41.873
653, 18.8032, 348.434, 331.178, 0.00292969, -0.000976562, -0.00195312, 1.95508, 3.07227, -8.92871, 1.4.2022 14:53:41.881
654, 18.7937, 348.435, 331.182, 0.0302734, -0.00878906, 0.000976562, 1.92871, 3.05859, -8.95312, 1.4.2022 14:53:41.889
655, 18.7809, 348.439, 331.178, 0.0390625, -0.0126953, 0.00390625, 1.93262, 3.05078, -9.0127, 1.4.2022 14:53:41.897
656, 18.7681, 348.443, 331.175, 0.0224609, -0.00683594, 0.00195312, 1.93652, 3.04492, -9.04199, 1.4.2022 14:53:41.905
657, 18.7601, 348.443, 331.168, -0.00683594, 0.00195312, 0, 1.93164, 3.04492, -9.04883, 1.4.2022 14:53:41.913
658, 18.7681, 348.443, 331.175, -0.0302734, 0.00976562, -0.00195312, 1.94238, 3.04785, -8.9873, 1.4.2022 14:53:41.921
659, 18.7873, 348.437, 331.18, -0.0341797, 0.0136719, -0.00292969, 1.9209, 3.07129, -8.97656, 1.4.2022 14:53:41.929
660, 18.7968, 348.436, 331.177, -0.0185547, 0.00683594, -0.000976562, 1.95996, 3.08008, -8.93848, 1.4.2022 14:53:41.937
661, 18.8032, 348.434, 331.178, 0.0078125, -0.00195312, 0, 1.91406, 3.03418, -8.94922, 1.4.2022 14:53:41.945
662, 18.7968, 348.436, 331.177, 0.0253906, -0.0078125, 0.000976562, 1.9375, 3.05469, -8.97949, 1.4.2022 14:53:41.953
663, 18.7809, 348.439, 331.178, 0.0253906, -0.0078125, 0.00292969, 1.92285, 3.0293, -8.99902, 1.4.2022 14:53:41.961
664, 18.7745, 348.441, 331.177, 0.00976562, -0.00292969, 0, 1.94922, 3.03418, -9.01367, 1.4.2022 14:53:41.969
665, 18.7745, 348.441, 331.177, -0.0107422, 0.00390625, -0.000976562, 1.92969, 3.04785, -9.05371, 1.4.2022 14:53:41.977
666, 18.7809, 348.439, 331.178, -0.0214844, 0.00683594, -0.000976562, 1.94238, 3.0791, -8.99316, 1.4.2022 14:53:41.985
667, 18.7873, 348.437, 331.18, -0.0146484, 0.00585938, -0.000976562, 1.94238, 3.07129, -8.97461, 1.4.2022 14:53:41.993
668, 18.7873, 348.437, 331.18, -0.00195312, 0.00195312, 0, 1.96094, 3.08496, -9.0166, 1.4.2022 14:53:42.001
669, 18.7873, 348.437, 331.18, 0.0107422, -0.00390625, 0.000976562, 1.95801, 3.07324, -9.02441, 1.4.2022 14:53:42.009
670, 18.7809, 348.439, 331.178, 0.015625, -0.00488281, 0.000976562, 1.95898, 3.0332, -8.9873, 1.4.2022 14:53:42.017
671, 18.7745, 348.441, 331.177, 0.0107422, -0.00292969, 0.00195312, 1.94141, 3.07617, -9.03613, 1.4.2022 14:53:42.025
672, 18.7729, 348.44, 331.171, -0.000976562, 0, 0.000976562, 1.93262, 3.0791, -8.9834, 1.4.2022 14:53:42.033
673, 18.7729, 348.44, 331.171, -0.00878906, 0.00488281, 0, 1.93945, 3.05078, -8.99121, 1.4.2022 14:53:42.039
674, 18.7793, 348.438, 331.172, -0.0117188, 0.00488281, 0, 1.94434, 3.0498, -8.97754, 1.4.2022 14:53:42.047
675, 18.7857, 348.436, 331.174, -0.00976562, 0.00390625, 0, 1.91113, 3.03613, -9.00391, 1.4.2022 14:53:42.057
676, 18.7857, 348.436, 331.174, -0.00292969, 0.00195312, 0, 1.93555, 3.05273, -8.97949, 1.4.2022 14:53:42.063
677, 18.7857, 348.436, 331.174, 0.00292969, -0.000976562, 0.000976562, 1.93555, 3.05664, -8.97754, 1.4.2022 14:53:42.071
678, 18.7793, 348.438, 331.172, 0.00878906, -0.00292969, 0, 1.95703, 3.06152, -8.97461, 1.4.2022 14:53:42.079
679, 18.7793, 348.438, 331.172, 0.00976562, -0.00292969, -0.000976562, 1.92773, 3.05566, -8.99609, 1.4.2022 14:53:42.087
680, 18.7729, 348.44, 331.171, 0.00390625, -0.00292969, 0, 1.92676, 3.06152, -9.04102, 1.4.2022 14:53:42.095
681, 18.7729, 348.44, 331.171, -0.00195312, 0.000976562, 0, 1.93945, 3.0498, -8.98438, 1.4.2022 14:53:42.103
682, 18.7729, 348.44, 331.171, -0.00585938, 0.00292969, 0, 1.93262, 3.05566, -9.00781, 1.4.2022 14:53:42.111
683, 18.7729, 348.44, 331.171, -0.00878906, 0.00292969, 0, 1.92871, 3.04883, -8.95801, 1.4.2022 14:53:42.119
684, 18.7793, 348.438, 331.172, -0.00585938, 0.00195312, 0, 1.97168, 3.06348, -8.94141, 1.4.2022 14:53:42.127
685, 18.7793, 348.438, 331.172, 0.00292969, -0.000976562, 0.000976562, 1.94238, 3.0752, -8.95703, 1.4.2022 14:53:42.135
686, 18.7793, 348.438, 331.172, 0.0107422, -0.00390625, 0, 1.94434, 3.04785, -8.99609, 1.4.2022 14:53:42.143
687, 18.7729, 348.44, 331.171, 0.0117188, -0.00292969, 0.000976562, 1.94922, 3.06738, -9.00098, 1.4.2022 14:53:42.151
688, 18.7665, 348.441, 331.169, 0.00292969, -0.000976562, 0.00195312, 1.95605, 3.04297, -9.04688, 1.4.2022 14:53:42.159
689, 18.7729, 348.44, 331.171, -0.0117188, 0.00390625, 0, 1.95508, 3.04883, -8.95605, 1.4.2022 14:53:42.167
690, 18.7793, 348.438, 331.172, -0.0214844, 0.00585938, -0.000976562, 1.95508, 3.04883, -8.93457, 1.4.2022 14:53:42.175
691, 18.7871, 348.429, 331.17, -0.0195312, 0.0078125, -0.000976562, 1.93262, 3.0498, -8.96973, 1.4.2022 14:53:42.183
692, 18.7935, 348.428, 331.172, -0.00390625, 0.00292969, 0, 1.93848, 3.04785, -8.92773, 1.4.2022 14:53:42.191
693, 18.7935, 348.428, 331.172, 0.0146484, -0.00488281, 0.000976562, 1.93262, 3.06445, -8.97656, 1.4.2022 14:53:42.199
694, 18.7807, 348.431, 331.169, 0.0292969, -0.00976562, 0.00292969, 1.93945, 3.06152, -9.03906, 1.4.2022 14:53:42.207
695, 18.7648, 348.435, 331.17, 0.0283203, -0.00878906, 0.00292969, 1.97266, 3.05469, -9.05371, 1.4.2022 14:53:42.215
696, 18.7584, 348.436, 331.169, 0.00976562, -0.00195312, 0, 1.93945, 3.01855, -9.05664, 1.4.2022 14:53:42.223
697, 18.7568, 348.435, 331.163, -0.0175781, 0.0078125, -0.000976562, 1.91113, 3.03223, -9.02051, 1.4.2022 14:53:42.231
698, 18.7694, 348.426, 331.173, -0.0371094, 0.0126953, -0.00390625, 1.92578, 3.05176, -8.96777, 1.4.2022 14:53:42.239
699, 18.7853, 348.423, 331.171, -0.0351562, 0.0117188, -0.00292969, 1.9502, 3.06934, -8.91992, 1.4.2022 14:53:42.247
700, 18.7917, 348.421, 331.173, -0.0136719, 0.00488281, -0.000976562, 1.96387, 3.06641, -8.95801, 1.4.2022 14:53:42.255
701, 18.7917, 348.421, 331.173, 0.0146484, -0.00390625, 0.000976562, 1.94336, 3.05371, -8.93652, 1.4.2022 14:53:42.263
702, 18.7853, 348.423, 331.171, 0.0351562, -0.0107422, 0.00292969, 1.94922, 3.05273, -8.99414, 1.4.2022 14:53:42.271
703, 18.763, 348.428, 331.171, 0.0371094, -0.0107422, 0.00292969, 1.93945, 3.04004, -9.04883, 1.4.2022 14:53:42.279
704, 18.7486, 348.43, 331.162, 0.0185547, -0.00585938, 0.00195312, 1.93652, 3.0166, -9.05664, 1.4.2022 14:53:42.287
705, 18.7422, 348.432, 331.161, -0.0107422, 0.00390625, 0.000976562, 1.92969, 3.04004, -9.05664, 1.4.2022 14:53:42.295
706, 18.755, 348.428, 331.164, -0.0322266, 0.0117188, -0.00195312, 1.96191, 3.03809, -8.99023, 1.4.2022 14:53:42.303
707, 18.7692, 348.418, 331.163, -0.0351562, 0.0117188, -0.00292969, 1.97852, 3.07617, -8.98145, 1.4.2022 14:53:42.311
708, 18.7756, 348.417, 331.165, -0.0185547, 0.00683594, 0, 1.9668, 3.06152, -8.90625, 1.4.2022 14:53:42.319
709, 18.782, 348.415, 331.167, 0.00976562, -0.00195312, 0, 1.96191, 3.05859, -8.94141, 1.4.2022 14:53:42.327
710, 18.7674, 348.412, 331.165, 0.0302734, -0.00976562, 0.00195312, 1.92285, 3.04102, -9.0127, 1.4.2022 14:53:42.335
711, 18.7515, 348.415, 331.166, 0.0322266, -0.00976562, 0.00292969, 1.94141, 3.06055, -9.01074, 1.4.2022 14:53:42.343
712, 18.7387, 348.419, 331.163, 0.0146484, -0.00390625, 0.000976562, 1.93359, 3.05078, -9.06348, 1.4.2022 14:53:42.351
713, 18.7387, 348.419, 331.163, -0.0117188, 0.00488281, -0.000976562, 1.93457, 3.05469, -9.04395, 1.4.2022 14:53:42.359
714, 18.7451, 348.417, 331.165, -0.03125, 0.0117188, -0.00292969, 1.94922, 3.05957, -8.98633, 1.4.2022 14:53:42.367
715, 18.761, 348.413, 331.163, -0.0292969, 0.0107422, -0.00195312, 1.93262, 3.06836, -8.95312, 1.4.2022 14:53:42.375
716, 18.7738, 348.41, 331.166, -0.0107422, 0.00390625, 0, 1.9668, 3.08496, -8.94824, 1.4.2022 14:53:42.383
717, 18.7738, 348.41, 331.166, 0.0126953, -0.00390625, 0.000976562, 1.94922, 3.08301, -8.97363, 1.4.2022 14:53:42.391
718, 18.7674, 348.412, 331.165, 0.0263672, -0.0078125, 0.00195312, 1.94629, 3.05664, -9.04199, 1.4.2022 14:53:42.399
719, 18.7515, 348.415, 331.166, 0.0224609, -0.00683594, 0.00195312, 1.95117, 3.05273, -9.04883, 1.4.2022 14:53:42.407
720, 18.7451, 348.417, 331.165, 0.00390625, -0.00195312, -0.000976562, 1.94629, 3.04883, -9.03027, 1.4.2022 14:53:42.415
721, 18.7515, 348.415, 331.166, -0.0146484, 0.00683594, -0.000976562, 1.93945, 3.06445, -8.98633, 1.4.2022 14:53:42.423
722, 18.7593, 348.407, 331.164, -0.0244141, 0.00976562, -0.000976562, 1.94141, 3.0752, -9.00781, 1.4.2022 14:53:42.431
723, 18.7657, 348.405, 331.166, -0.0175781, 0.00683594, 0, 1.94531, 3.05957, -8.96777, 1.4.2022 14:53:42.439
724, 18.7721, 348.403, 331.167, 0.000976562, 0, 0.000976562, 1.92383, 3.04883, -8.94629, 1.4.2022 14:53:42.447
725, 18.7721, 348.403, 331.167, 0.0175781, -0.00488281, 0.000976562, 1.95703, 3.05957, -8.98438, 1.4.2022 14:53:42.455
726, 18.7593, 348.407, 331.164, 0.0214844, -0.00683594, 0.00195312, 1.92285, 3.05078, -9.01758, 1.4.2022 14:53:42.463
727, 18.7515, 348.415, 331.166, 0.0107422, -0.00390625, 0.000976562, 1.92285, 3.05566, -9.02246, 1.4.2022 14:53:42.471
728, 18.7515, 348.415, 331.166, -0.0078125, 0.00195312, 0.000976562, 1.92969, 3.03516, -9.03027, 1.4.2022 14:53:42.479
729, 18.761, 348.413, 331.163, -0.0214844, 0.0078125, -0.000976562, 1.94922, 3.05664, -9.03223, 1.4.2022 14:53:42.487
730, 18.7674, 348.412, 331.165, -0.0214844, 0.00878906, -0.000976562, 1.94922, 3.0459, -8.9873, 1.4.2022 14:53:42.495
731, 18.7738, 348.41, 331.166, -0.00976562, 0.00292969, 0, 1.9375, 3.05273, -8.97949, 1.4.2022 14:53:42.503
732, 18.7738, 348.41, 331.166, 0.00976562, -0.00195312, 0.00195312, 1.94434, 3.05762, -9.00586, 1.4.2022 14:53:42.511
733, 18.7674, 348.412, 331.165, 0.0195312, -0.00683594, 0.00195312, 1.94238, 3.04004, -8.97559, 1.4.2022 14:53:42.519
734, 18.7531, 348.414, 331.155, 0.0146484, -0.00488281, 0.000976562, 1.92773, 3.03125, -8.98926, 1.4.2022 14:53:42.527
735, 18.7499, 348.414, 331.16, 0.00195312, -0.000976562, 0.000976562, 1.92285, 3.01562, -9.04297, 1.4.2022 14:53:42.535
736, 18.7453, 348.422, 331.158, -0.0107422, 0.00390625, 0, 1.93945, 3.03418, -8.99707, 1.4.2022 14:53:42.543
737, 18.7517, 348.42, 331.159, -0.0166016, 0.00488281, -0.000976562, 1.9375, 3.03027, -8.96582, 1.4.2022 14:53:42.551
738, 18.7612, 348.419, 331.156, -0.00976562, 0.00390625, -0.000976562, 1.91602, 3.04785, -8.98926, 1.4.2022 14:53:42.559
739, 18.7548, 348.421, 331.154, 0.00195312, -0.00195312, -0.000976562, 1.9209, 3.04199, -8.96289, 1.4.2022 14:53:42.567
740, 18.7517, 348.42, 331.159, 0.00976562, -0.00488281, 0, 1.94727, 3.06445, -8.97266, 1.4.2022 14:53:42.575
741, 18.7471, 348.429, 331.156, 0.0117188, -0.00488281, 0, 1.94043, 3.0332, -8.98242, 1.4.2022 14:53:42.583
742, 18.7407, 348.431, 331.155, 0.00488281, -0.00195312, 0, 1.93262, 3.05273, -8.99609, 1.4.2022 14:53:42.591
743, 18.7407, 348.431, 331.155, -0.00390625, 0, -0.000976562, 1.94629, 3.04883, -9.01074, 1.4.2022 14:53:42.599
744, 18.7407, 348.431, 331.155, -0.00878906, 0.00292969, -0.000976562, 1.94238, 3.04785, -8.99414, 1.4.2022 14:53:42.607
745, 18.7407, 348.431, 331.155, -0.00683594, 0.000976562, -0.00195312, 1.93262, 3.06152, -8.97949, 1.4.2022 14:53:42.615
746, 18.7407, 348.431, 331.155, -0.00195312, 0, -0.00195312, 1.94727, 3.04688, -8.97266, 1.4.2022 14:53:42.623
747, 18.7407, 348.431, 331.155, 0.00195312, -0.000976562, -0.00195312, 1.96387, 3.08203, -8.99805, 1.4.2022 14:53:42.631
748, 18.7422, 348.432, 331.161, 0.00292969, -0.00292969, -0.000976562, 1.94238, 3.07227, -8.99121, 1.4.2022 14:53:42.639
749, 18.744, 348.439, 331.16, 0, -0.00195312, -0.000976562, 1.94141, 3.0625, -9.00781, 1.4.2022 14:53:42.647
750, 18.744, 348.439, 331.16, -0.00585938, 0, -0.00195312, 1.9668, 3.07129, -8.96484, 1.4.2022 14:53:42.655
751, 18.7504, 348.437, 331.161, -0.0078125, 0.000976562, -0.00195312, 1.96094, 3.06738, -8.98438, 1.4.2022 14:53:42.663
752, 18.7504, 348.437, 331.161, -0.00390625, -0.000976562, -0.00195312, 1.96387, 3.04785, -8.99219, 1.4.2022 14:53:42.671
753, 18.7568, 348.435, 331.163, 0.00292969, -0.00292969, -0.000976562, 1.95215, 3.05859, -8.96094, 1.4.2022 14:53:42.679
754, 18.7504, 348.437, 331.161, 0.00976562, -0.00390625, -0.000976562, 1.96094, 3.06348, -9.00781, 1.4.2022 14:53:42.687
755, 18.7486, 348.43, 331.162, 0.0107422, -0.00488281, -0.000976562, 1.96289, 3.06934, -9.05566, 1.4.2022 14:53:42.695
756, 18.7422, 348.432, 331.161, 0.00683594, -0.00390625, 0, 1.93457, 3.03418, -8.99902, 1.4.2022 14:53:42.703
757, 18.7422, 348.432, 331.161, -0.00195312, -0.00195312, -0.000976562, 1.94922, 3.03418, -9.01172, 1.4.2022 14:53:42.711
758, 18.7486, 348.43, 331.162, -0.0107422, 0.000976562, -0.00195312, 1.93262, 3.09277, -8.9834, 1.4.2022 14:53:42.719
759, 18.755, 348.428, 331.164, -0.0136719, 0.00195312, -0.00292969, 1.94238, 3.07227, -8.93359, 1.4.2022 14:53:42.727
760, 18.7614, 348.427, 331.166, -0.00976562, 0.00195312, -0.00195312, 1.9668, 3.05371, -8.9541, 1.4.2022 14:53:42.735
761, 18.7614, 348.427, 331.166, -0.000976562, 0, -0.000976562, 1.93262, 3.07324, -8.95312, 1.4.2022 14:53:42.743
762, 18.7614, 348.427, 331.166, 0.00878906, -0.00390625, -0.000976562, 1.95215, 3.02539, -8.96191, 1.4.2022 14:53:42.751
763, 18.7614, 348.427, 331.166, 0.0146484, -0.00585938, -0.000976562, 1.92773, 3.02441, -8.99219, 1.4.2022 14:53:42.759
764, 18.755, 348.428, 331.164, 0.0136719, -0.00683594, -0.000976562, 1.95605, 3.03027, -9.04492, 1.4.2022 14:53:42.767
765, 18.7486, 348.43, 331.162, 0.00585938, -0.00292969, -0.000976562, 1.95312, 3.0498, -9.04004, 1.4.2022 14:53:42.775
766, 18.7486, 348.43, 331.162, -0.00585938, 0.000976562, -0.00195312, 1.93262, 3.06641, -8.9834, 1.4.2022 14:53:42.783
767, 18.7486, 348.43, 331.162, -0.0166016, 0.00488281, -0.00390625, 1.94922, 3.05469, -8.9873, 1.4.2022 14:53:42.791
768, 18.7614, 348.427, 331.166, -0.0195312, 0.00585938, -0.00488281, 1.93359, 3.05859, -8.94141, 1.4.2022 14:53:42.799
769, 18.7678, 348.425, 331.167, -0.0136719, 0.00195312, -0.00292969, 1.94531, 3.08496, -8.94531, 1.4.2022 14:53:42.807
770, 18.7789, 348.425, 331.17, 0, -0.00195312, -0.000976562, 1.9541, 3.05469, -8.96777, 1.4.2022 14:53:42.815
771, 18.771, 348.425, 331.162, 0.0146484, -0.00585938, 0.000976562, 1.95215, 3.06445, -8.98438, 1.4.2022 14:53:42.823
772, 18.7614, 348.427, 331.166, 0.0224609, -0.00878906, 0.000976562, 1.9248, 3.06641, -9.03613, 1.4.2022 14:53:42.831
773, 18.755, 348.428, 331.164, 0.015625, -0.00683594, 0.000976562, 1.95898, 3.05566, -8.99902, 1.4.2022 14:53:42.839
774, 18.7486, 348.43, 331.162, -0.00195312, 0, -0.000976562, 1.94141, 3.02734, -9.02832, 1.4.2022 14:53:42.847
775, 18.755, 348.428, 331.164, -0.0224609, 0.00683594, -0.00195312, 1.96387, 3.06445, -8.98438, 1.4.2022 14:53:42.855
776, 18.771, 348.425, 331.162, -0.03125, 0.00976562, -0.00195312, 1.94434, 3.08398, -8.98535, 1.4.2022 14:53:42.863
777, 18.7853, 348.423, 331.171, -0.0175781, 0.00488281, -0.00292969, 1.94824, 3.06738, -8.9248, 1.4.2022 14:53:42.871
778, 18.7917, 348.421, 331.173, 0.0078125, -0.00292969, -0.000976562, 1.94531, 3.05371, -8.96289, 1.4.2022 14:53:42.879
779, 18.7789, 348.425, 331.17, 0.03125, -0.0117188, 0.00195312, 1.9375, 3.06738, -8.99121, 1.4.2022 14:53:42.887
780, 18.7614, 348.427, 331.166, 0.0371094, -0.0126953, 0.00292969, 1.92969, 3.02441, -9.01855, 1.4.2022 14:53:42.895
781, 18.7486, 348.43, 331.162, 0.0205078, -0.0078125, 0.000976562, 1.9248, 3.03125, -9.07324, 1.4.2022 14:53:42.903
782, 18.7486, 348.43, 331.162, -0.0107422, 0.00488281, -0.000976562, 1.9248, 3.01562, -9.02344, 1.4.2022 14:53:42.911
783, 18.755, 348.428, 331.164, -0.0380859, 0.0126953, -0.00292969, 1.91602, 3.03418, -9.00391, 1.4.2022 14:53:42.919
784, 18.7774, 348.423, 331.164, -0.0429688, 0.0136719, -0.00390625, 1.94531, 3.06543, -8.93359, 1.4.2022 14:53:42.927
785, 18.7917, 348.421, 331.173, -0.0205078, 0.00683594, -0.00195312, 1.9375, 3.09766, -8.96387, 1.4.2022 14:53:42.935
786, 18.7917, 348.421, 331.173, 0.015625, -0.00585938, 0, 1.9375, 3.06348, -8.94336, 1.4.2022 14:53:42.943
787, 18.7789, 348.425, 331.17, 0.0410156, -0.0146484, 0.00195312, 1.9248, 3.07227, -8.99805, 1.4.2022 14:53:42.951
788, 18.7584, 348.436, 331.169, 0.0400391, -0.0146484, 0.00292969, 1.93945, 3.02148, -9.05664, 1.4.2022 14:53:42.959
789, 18.744, 348.439, 331.16, 0.0126953, -0.00488281, 0, 1.94141, 3.03711, -9.03711, 1.4.2022 14:53:42.967
790, 18.744, 348.439, 331.16, -0.0234375, 0.0078125, -0.00195312, 1.9248, 3.04199, -9.02539, 1.4.2022 14:53:42.975
791, 18.7584, 348.436, 331.169, -0.0449219, 0.0146484, -0.00390625, 1.9834, 3.0332, -8.97168, 1.4.2022 14:53:42.983
792, 18.7807, 348.431, 331.169, -0.0410156, 0.0126953, -0.00390625, 1.95996, 3.09277, -8.89062, 1.4.2022 14:53:42.991
793, 18.7935, 348.428, 331.172, -0.00878906, 0.000976562, -0.00195312, 1.92578, 3.11426, -8.90625, 1.4.2022 14:53:42.999
794, 18.7935, 348.428, 331.172, 0.0292969, -0.0117188, 0.00195312, 1.94727, 3.10352, -8.94727, 1.4.2022 14:53:43.007
795, 18.7712, 348.433, 331.172, 0.0478516, -0.0175781, 0.00390625, 1.93652, 3.05957, -9.04102, 1.4.2022 14:53:43.015
796, 18.752, 348.438, 331.167, 0.0400391, -0.0146484, 0.00292969, 1.92676, 3.05078, -9.06738, 1.4.2022 14:53:43.023
797, 18.7458, 348.446, 331.158, 0.00292969, -0.00195312, 0, 1.93164, 3.03613, -9.07031, 1.4.2022 14:53:43.031
798, 18.7537, 348.445, 331.166, -0.0341797, 0.00976562, -0.00390625, 1.9541, 3.0459, -9.00195, 1.4.2022 14:53:43.039
799, 18.7729, 348.44, 331.171, -0.0537109, 0.0175781, -0.00488281, 1.93848, 3.05078, -8.93945, 1.4.2022 14:53:43.047
800, 18.7952, 348.434, 331.171, -0.0380859, 0.0117188, -0.00390625, 1.92871, 3.11426, -8.89648, 1.4.2022 14:53:43.055
801, 18.808, 348.431, 331.174, 0.00195312, -0.00195312, -0.000976562, 1.92871, 3.06934, -8.91504, 1.4.2022 14:53:43.063
802, 18.8016, 348.433, 331.172, 0.0419922, -0.0146484, 0.00292969, 1.92773, 3.05469, -8.96777, 1.4.2022 14:53:43.071
803, 18.7729, 348.44, 331.171, 0.0546875, -0.0195312, 0.00488281, 1.92188, 3.04102, -9.06348, 1.4.2022 14:53:43.079
804, 18.7555, 348.452, 331.165, 0.0341797, -0.0126953, 0.00195312, 1.9502, 3.01855, -9.10938, 1.4.2022 14:53:43.087
805, 18.746, 348.453, 331.168, -0.00878906, 0.00195312, -0.00292969, 1.94629, 3.00977, -9.06445, 1.4.2022 14:53:43.095
806, 18.7619, 348.45, 331.166, -0.0458984, 0.0146484, -0.00488281, 1.95898, 3.05566, -9.00879, 1.4.2022 14:53:43.103
807, 18.7811, 348.444, 331.171, -0.0546875, 0.0185547, -0.00488281, 1.92383, 3.09082, -8.92578, 1.4.2022 14:53:43.111
808, 18.805, 348.441, 331.177, -0.0283203, 0.00976562, -0.00292969, 1.96484, 3.08594, -8.91504, 1.4.2022 14:53:43.119
809, 18.805, 348.441, 331.177, 0.015625, -0.00585938, 0.000976562, 1.95215, 3.09082, -8.9209, 1.4.2022 14:53:43.127
810, 18.7906, 348.443, 331.168, 0.0478516, -0.0175781, 0.00390625, 1.95215, 3.03613, -8.98535, 1.4.2022 14:53:43.135
811, 18.7683, 348.448, 331.168, 0.0478516, -0.0175781, 0.00390625, 1.94336, 3.00781, -9.07422, 1.4.2022 14:53:43.143
812, 18.7555, 348.452, 331.165, 0.0195312, -0.00683594, 0.00195312, 1.95312, 3.00391, -9.09863, 1.4.2022 14:53:43.151
813, 18.7491, 348.454, 331.163, -0.0214844, 0.0078125, -0.000976562, 1.94629, 3.03613, -9.05176, 1.4.2022 14:53:43.159
814, 18.7601, 348.443, 331.168, -0.0458984, 0.0146484, -0.00390625, 1.96387, 3.04297, -8.98047, 1.4.2022 14:53:43.167
815, 18.7793, 348.438, 331.172, -0.0410156, 0.0146484, -0.00488281, 1.94336, 3.07617, -8.89551, 1.4.2022 14:53:43.175
816, 18.7952, 348.434, 331.171, -0.00976562, 0.00292969, -0.00195312, 1.93555, 3.09082, -8.92383, 1.4.2022 14:53:43.183
817, 18.7888, 348.436, 331.169, 0.0234375, -0.0078125, 0.00195312, 1.91602, 3.07715, -8.9502, 1.4.2022 14:53:43.191
818, 18.7729, 348.44, 331.171, 0.0410156, -0.0136719, 0.00390625, 1.9248, 3.06836, -9.01953, 1.4.2022 14:53:43.197
819, 18.7601, 348.443, 331.168, 0.0302734, -0.0107422, 0.00292969, 1.92188, 3.03223, -9.0918, 1.4.2022 14:53:43.205
820, 18.7473, 348.447, 331.164, 0.00292969, -0.000976562, 0, 1.92188, 3.03809, -9.04883, 1.4.2022 14:53:43.213
821, 18.7537, 348.445, 331.166, -0.0224609, 0.00878906, -0.00292969, 1.93945, 3.05664, -9.03223, 1.4.2022 14:53:43.221
822, 18.7665, 348.441, 331.169, -0.03125, 0.0107422, -0.00195312, 1.94434, 3.08203, -8.99512, 1.4.2022 14:53:43.229
823, 18.7729, 348.44, 331.171, -0.0195312, 0.00683594, -0.000976562, 1.9502, 3.08984, -8.94531, 1.4.2022 14:53:43.237
824, 18.7793, 348.438, 331.172, 0.00195312, -0.000976562, -0.000976562, 1.96191, 3.06152, -8.95801, 1.4.2022 14:53:43.245
825, 18.7729, 348.44, 331.171, 0.0185547, -0.00488281, 0.000976562, 1.94434, 3.06641, -8.97949, 1.4.2022 14:53:43.253
826, 18.7665, 348.441, 331.169, 0.0195312, -0.00683594, 0.000976562, 1.94238, 3.01562, -9.02344, 1.4.2022 14:53:43.261
827, 18.7601, 348.443, 331.168, 0.0078125, -0.00292969, 0, 1.95117, 3.05469, -9.05371, 1.4.2022 14:53:43.269
828, 18.7601, 348.443, 331.168, -0.00878906, 0.00195312, 0, 1.93262, 3.04883, -9.00586, 1.4.2022 14:53:43.277
829, 18.7665, 348.441, 331.169, -0.0175781, 0.00585938, -0.000976562, 1.94434, 3.05176, -9.02539, 1.4.2022 14:53:43.285
830, 18.7729, 348.44, 331.171, -0.0136719, 0.00488281, 0, 1.9541, 3.05957, -8.96973, 1.4.2022 14:53:43.293
831, 18.7729, 348.44, 331.171, -0.00195312, 0.00195312, 0.000976562, 1.9502, 3.08691, -8.94727, 1.4.2022 14:53:43.301
832, 18.7729, 348.44, 331.171, 0.00878906, -0.00195312, 0.000976562, 1.9375, 3.08398, -8.99316, 1.4.2022 14:53:43.309
833, 18.7665, 348.441, 331.169, 0.0136719, -0.00390625, 0.00195312, 1.92285, 3.05957, -8.97656, 1.4.2022 14:53:43.317
834, 18.765, 348.44, 331.163, 0.00976562, -0.00292969, 0.000976562, 1.94922, 3.03418, -9.01367, 1.4.2022 14:53:43.325
835, 18.7586, 348.442, 331.162, -0.00292969, 0.000976562, 0.000976562, 1.93262, 3.04688, -8.96582, 1.4.2022 14:53:43.333
836, 18.765, 348.44, 331.163, -0.0126953, 0.00488281, 0, 1.93359, 3.05566, -8.95117, 1.4.2022 14:53:43.341
837, 18.7714, 348.438, 331.165, -0.0117188, 0.00390625, 0.000976562, 1.94043, 3.0918, -8.94531, 1.4.2022 14:53:43.349
838, 18.7791, 348.43, 331.163, -0.00292969, 0.00195312, 0.000976562, 1.92383, 3.05566, -8.92676, 1.4.2022 14:53:43.357
839, 18.7791, 348.43, 331.163, 0.00878906, -0.00292969, 0, 1.92578, 3.06152, -8.9668, 1.4.2022 14:53:43.365
840, 18.7714, 348.438, 331.165, 0.0126953, -0.00390625, 0.000976562, 1.95898, 3.03125, -8.99219, 1.4.2022 14:53:43.373
841, 18.7714, 348.438, 331.165, 0.0078125, -0.00195312, 0, 1.90137, 3.01758, -9.01855, 1.4.2022 14:53:43.381
842, 18.765, 348.44, 331.163, -0.00292969, 0.000976562, -0.000976562, 1.94922, 3.04785, -8.99219, 1.4.2022 14:53:43.389
843, 18.7714, 348.438, 331.165, -0.0175781, 0.00585938, -0.000976562, 1.9375, 3.06836, -8.94824, 1.4.2022 14:53:43.397
844, 18.7809, 348.437, 331.162, -0.0185547, 0.00585938, -0.00292969, 1.94727, 3.10156, -8.95215, 1.4.2022 14:53:43.405
845, 18.7888, 348.436, 331.169, -0.00292969, 0.000976562, -0.000976562, 1.97559, 3.08691, -8.99121, 1.4.2022 14:53:43.413
846, 18.7873, 348.435, 331.163, 0.0146484, -0.00488281, 0.00195312, 1.95605, 3.08008, -9.02148, 1.4.2022 14:53:43.421
847, 18.7809, 348.437, 331.162, 0.0253906, -0.00683594, 0.00195312, 1.9248, 3.05078, -9.01074, 1.4.2022 14:53:43.429
848, 18.7714, 348.438, 331.165, 0.0224609, -0.00488281, 0.00195312, 1.92285, 3.03906, -9.01758, 1.4.2022 14:53:43.437
849, 18.765, 348.44, 331.163, 0.00195312, 0, -0.000976562, 1.92773, 3.00879, -9.04297, 1.4.2022 14:53:43.445
850, 18.7632, 348.433, 331.164, -0.0292969, 0.0107422, -0.00195312, 1.94727, 3.01172, -8.96973, 1.4.2022 14:53:43.453
851, 18.7855, 348.428, 331.164, -0.0458984, 0.015625, -0.00390625, 1.9668, 3.05273, -8.92773, 1.4.2022 14:53:43.461
852, 18.8063, 348.424, 331.175, -0.0380859, 0.0126953, -0.00292969, 1.94336, 3.10156, -8.87988, 1.4.2022 14:53:43.469
853, 18.8222, 348.421, 331.173, -0.00683594, 0.00195312, 0.000976562, 1.92188, 3.0918, -8.87109, 1.4.2022 14:53:43.477
854, 18.8158, 348.422, 331.172, 0.0341797, -0.0117188, 0.00390625, 1.95215, 3.09277, -8.95703, 1.4.2022 14:53:43.485
855, 18.7919, 348.426, 331.166, 0.0576172, -0.0214844, 0.00585938, 1.91992, 3.05078, -9.06738, 1.4.2022 14:53:43.493
856, 18.7632, 348.433, 331.164, 0.0488281, -0.0175781, 0.00390625, 1.9248, 3.00293, -9.07617, 1.4.2022 14:53:43.501
857, 18.7504, 348.437, 331.161, 0.00976562, -0.00390625, 0, 1.94434, 2.97656, -9.06543, 1.4.2022 14:53:43.509
858, 18.7568, 348.435, 331.163, -0.0419922, 0.0136719, -0.00292969, 1.93262, 3.01758, -9.00195, 1.4.2022 14:53:43.517
859, 18.7791, 348.43, 331.163, -0.0673828, 0.0224609, -0.00585938, 1.94336, 3.08594, -8.91406, 1.4.2022 14:53:43.525
860, 18.8047, 348.423, 331.169, -0.0537109, 0.0166016, -0.00488281, 1.97168, 3.12109, -8.87793, 1.4.2022 14:53:43.533
861, 18.8286, 348.419, 331.175, -0.00585938, 0.000976562, -0.00195312, 1.93848, 3.1123, -8.85156, 1.4.2022 14:53:43.541
862, 18.8206, 348.419, 331.167, 0.0478516, -0.0175781, 0.00390625, 1.9375, 3.06543, -8.94336, 1.4.2022 14:53:43.549
863, 18.7919, 348.426, 331.166, 0.0732422, -0.0253906, 0.00585938, 1.96777, 3.0498, -9.03516, 1.4.2022 14:53:43.557
864, 18.7632, 348.433, 331.164, 0.0507812, -0.0166016, 0.00488281, 1.95801, 3.01172, -9.1123, 1.4.2022 14:53:43.565
865, 18.7504, 348.437, 331.161, -0.00585938, 0.00195312, -0.000976562, 1.95801, 3.02441, -9.05762, 1.4.2022 14:53:43.573
866, 18.7632, 348.433, 331.164, -0.0605469, 0.0205078, -0.00585938, 1.9541, 3.02148, -9.04297, 1.4.2022 14:53:43.581
867, 18.7983, 348.424, 331.168, -0.0751953, 0.0244141, -0.0078125, 1.92871, 3.07812, -8.90918, 1.4.2022 14:53:43.589
868, 18.8253, 348.411, 331.17, -0.0419922, 0.0136719, -0.00390625, 1.96484, 3.09863, -8.86914, 1.4.2022 14:53:43.597
869, 18.8332, 348.41, 331.178, 0.0195312, -0.00683594, 0.000976562, 1.95117, 3.08008, -8.87207, 1.4.2022 14:53:43.605
870, 18.8125, 348.414, 331.167, 0.0664062, -0.0234375, 0.00585938, 1.92773, 3.06641, -8.97656, 1.4.2022 14:53:43.613
871, 18.7774, 348.423, 331.164, 0.0703125, -0.0244141, 0.00488281, 1.94824, 3.01367, -9.11719, 1.4.2022 14:53:43.621
872, 18.755, 348.428, 331.164, 0.0302734, -0.0107422, 0.000976562, 1.96289, 2.99414, -9.08496, 1.4.2022 14:53:43.629
873, 18.7486, 348.43, 331.162, -0.03125, 0.0107422, -0.00292969, 1.95605, 3.0332, -9.03516, 1.4.2022 14:53:43.637
874, 18.7756, 348.417, 331.165, -0.0712891, 0.0244141, -0.00488281, 1.94238, 3.0625, -8.98633, 1.4.2022 14:53:43.645
875, 18.8043, 348.409, 331.167, -0.0634766, 0.0214844, -0.00585938, 1.95996, 3.06152, -8.88184, 1.4.2022 14:53:43.653
876, 18.8235, 348.404, 331.171, -0.0175781, 0.00585938, -0.00292969, 1.93848, 3.09863, -8.86328, 1.4.2022 14:53:43.661
877, 18.8171, 348.406, 331.17, 0.0419922, -0.015625, 0.00195312, 1.94727, 3.08398, -8.92676, 1.4.2022 14:53:43.669
878, 18.7884, 348.413, 331.168, 0.0722656, -0.0263672, 0.00585938, 1.9541, 3.02051, -9.02832, 1.4.2022 14:53:43.677
879, 18.7628, 348.42, 331.162, 0.0546875, -0.0185547, 0.00488281, 1.96191, 3.03711, -9.09961, 1.4.2022 14:53:43.685
880, 18.7453, 348.422, 331.158, 0.00195312, -0.000976562, -0.000976562, 1.92676, 3.01953, -9.07812, 1.4.2022 14:53:43.693
881, 18.7515, 348.415, 331.166, -0.0527344, 0.0185547, -0.00488281, 1.95703, 3.03613, -8.99707, 1.4.2022 14:53:43.701
882, 18.7802, 348.408, 331.168, -0.0732422, 0.0244141, -0.00683594, 1.94531, 3.09961, -8.89453, 1.4.2022 14:53:43.709
883, 18.8153, 348.399, 331.171, -0.0458984, 0.0146484, -0.00488281, 1.94141, 3.12402, -8.83887, 1.4.2022 14:53:43.717
884, 18.8217, 348.397, 331.172, 0.00878906, -0.00390625, 0, 1.94727, 3.13867, -8.91211, 1.4.2022 14:53:43.725
885, 18.8153, 348.399, 331.171, 0.0576172, -0.0214844, 0.00585938, 1.94727, 3.04492, -8.96094, 1.4.2022 14:53:43.733
886, 18.7802, 348.408, 331.168, 0.0693359, -0.0253906, 0.00585938, 1.94824, 3.01367, -9.10938, 1.4.2022 14:53:43.741
887, 18.7595, 348.412, 331.157, 0.0351562, -0.0126953, 0.00292969, 1.92871, 3.01465, -9.15039, 1.4.2022 14:53:43.749
888, 18.7499, 348.414, 331.16, -0.0205078, 0.00585938, -0.000976562, 1.95801, 3.0332, -9.06152, 1.4.2022 14:53:43.757
889, 18.7738, 348.41, 331.166, -0.0625, 0.0205078, -0.00585938, 1.96582, 3.07617, -8.97461, 1.4.2022 14:53:43.765
890, 18.8025, 348.403, 331.168, -0.0634766, 0.0205078, -0.00585938, 1.97461, 3.08008, -8.88672, 1.4.2022 14:53:43.773
891, 18.8217, 348.397, 331.172, -0.0234375, 0.0078125, -0.00195312, 1.94336, 3.1123, -8.85645, 1.4.2022 14:53:43.781
892, 18.82, 348.39, 331.174, 0.0273438, -0.0107422, 0.00195312, 1.97168, 3.10156, -8.93066, 1.4.2022 14:53:43.789
893, 18.8072, 348.394, 331.17, 0.0595703, -0.0224609, 0.00488281, 1.95898, 3.0625, -8.98926, 1.4.2022 14:53:43.797
894, 18.7802, 348.408, 331.168, 0.0527344, -0.0185547, 0.00488281, 1.94824, 3.03906, -9.06836, 1.4.2022 14:53:43.805
895, 18.7659, 348.41, 331.159, 0.0126953, -0.00488281, 0, 1.94824, 3.03516, -9.10449, 1.4.2022 14:53:43.813
896, 18.7723, 348.408, 331.16, -0.03125, 0.00976562, -0.00292969, 1.93652, 3.04785, -9.05371, 1.4.2022 14:53:43.821
897, 18.788, 348.4, 331.166, -0.0527344, 0.0175781, -0.00585938, 1.92969, 3.09473, -8.97363, 1.4.2022 14:53:43.829
898, 18.8136, 348.392, 331.172, -0.0400391, 0.0126953, -0.00390625, 1.94531, 3.07812, -8.90039, 1.4.2022 14:53:43.837
899, 18.8264, 348.389, 331.175, -0.00683594, 0.000976562, -0.000976562, 1.93848, 3.10059, -8.91602, 1.4.2022 14:53:43.845
900, 18.82, 348.39, 331.174, 0.0253906, -0.0107422, 0.000976562, 1.94531, 3.06348, -8.95996, 1.4.2022 14:53:43.853
901, 18.809, 348.401, 331.169, 0.0371094, -0.0126953, 0.00292969, 1.96582, 3.05762, -9.04883, 1.4.2022 14:53:43.861
902, 18.7962, 348.405, 331.166, 0.0244141, -0.00976562, 0.00195312, 1.91992, 3.0332, -9.05664, 1.4.2022 14:53:43.869
903, 18.7866, 348.406, 331.169, -0.00195312, -0.000976562, 0, 1.92188, 3.04004, -9.04395, 1.4.2022 14:53:43.877
904, 18.7962, 348.405, 331.166, -0.0224609, 0.00683594, -0.00195312, 1.94922, 3.06055, -9.01758, 1.4.2022 14:53:43.885
905, 18.8025, 348.403, 331.168, -0.0244141, 0.0078125, -0.00195312, 1.95898, 3.0332, -8.99023, 1.4.2022 14:53:43.893
906, 18.8153, 348.399, 331.171, -0.0107422, 0.00195312, -0.00195312, 1.9502, 3.05176, -8.96289, 1.4.2022 14:53:43.901
907, 18.809, 348.401, 331.169, 0.00585938, -0.00390625, 0, 1.94141, 3.0752, -9.00781, 1.4.2022 14:53:43.909
908, 18.809, 348.401, 331.169, 0.015625, -0.00585938, 0.000976562, 1.96582, 3.0752, -9.02734, 1.4.2022 14:53:43.917
909, 18.8043, 348.409, 331.167, 0.0107422, -0.00390625, 0, 1.96582, 3.05664, -9.03516, 1.4.2022 14:53:43.925
910, 18.7979, 348.411, 331.165, -0.00292969, -0.000976562, -0.000976562, 1.96875, 3.03125, -8.98535, 1.4.2022 14:53:43.933
911, 18.7962, 348.405, 331.166, -0.0117188, 0.00195312, -0.00195312, 1.96387, 3.06348, -8.95605, 1.4.2022 14:53:43.941
912, 18.8025, 348.403, 331.168, -0.0126953, 0.00195312, -0.00195312, 1.93555, 3.07617, -8.96484, 1.4.2022 14:53:43.949
913, 18.809, 348.401, 331.169, -0.00292969, -0.000976562, -0.000976562, 1.91797, 3.0459, -8.99609, 1.4.2022 14:53:43.957
914, 18.8043, 348.409, 331.167, 0.0078125, -0.00292969, 0, 1.9209, 3.01855, -8.9873, 1.4.2022 14:53:43.965
915, 18.7979, 348.411, 331.165, 0.0117188, -0.00488281, 0, 1.90918, 3.01367, -8.97363, 1.4.2022 14:53:43.973
916, 18.7884, 348.413, 331.168, 0.0078125, -0.00390625, 0, 1.94727, 3.00977, -8.99512, 1.4.2022 14:53:43.981
917, 18.7884, 348.413, 331.168, -0.00195312, -0.000976562, -0.00195312, 1.95801, 3.06348, -9.02734, 1.4.2022 14:53:43.989
918, 18.7884, 348.413, 331.168, -0.0107422, 0.00195312, -0.00195312, 1.95898, 3.08594, -8.98828, 1.4.2022 14:53:43.997
919, 18.7884, 348.413, 331.168, -0.0117188, 0.00292969, -0.00195312, 1.93262, 3.08105, -8.98828, 1.4.2022 14:53:44.005
920, 18.7948, 348.411, 331.17, -0.00585938, 0.000976562, -0.000976562, 1.94727, 3.06934, -8.99316, 1.4.2022 14:53:44.013
921, 18.7948, 348.411, 331.17, 0.00292969, -0.00195312, 0, 1.93262, 3.0752, -9.00781, 1.4.2022 14:53:44.021
922, 18.7884, 348.413, 331.168, 0.00976562, -0.00390625, 0, 1.92578, 3.0498, -8.97754, 1.4.2022 14:53:44.029
923, 18.782, 348.415, 331.167, 0.00878906, -0.00195312, 0, 1.91113, 3.05078, -8.99609, 1.4.2022 14:53:44.037
924, 18.7838, 348.421, 331.165, 0.000976562, -0.000976562, -0.000976562, 1.94238, 3.02148, -8.98828, 1.4.2022 14:53:44.045
925, 18.7838, 348.421, 331.165, -0.00683594, 0.000976562, -0.000976562, 1.9541, 3.0498, -8.97559, 1.4.2022 14:53:44.053
926, 18.7838, 348.421, 331.165, -0.00878906, 0.00195312, -0.00195312, 1.96387, 3.04395, -9.00879, 1.4.2022 14:53:44.061
927, 18.7838, 348.421, 331.165, -0.00585938, 0.000976562, -0.000976562, 1.95898, 3.05566, -8.99219, 1.4.2022 14:53:44.069
928, 18.7838, 348.421, 331.165, 0.000976562, -0.000976562, -0.00195312, 1.94434, 3.04102, -8.99219, 1.4.2022 14:53:44.077
929, 18.7838, 348.421, 331.165, 0.00292969, -0.00195312, -0.000976562, 1.93457, 3.06934, -8.99121, 1.4.2022 14:53:44.085
930, 18.7774, 348.423, 331.164, 0.00195312, -0.00195312, -0.000976562, 1.96582, 3.05566, -8.99707, 1.4.2022 14:53:44.093
931, 18.7774, 348.423, 331.164, -0.000976562, -0.000976562, -0.000976562, 1.93262, 3.03125, -9.00195, 1.4.2022 14:53:44.101
932, 18.7774, 348.423, 331.164, -0.00195312, 0, -0.00195312, 1.93066, 3.05762, -8.93652, 1.4.2022 14:53:44.109
933, 18.7774, 348.423, 331.164, 0, -0.00195312, -0.000976562, 1.94629, 3.05078, -9.00879, 1.4.2022 14:53:44.117
934, 18.7774, 348.423, 331.164, 0.00292969, -0.00292969, 0, 1.94922, 3.04297, -8.99707, 1.4.2022 14:53:44.125
935, 18.771, 348.425, 331.162, 0.00488281, -0.00195312, -0.000976562, 1.93262, 3.03418, -9.00684, 1.4.2022 14:53:44.133
936, 18.771, 348.425, 331.162, 0.000976562, -0.000976562, 0, 1.94434, 3.04395, -9.01855, 1.4.2022 14:53:44.141
937, 18.763, 348.426, 331.155, -0.00488281, 0.000976562, 0.000976562, 1.96582, 3.05664, -9.04395, 1.4.2022 14:53:44.149
938, 18.7694, 348.424, 331.156, -0.00976562, 0.00292969, 0, 1.95898, 3.05273, -8.9873, 1.4.2022 14:53:44.157
939, 18.7694, 348.424, 331.156, -0.00976562, 0.00195312, -0.000976562, 1.94238, 3.07715, -8.99512, 1.4.2022 14:53:44.165
940, 18.7694, 348.424, 331.156, -0.00292969, 0.000976562, 0.000976562, 1.9541, 3.08008, -8.95312, 1.4.2022 14:53:44.173
941, 18.7694, 348.424, 331.156, 0.00488281, -0.00292969, 0, 1.9541, 3.05371, -9.00586, 1.4.2022 14:53:44.181
942, 18.7694, 348.424, 331.156, 0.0117188, -0.00488281, 0.000976562, 1.95605, 3.06445, -8.99121, 1.4.2022 14:53:44.189
943, 18.763, 348.426, 331.155, 0.0107422, -0.00488281, 0, 1.9375, 3.03613, -9.00391, 1.4.2022 14:53:44.197
944, 18.7548, 348.421, 331.154, 0.00292969, -0.00195312, -0.000976562, 1.97461, 3.03418, -9.06934, 1.4.2022 14:53:44.205
945, 18.7548, 348.421, 331.154, -0.0078125, 0.00195312, -0.00195312, 1.94922, 3.0127, -8.99805, 1.4.2022 14:53:44.213
946, 18.7548, 348.421, 331.154, -0.0136719, 0.00292969, -0.00292969, 1.93945, 3.04395, -9.00879, 1.4.2022 14:53:44.221
947, 18.7612, 348.419, 331.156, -0.0107422, 0.00195312, -0.00195312, 1.9502, 3.07812, -8.95508, 1.4.2022 14:53:44.229
948, 18.7612, 348.419, 331.156, -0.000976562, -0.000976562, -0.000976562, 1.93066, 3.09082, -8.93066, 1.4.2022 14:53:44.237
949, 18.7612, 348.419, 331.156, 0.00878906, -0.00390625, 0, 1.9541, 3.07031, -9.01758, 1.4.2022 14:53:44.245
950, 18.7548, 348.421, 331.154, 0.0136719, -0.00488281, 0, 1.9375, 3.02246, -9.00488, 1.4.2022 14:53:44.253
951, 18.7453, 348.422, 331.158, 0.0078125, -0.00390625, 0.000976562, 1.92969, 3.03906, -9.01367, 1.4.2022 14:53:44.261
952, 18.7453, 348.422, 331.158, -0.00292969, 0, -0.000976562, 1.95898, 3.03418, -8.99707, 1.4.2022 14:53:44.269
953, 18.7548, 348.421, 331.154, -0.0117188, 0.00292969, -0.00195312, 1.95703, 3.04688, -8.95605, 1.4.2022 14:53:44.277
954, 18.7548, 348.421, 331.154, -0.0126953, 0.00390625, -0.00195312, 1.9541, 3.08789, -8.96875, 1.4.2022 14:53:44.285
955, 18.7595, 348.412, 331.157, -0.00585938, 0.00195312, -0.000976562, 1.97168, 3.06836, -8.95801, 1.4.2022 14:53:44.293
956, 18.7595, 348.412, 331.157, 0.00390625, -0.00195312, -0.000976562, 1.9209, 3.0752, -8.95996, 1.4.2022 14:53:44.301
957, 18.7595, 348.412, 331.157, 0.0117188, -0.00488281, 0.000976562, 1.97168, 3.04785, -8.9707, 1.4.2022 14:53:44.309
958, 18.7531, 348.414, 331.155, 0.0107422, -0.00488281, 0.000976562, 1.94434, 3.04102, -8.98535, 1.4.2022 14:53:44.317
959, 18.7531, 348.414, 331.155, 0.00195312, -0.00195312, -0.000976562, 1.92969, 3.07324, -9.0459, 1.4.2022 14:53:44.325
960, 18.7531, 348.414, 331.155, -0.00878906, 0.000976562, -0.00195312, 1.94434, 3.07031, -9.01758, 1.4.2022 14:53:44.331
961, 18.7595, 348.412, 331.157, -0.0117188, 0.00292969, -0.00292969, 1.94434, 3.0625, -8.98633, 1.4.2022 14:53:44.341
962, 18.7659, 348.41, 331.159, -0.00878906, 0.000976562, -0.00195312, 1.94336, 3.07422, -8.91895, 1.4.2022 14:53:44.349
963, 18.7659, 348.41, 331.159, 0.000976562, -0.00195312, 0, 1.95898, 3.06641, -8.97266, 1.4.2022 14:53:44.357
964, 18.7659, 348.41, 331.159, 0.00976562, -0.00390625, 0, 1.96387, 3.02344, -8.97363, 1.4.2022 14:53:44.363
965, 18.7659, 348.41, 331.159, 0.00976562, -0.00390625, 0, 1.94238, 3.02441, -8.99707, 1.4.2022 14:53:44.371
966, 18.7595, 348.412, 331.157, 0, 0, -0.000976562, 1.93945, 3.05078, -9.00879, 1.4.2022 14:53:44.379
967, 18.7659, 348.41, 331.159, -0.00878906, 0.00195312, -0.000976562, 1.9375, 3.08594, -8.97363, 1.4.2022 14:53:44.387
968, 18.7659, 348.41, 331.159, -0.0126953, 0.00292969, -0.00195312, 1.93555, 3.05176, -8.97266, 1.4.2022 14:53:44.395
969, 18.7723, 348.408, 331.16, -0.0078125, 0.000976562, -0.000976562, 1.9541, 3.08984, -8.95215, 1.4.2022 14:53:44.403
970, 18.7787, 348.407, 331.162, 0.00488281, -0.00390625, 0, 1.93457, 3.07129, -8.98633, 1.4.2022 14:53:44.411
971, 18.7723, 348.408, 331.16, 0.0166016, -0.00878906, 0.000976562, 1.94727, 3.05078, -8.99609, 1.4.2022 14:53:44.419
972, 18.7659, 348.41, 331.159, 0.015625, -0.00585938, 0, 1.9541, 3.04102, -9.00879, 1.4.2022 14:53:44.427
973, 18.7595, 348.412, 331.157, 0.00292969, -0.00195312, -0.000976562, 1.97266, 3.02051, -9.02441, 1.4.2022 14:53:44.435
974, 18.7659, 348.41, 331.159, -0.015625, 0.00390625, -0.00195312, 1.94922, 3.03711, -9.02832, 1.4.2022 14:53:44.443
975, 18.7723, 348.408, 331.16, -0.0234375, 0.0078125, -0.00195312, 1.97168, 3.08691, -8.93359, 1.4.2022 14:53:44.451
976, 18.7851, 348.405, 331.163, -0.0175781, 0.00488281, -0.00292969, 1.94434, 3.09473, -8.9668, 1.4.2022 14:53:44.459
977, 18.7882, 348.405, 331.159, 0.00195312, -0.00195312, -0.000976562, 1.95215, 3.10156, -8.94238, 1.4.2022 14:53:44.467
978, 18.7882, 348.405, 331.159, 0.0205078, -0.00683594, 0.000976562, 1.94727, 3.0459, -8.99219, 1.4.2022 14:53:44.475
979, 18.7723, 348.408, 331.16, 0.0253906, -0.00976562, 0.000976562, 1.97266, 3.06445, -9.05176, 1.4.2022 14:53:44.483
980, 18.7659, 348.41, 331.159, 0.0117188, -0.00488281, 0.000976562, 1.95801, 3.05176, -9.03223, 1.4.2022 14:53:44.491
981, 18.7659, 348.41, 331.159, -0.00976562, 0.00195312, -0.000976562, 1.93945, 3.01758, -9.01855, 1.4.2022 14:53:44.499
982, 18.7723, 348.408, 331.16, -0.0263672, 0.00683594, -0.00195312, 1.92285, 3.05664, -9.03125, 1.4.2022 14:53:44.507
983, 18.7882, 348.405, 331.159, -0.0263672, 0.00683594, -0.00195312, 1.96875, 3.05957, -8.96582, 1.4.2022 14:53:44.515
984, 18.7946, 348.403, 331.16, -0.00878906, 0.000976562, 0.000976562, 1.94727, 3.08594, -8.96875, 1.4.2022 14:53:44.523
985, 18.7946, 348.403, 331.16, 0.0136719, -0.00585938, 0.000976562, 1.9541, 3.06641, -8.97656, 1.4.2022 14:53:44.531
986, 18.7882, 348.405, 331.159, 0.0292969, -0.0117188, 0.00195312, 1.92578, 3.05762, -8.98633, 1.4.2022 14:53:44.539
987, 18.7723, 348.408, 331.16, 0.0244141, -0.00976562, 0.00195312, 1.91992, 3.06836, -9.0293, 1.4.2022 14:53:44.547
988, 18.7643, 348.409, 331.153, 0.00390625, -0.00292969, 0, 1.96777, 3.02637, -9.06445, 1.4.2022 14:53:44.555
989, 18.7643, 348.409, 331.153, -0.0185547, 0.00585938, -0.000976562, 1.94727, 3.01953, -9.00977, 1.4.2022 14:53:44.563
990, 18.7771, 348.405, 331.156, -0.0302734, 0.00878906, -0.00292969, 1.9375, 3.06641, -8.97949, 1.4.2022 14:53:44.571
991, 18.7882, 348.405, 331.159, -0.0234375, 0.0078125, -0.00390625, 1.94727, 3.09668, -8.93555, 1.4.2022 14:53:44.579
992, 18.7946, 348.403, 331.16, -0.00195312, -0.000976562, -0.00195312, 1.94043, 3.0459, -8.93457, 1.4.2022 14:53:44.587
993, 18.7946, 348.403, 331.16, 0.0205078, -0.0078125, 0.000976562, 1.93457, 3.0791, -8.99512, 1.4.2022 14:53:44.595
994, 18.7787, 348.407, 331.162, 0.0292969, -0.0107422, 0.00195312, 1.96875, 3.02441, -9.00293, 1.4.2022 14:53:44.603
995, 18.7659, 348.41, 331.159, 0.0166016, -0.00585938, 0, 1.92773, 3.02734, -9.03027, 1.4.2022 14:53:44.611
996, 18.7676, 348.417, 331.158, -0.00585938, 0.000976562, -0.000976562, 1.9375, 3.04102, -9.00391, 1.4.2022 14:53:44.619
997, 18.7659, 348.41, 331.159, -0.0234375, 0.0078125, -0.00195312, 1.96191, 3.02148, -8.97656, 1.4.2022 14:53:44.627
998, 18.7787, 348.407, 331.162, -0.0283203, 0.00878906, -0.00292969, 1.95508, 3.03906, -8.93066, 1.4.2022 14:53:44.635
999, 18.7882, 348.405, 331.159, -0.0136719, 0.00390625, -0.00195312, 1.93359, 3.07617, -8.90039, 1.4.2022 14:53:44.643
1000, 18.7882, 348.405, 331.159, 0.00976562, -0.00488281, 0.000976562, 1.95996, 3.05566, -8.9248, 1.4.2022 14:53:44.651
1001, 18.7818, 348.407, 331.157, 0.0273438, -0.00976562, 0.000976562, 1.9541, 3.07715, -9.00977, 1.4.2022 14:53:44.659
1002, 18.7659, 348.41, 331.159, 0.0273438, -0.0107422, 0.00195312, 1.91504, 3.04004, -9.04395, 1.4.2022 14:53:44.667
1003, 18.7579, 348.411, 331.151, 0.00976562, -0.00292969, 0.000976562, 1.93945, 3.02734, -9.02832, 1.4.2022 14:53:44.675
1004, 18.7579, 348.411, 331.151, -0.015625, 0.00585938, -0.00292969, 1.9541, 3.02344, -9.03613, 1.4.2022 14:53:44.683
1005, 18.7659, 348.41, 331.159, -0.0292969, 0.00878906, -0.00488281, 1.95703, 3.04883, -8.94922, 1.4.2022 14:53:44.691
1006, 18.7787, 348.407, 331.162, -0.0263672, 0.0078125, -0.00195312, 1.95508, 3.08887, -8.93848, 1.4.2022 14:53:44.699
1007, 18.7882, 348.405, 331.159, -0.00585938, 0.000976562, -0.000976562, 1.97363, 3.07324, -8.96777, 1.4.2022 14:53:44.707
1008, 18.7882, 348.405, 331.159, 0.0185547, -0.00683594, 0.000976562, 1.94727, 3.06836, -8.95312, 1.4.2022 14:53:44.715
1009, 18.7723, 348.408, 331.16, 0.0302734, -0.0117188, 0.00195312, 1.93945, 3.05273, -8.99902, 1.4.2022 14:53:44.723
1010, 18.7579, 348.411, 331.151, 0.0224609, -0.0078125, 0.00195312, 1.93945, 3.02344, -9.04785, 1.4.2022 14:53:44.731
1011, 18.7515, 348.413, 331.149, 0, 0, 0, 1.92969, 3.02734, -9.02344, 1.4.2022 14:53:44.738
1012, 18.7579, 348.411, 331.151, -0.0195312, 0.00683594, -0.00195312, 1.96191, 3.03516, -8.95898, 1.4.2022 14:53:44.747
1013, 18.7625, 348.402, 331.154, -0.0273438, 0.00878906, -0.00195312, 1.9209, 3.05762, -8.98438, 1.4.2022 14:53:44.755
1014, 18.7689, 348.4, 331.155, -0.0175781, 0.00488281, -0.00292969, 1.94336, 3.05078, -8.93945, 1.4.2022 14:53:44.763
1015, 18.7769, 348.4, 331.163, 0.00488281, -0.00292969, -0.000976562, 1.94727, 3.08301, -8.97852, 1.4.2022 14:53:44.771
1016, 18.7707, 348.407, 331.154, 0.0224609, -0.00976562, 0.000976562, 1.92773, 3.06738, -9.00293, 1.4.2022 14:53:44.779
1017, 18.7579, 348.411, 331.151, 0.0244141, -0.00976562, 0.000976562, 1.94727, 3.03906, -9.00684, 1.4.2022 14:53:44.787
1018, 18.7515, 348.413, 331.149, 0.00878906, -0.00390625, -0.000976562, 1.95117, 3.05469, -9.04199, 1.4.2022 14:53:44.795
1019, 18.7515, 348.413, 331.149, -0.0107422, 0.00292969, -0.00292969, 1.93262, 3.0459, -9.00391, 1.4.2022 14:53:44.803
1020, 18.7595, 348.412, 331.157, -0.0244141, 0.00878906, -0.00292969, 1.93262, 3.04297, -8.99609, 1.4.2022 14:53:44.811
1021, 18.7723, 348.408, 331.16, -0.0263672, 0.0078125, -0.00195312, 1.95703, 3.08301, -8.97656, 1.4.2022 14:53:44.819
1022, 18.7787, 348.407, 331.162, -0.00878906, 0.000976562, -0.000976562, 1.92773, 3.08984, -8.94727, 1.4.2022 14:53:44.827
1023, 18.7787, 348.407, 331.162, 0.0146484, -0.00585938, 0, 1.9502, 3.04199, -8.96094, 1.4.2022 14:53:44.835
1024, 18.7676, 348.417, 331.158, 0.0253906, -0.0107422, 0.00195312, 1.96777, 3.06836, -9.0127, 1.4.2022 14:53:44.843
1025, 18.7548, 348.421, 331.154, 0.0234375, -0.0107422, 0.000976562, 1.90039, 3.01172, -9.05469, 1.4.2022 14:53:44.851
1026, 18.7548, 348.421, 331.154, -0.000976562, -0.000976562, -0.00195312, 1.96387, 3.05762, -8.99219, 1.4.2022 14:53:44.859
1027, 18.7548, 348.421, 331.154, -0.00976562, 0.00195312, -0.00195312, 1.9502, 2.98926, -8.96094, 1.4.2022 14:53:44.867
1028, 18.7612, 348.419, 331.156, -0.0302734, 0.0107422, -0.00292969, 1.94531, 3.06836, -8.94824, 1.4.2022 14:53:44.875
1029, 18.774, 348.415, 331.159, -0.0234375, 0.0078125, -0.00195312, 1.9502, 3.07031, -8.9502, 1.4.2022 14:53:44.883
1030, 18.7804, 348.413, 331.161, -0.000976562, 0, -0.000976562, 1.96973, 3.0332, -8.91406, 1.4.2022 14:53:44.891
1031, 18.774, 348.415, 331.159, 0.0195312, -0.00683594, 0.000976562, 1.94043, 3.05469, -8.97754, 1.4.2022 14:53:44.899
1032, 18.7612, 348.419, 331.156, 0.0292969, -0.0117188, 0.00195312, 1.97363, 3.01562, -9.00977, 1.4.2022 14:53:44.907
1033, 18.7467, 348.416, 331.154, 0.0205078, -0.00683594, 0, 1.92969, 3.01758, -9.02637, 1.4.2022 14:53:44.915
1034, 18.7435, 348.415, 331.159, -0.00292969, 0, -0.000976562, 1.90527, 3.04688, -9.02734, 1.4.2022 14:53:44.923
