Seq, Rot x, Rot y, Rot z, Vel x, Vel y, Vel z, Acc x, Acc y, Acc z, Time(m.d.y h:m:s.ms)
0, 1.62176, 0.195924, 317.573, 0.00292969, -0.00390625, -0.000976562, -0.0332031, 0.277344, -9.77051, 1.10.2022 16:29:19.565
1, 1.62176, 0.195924, 317.573, 0.00292969, -0.00390625, -0.000976562, -0.0664062, 0.329102, -9.76074, 1.10.2022 16:29:19.573
2, 1.62176, 0.195924, 317.573, 0.00292969, -0.00195312, -0.000976562, 0.0136719, 0.289062, -9.78027, 1.10.2022 16:29:19.581
3, 1.62176, 0.195924, 317.573, 0.00292969, -0.00195312, -0.000976562, -0.0791016, 0.334961, -9.78418, 1.10.2022 16:29:19.589
4, 1.61524, 0.198454, 317.573, 0.00195312, -0.00195312, -0.000976562, -0.0654297, 0.311523, -9.79004, 1.10.2022 16:29:19.597
5, 1.61524, 0.198454, 317.573, 0.00195312, -0.00390625, -0.000976562, 0.00683594, 0.294922, -9.80078, 1.10.2022 16:29:19.605
6, 1.61524, 0.198454, 317.573, 0.00292969, -0.000976562, 0, -0.0810547, 0.306641, -9.7832, 1.10.2022 16:29:19.613
7, 1.61524, 0.198454, 317.573, 0.00292969, -0.000976562, -0.000976562, -0.0224609, 0.3125, -9.82129, 1.10.2022 16:29:19.621
8, 1.61524, 0.198454, 317.573, 0.00292969, -0.000976562, -0.000976562, -0.0214844, 0.335938, -9.74512, 1.10.2022 16:29:19.629
9, 1.60872, 0.200984, 317.572, 0.00292969, -0.00195312, -0.00195312, -0.0859375, 0.325195, -9.78223, 1.10.2022 16:29:19.637
10, 1.60872, 0.200984, 317.572, 0.00292969, -0.00195312, -0.000976562, -0.0078125, 0.293945, -9.78418, 1.10.2022 16:29:19.645
11, 1.60872, 0.200984, 317.572, 0.00292969, -0.00195312, -0.000976562, -0.046875, 0.314453, -9.73145, 1.10.2022 16:29:19.653
12, 1.60872, 0.200984, 317.572, 0.00195312, -0.00195312, -0.000976562, -0.0722656, 0.308594, -9.77832, 1.10.2022 16:29:19.661
13, 1.60872, 0.200984, 317.572, 0.00195312, -0.000976562, -0.000976562, 0.0224609, 0.283203, -9.81348, 1.10.2022 16:29:19.669
14, 1.60202, 0.203648, 317.584, 0.00195312, -0.00195312, -0.00195312, -0.0732422, 0.322266, -9.83008, 1.10.2022 16:29:19.677
15, 1.60202, 0.203648, 317.584, 0.00195312, -0.000976562, -0.000976562, -0.0625, 0.337891, -9.81055, 1.10.2022 16:29:19.685
16, 1.60202, 0.203648, 317.584, 0.00195312, -0.000976562, -0.000976562, -0.00488281, 0.28418, -9.77246, 1.10.2022 16:29:19.693
17, 1.60202, 0.203648, 317.584, 0.00292969, -0.000976562, -0.000976562, -0.0546875, 0.31543, -9.75488, 1.10.2022 16:29:19.701
18, 1.60202, 0.203648, 317.584, 0.00292969, -0.00390625, -0.000976562, -0.0136719, 0.30957, -9.72461, 1.10.2022 16:29:19.709
19, 1.5955, 0.206177, 317.584, 0.00292969, -0.00195312, -0.000976562, -0.0117188, 0.295898, -9.76074, 1.10.2022 16:29:19.717
20, 1.5955, 0.206177, 317.584, 0.00390625, -0.000976562, 0, -0.0761719, 0.327148, -9.77734, 1.10.2022 16:29:19.725
21, 1.5955, 0.206177, 317.584, 0.00292969, -0.000976562, -0.000976562, 0.00878906, 0.302734, -9.82422, 1.10.2022 16:29:19.733
22, 1.5955, 0.206177, 317.584, 0.00195312, -0.000976562, -0.00195312, -0.0546875, 0.305664, -9.77344, 1.10.2022 16:29:19.741
23, 1.5955, 0.206177, 317.584, 0.00195312, -0.00195312, -0.00195312, -0.0537109, 0.323242, -9.80176, 1.10.2022 16:29:19.749
24, 1.58898, 0.208707, 317.584, 0.00195312, -0.00195312, -0.000976562, 0.0205078, 0.260742, -9.78125, 1.10.2022 16:29:19.757
25, 1.58898, 0.208707, 317.584, 0.00195312, -0.00195312, -0.000976562, -0.0576172, 0.301758, -9.7998, 1.10.2022 16:29:19.765
26, 1.58898, 0.208707, 317.584, 0.00292969, -0.000976562, -0.000976562, -0.0615234, 0.345703, -9.73438, 1.10.2022 16:29:19.773
27, 1.58898, 0.208707, 317.584, 0.00390625, -0.00195312, -0.000976562, 0.00683594, 0.291016, -9.77246, 1.10.2022 16:29:19.781
28, 1.58247, 0.211237, 317.584, 0.00195312, -0.00195312, -0.000976562, -0.0722656, 0.320312, -9.78027, 1.10.2022 16:29:19.789
29, 1.585, 0.217757, 317.584, 0.00195312, -0.00195312, -0.000976562, -0.0341797, 0.301758, -9.78809, 1.10.2022 16:29:19.797
30, 1.585, 0.217757, 317.584, 0.00195312, -0.000976562, 0, -0.0439453, 0.291992, -9.80078, 1.10.2022 16:29:19.805
31, 1.76048, 0.22472, 317.578, -0.000976562, -0.000976562, -0.00195312, -0.0771484, 0.318359, -9.79395, 1.10.2022 16:29:19.813
32, 1.79812, 0.22511, 317.578, 0, -0.000976562, 0, 0.00683594, 0.291016, -9.76855, 1.10.2022 16:29:19.821
33, 1.80464, 0.22258, 317.579, 0, -0.000976562, 0, -0.0175781, 0.304688, -9.82129, 1.10.2022 16:29:19.829
34, 1.80464, 0.22258, 317.579, -0.000976562, -0.000976562, 0, -0.0751953, 0.335938, -9.81543, 1.10.2022 16:29:19.837
35, 1.80464, 0.22258, 317.579, 0, -0.000976562, 0.000976562, 0.0224609, 0.305664, -9.83887, 1.10.2022 16:29:19.845
36, 1.80464, 0.22258, 317.579, 0, -0.000976562, 0, -0.0351562, 0.3125, -9.83496, 1.10.2022 16:29:19.853
37, 1.80211, 0.216061, 317.579, 0, 0, 0.000976562, -0.0507812, 0.308594, -9.77637, 1.10.2022 16:29:19.861
38, 1.80211, 0.216061, 317.579, 0.000976562, -0.000976562, 0.000976562, 0.0126953, 0.283203, -9.83203, 1.10.2022 16:29:19.869
39, 1.80211, 0.216061, 317.579, 0, -0.00195312, 0, -0.0742188, 0.301758, -9.7832, 1.10.2022 16:29:19.877
40, 1.80211, 0.216061, 317.579, 0.000976562, -0.000976562, 0, -0.0244141, 0.320312, -9.77637, 1.10.2022 16:29:19.885
41, 1.80211, 0.216061, 317.579, 0, 0, 0, -0.0175781, 0.294922, -9.7959, 1.10.2022 16:29:19.893
42, 1.79958, 0.209541, 317.579, 0, 0, 0, -0.0888672, 0.325195, -9.77246, 1.10.2022 16:29:19.901
43, 1.79958, 0.209541, 317.579, 0, -0.000976562, -0.00195312, -0.0439453, 0.301758, -9.80762, 1.10.2022 16:29:19.909
44, 1.79958, 0.209541, 317.579, 0, -0.000976562, 0, -0.0458984, 0.287109, -9.76953, 1.10.2022 16:29:19.917
45, 1.80211, 0.216061, 317.579, -0.000976562, 0, -0.000976562, -0.0878906, 0.322266, -9.74707, 1.10.2022 16:29:19.925
46, 1.80211, 0.216061, 317.579, 0, -0.000976562, -0.00195312, -0.00585938, 0.260742, -9.79004, 1.10.2022 16:29:19.933
47, 1.79559, 0.21859, 317.579, -0.000976562, 0, 0, -0.0634766, 0.3125, -9.82031, 1.10.2022 16:29:19.941
48, 1.79559, 0.21859, 317.579, -0.000976562, 0, 0, -0.0722656, 0.328125, -9.78223, 1.10.2022 16:29:19.947
49, 1.79559, 0.21859, 317.579, 0, -0.000976562, 0.000976562, 0.0185547, 0.295898, -9.76074, 1.10.2022 16:29:19.957
50, 1.79559, 0.21859, 317.579, 0, -0.000976562, 0.000976562, -0.0859375, 0.317383, -9.76367, 1.10.2022 16:29:19.963
51, 1.79559, 0.21859, 317.579, 0, 0, -0.00195312, -0.0605469, 0.335938, -9.82031, 1.10.2022 16:29:19.971
52, 1.79559, 0.21859, 317.579, -0.000976562, -0.000976562, 0, -0.0253906, 0.286133, -9.82227, 1.10.2022 16:29:19.979
53, 1.79559, 0.21859, 317.579, -0.000976562, 0, 0, -0.0654297, 0.34082, -9.8291, 1.10.2022 16:29:19.987
54, 1.79559, 0.21859, 317.579, -0.000976562, 0, 0, -0.0175781, 0.333008, -9.79297, 1.10.2022 16:29:19.995
55, 1.79812, 0.22511, 317.578, -0.000976562, -0.000976562, 0, -0.0234375, 0.30957, -9.73145, 1.10.2022 16:29:20.003
56, 1.79812, 0.22511, 317.578, -0.000976562, -0.00195312, 0.000976562, -0.0810547, 0.317383, -9.76367, 1.10.2022 16:29:20.011
57, 1.80464, 0.22258, 317.579, -0.000976562, -0.000976562, 0, 0.0117188, 0.306641, -9.78711, 1.10.2022 16:29:20.019
58, 1.80464, 0.22258, 317.579, -0.000976562, -0.000976562, 0, -0.0410156, 0.304688, -9.80762, 1.10.2022 16:29:20.027
59, 1.80464, 0.22258, 317.579, 0, 0, 0, -0.0771484, 0.290039, -9.7998, 1.10.2022 16:29:20.035
60, 1.80464, 0.22258, 317.579, -0.000976562, 0, 0, 0.0185547, 0.318359, -9.78418, 1.10.2022 16:29:20.043
61, 1.80464, 0.22258, 317.579, -0.00195312, -0.000976562, 0, -0.0703125, 0.319336, -9.82031, 1.10.2022 16:29:20.051
62, 1.80464, 0.22258, 317.579, -0.000976562, -0.00195312, 0, -0.0439453, 0.31543, -9.78809, 1.10.2022 16:29:20.059
63, 1.80464, 0.22258, 317.579, -0.000976562, -0.000976562, 0, 0.0253906, 0.298828, -9.77539, 1.10.2022 16:29:20.067
64, 1.80464, 0.22258, 317.579, -0.000976562, -0.00195312, -0.000976562, -0.0605469, 0.287109, -9.79297, 1.10.2022 16:29:20.075
65, 1.80464, 0.22258, 317.579, -0.000976562, -0.000976562, -0.000976562, -0.046875, 0.322266, -9.83008, 1.10.2022 16:29:20.083
66, 1.80464, 0.22258, 317.579, -0.000976562, -0.000976562, -0.000976562, -0.00585938, 0.299805, -9.8125, 1.10.2022 16:29:20.091
67, 1.80464, 0.22258, 317.579, -0.000976562, -0.000976562, -0.000976562, -0.104492, 0.322266, -9.75586, 1.10.2022 16:29:20.099
68, 1.80464, 0.22258, 317.579, -0.000976562, -0.000976562, -0.000976562, -0.00683594, 0.324219, -9.75293, 1.10.2022 16:29:20.107
69, 1.80464, 0.22258, 317.579, 0.000976562, 0, 0, -0.0390625, 0.301758, -9.80957, 1.10.2022 16:29:20.115
70, 1.80464, 0.22258, 317.579, 0, 0, -0.000976562, -0.0644531, 0.303711, -9.78809, 1.10.2022 16:29:20.123
71, 1.80464, 0.22258, 317.579, 0, 0, -0.000976562, -0.0078125, 0.279297, -9.77051, 1.10.2022 16:29:20.131
72, 1.80464, 0.22258, 317.579, 0, 0, 0.000976562, -0.0576172, 0.301758, -9.7832, 1.10.2022 16:29:20.139
73, 1.80464, 0.22258, 317.579, 0, 0, 0.000976562, -0.0820312, 0.342773, -9.8125, 1.10.2022 16:29:20.147
74, 1.80464, 0.22258, 317.579, -0.000976562, -0.000976562, -0.000976562, -0.00976562, 0.303711, -9.79395, 1.10.2022 16:29:20.155
75, 1.80464, 0.22258, 317.579, -0.000976562, -0.000976562, -0.00195312, -0.0693359, 0.334961, -9.79395, 1.10.2022 16:29:20.163
76, 1.80464, 0.22258, 317.579, -0.000976562, -0.000976562, -0.000976562, -0.00585938, 0.306641, -9.81738, 1.10.2022 16:29:20.171
77, 1.80464, 0.22258, 317.579, -0.000976562, -0.00195312, -0.000976562, -0.00585938, 0.285156, -9.8125, 1.10.2022 16:29:20.179
78, 1.80716, 0.2291, 317.579, 0, -0.000976562, -0.000976562, -0.112305, 0.296875, -9.77832, 1.10.2022 16:29:20.187
79, 1.80716, 0.2291, 317.579, 0, -0.000976562, -0.000976562, -0.0175781, 0.291992, -9.7793, 1.10.2022 16:29:20.195
80, 1.80716, 0.2291, 317.579, 0, 0, -0.000976562, -0.0146484, 0.306641, -9.78906, 1.10.2022 16:29:20.203
81, 1.80716, 0.2291, 317.579, -0.00195312, 0, -0.000976562, -0.0869141, 0.361328, -9.79785, 1.10.2022 16:29:20.211
82, 1.80716, 0.2291, 317.579, -0.000976562, -0.000976562, -0.000976562, 0.000976562, 0.31543, -9.84961, 1.10.2022 16:29:20.219
83, 1.80716, 0.2291, 317.579, -0.000976562, -0.000976562, -0.00195312, -0.0410156, 0.290039, -9.79297, 1.10.2022 16:29:20.227
84, 1.80716, 0.2291, 317.579, 0, -0.000976562, -0.000976562, -0.0791016, 0.289062, -9.78125, 1.10.2022 16:29:20.235
85, 1.80716, 0.2291, 317.579, 0, 0, 0.000976562, 0.0302734, 0.325195, -9.78613, 1.10.2022 16:29:20.243
86, 1.80716, 0.2291, 317.579, -0.000976562, 0, -0.000976562, -0.0625, 0.327148, -9.77539, 1.10.2022 16:29:20.251
87, 1.81368, 0.22657, 317.579, -0.000976562, 0, -0.000976562, -0.0458984, 0.333008, -9.79688, 1.10.2022 16:29:20.259
88, 1.81368, 0.22657, 317.579, -0.000976562, -0.000976562, -0.000976562, 0.00390625, 0.323242, -9.78125, 1.10.2022 16:29:20.267
89, 1.81368, 0.22657, 317.579, -0.000976562, -0.000976562, -0.000976562, -0.0957031, 0.329102, -9.75586, 1.10.2022 16:29:20.275
90, 1.81368, 0.22657, 317.579, -0.000976562, -0.000976562, -0.00195312, -0.03125, 0.300781, -9.77637, 1.10.2022 16:29:20.283
91, 1.81368, 0.22657, 317.579, -0.000976562, -0.00195312, -0.000976562, -0.0273438, 0.280273, -9.80078, 1.10.2022 16:29:20.291
92, 1.81368, 0.22657, 317.579, 0, -0.000976562, 0, -0.113281, 0.342773, -9.80469, 1.10.2022 16:29:20.299
93, 1.81368, 0.22657, 317.579, -0.000976562, -0.000976562, 0, -0.00488281, 0.313477, -9.78418, 1.10.2022 16:29:20.307
94, 1.81368, 0.22657, 317.579, 0, -0.000976562, -0.000976562, -0.0361328, 0.330078, -9.77539, 1.10.2022 16:29:20.315
95, 1.82273, 0.23056, 317.579, 0, 0, -0.000976562, -0.0576172, 0.333008, -9.80176, 1.10.2022 16:29:20.323
96, 1.8202, 0.22404, 317.579, -0.000976562, -0.000976562, -0.000976562, 0.0205078, 0.277344, -9.79688, 1.10.2022 16:29:20.331
97, 1.82273, 0.23056, 317.579, -0.000976562, -0.000976562, 0, -0.0791016, 0.30957, -9.80176, 1.10.2022 16:29:20.339
98, 1.82273, 0.23056, 317.579, -0.000976562, 0, -0.000976562, -0.0488281, 0.328125, -9.79688, 1.10.2022 16:29:20.347
99, 1.82273, 0.23056, 317.579, -0.00195312, -0.00195312, -0.000976562, 0.0283203, 0.303711, -9.79883, 1.10.2022 16:29:20.355
100, 1.82273, 0.23056, 317.579, -0.000976562, -0.00195312, -0.000976562, -0.0839844, 0.321289, -9.79395, 1.10.2022 16:29:20.363
101, 1.82273, 0.23056, 317.579, 0, -0.000976562, 0, -0.0458984, 0.320312, -9.79004, 1.10.2022 16:29:20.371
102, 1.82273, 0.23056, 317.579, -0.000976562, -0.000976562, -0.000976562, -0.00488281, 0.298828, -9.7627, 1.10.2022 16:29:20.379
103, 1.82273, 0.23056, 317.579, -0.000976562, -0.000976562, -0.000976562, -0.100586, 0.327148, -9.77441, 1.10.2022 16:29:20.387
104, 1.82273, 0.23056, 317.579, 0, 0, -0.000976562, -0.0341797, 0.282227, -9.78711, 1.10.2022 16:29:20.395
105, 1.82273, 0.23056, 317.579, -0.000976562, 0, -0.000976562, -0.0410156, 0.31543, -9.77832, 1.10.2022 16:29:20.403
106, 1.82273, 0.23056, 317.579, -0.000976562, -0.000976562, -0.000976562, -0.0810547, 0.332031, -9.75098, 1.10.2022 16:29:20.411
107, 1.82273, 0.23056, 317.579, -0.000976562, 0, -0.00195312, -0.000976562, 0.313477, -9.80078, 1.10.2022 16:29:20.419
108, 1.82924, 0.22803, 317.579, -0.00195312, -0.000976562, -0.000976562, -0.0517578, 0.300781, -9.82617, 1.10.2022 16:29:20.427
109, 1.82924, 0.22803, 317.579, -0.000976562, -0.000976562, 0, -0.0869141, 0.326172, -9.79688, 1.10.2022 16:29:20.435
110, 1.82924, 0.22803, 317.579, 0, 0, 0.000976562, 0.00195312, 0.269531, -9.75684, 1.10.2022 16:29:20.443
111, 1.82924, 0.22803, 317.579, -0.000976562, -0.000976562, -0.000976562, -0.0751953, 0.30957, -9.82031, 1.10.2022 16:29:20.451
112, 1.82924, 0.22803, 317.579, -0.00195312, -0.000976562, -0.000976562, -0.0332031, 0.291016, -9.76074, 1.10.2022 16:29:20.459
113, 1.82924, 0.22803, 317.579, 0, 0, -0.000976562, -0.0146484, 0.272461, -9.78027, 1.10.2022 16:29:20.467
114, 1.82924, 0.22803, 317.579, -0.000976562, -0.000976562, -0.000976562, -0.0986328, 0.337891, -9.7959, 1.10.2022 16:29:20.475
115, 1.82924, 0.22803, 317.579, 0, -0.000976562, -0.000976562, -0.0253906, 0.288086, -9.82422, 1.10.2022 16:29:20.483
116, 1.82924, 0.22803, 317.579, 0, -0.00195312, 0, -0.0292969, 0.296875, -9.80273, 1.10.2022 16:29:20.491
117, 1.82924, 0.22803, 317.579, -0.000976562, -0.000976562, -0.000976562, -0.09375, 0.323242, -9.77539, 1.10.2022 16:29:20.499
118, 1.82924, 0.22803, 317.579, 0, -0.000976562, -0.000976562, 0.0273438, 0.316406, -9.80566, 1.10.2022 16:29:20.507
119, 1.83177, 0.234549, 317.579, -0.000976562, -0.000976562, -0.000976562, -0.0205078, 0.321289, -9.81445, 1.10.2022 16:29:20.515
120, 1.83177, 0.234549, 317.579, -0.00195312, -0.000976562, -0.000976562, -0.0722656, 0.347656, -9.80273, 1.10.2022 16:29:20.523
121, 1.83177, 0.234549, 317.579, -0.00195312, 0, -0.000976562, 0.0117188, 0.298828, -9.76758, 1.10.2022 16:29:20.531
122, 1.83177, 0.234549, 317.579, -0.000976562, -0.000976562, -0.000976562, -0.0703125, 0.321289, -9.79688, 1.10.2022 16:29:20.539
123, 1.83177, 0.234549, 317.579, -0.000976562, -0.000976562, -0.000976562, -0.0380859, 0.317383, -9.77344, 1.10.2022 16:29:20.547
124, 1.83177, 0.234549, 317.579, -0.000976562, -0.000976562, -0.000976562, 0.0117188, 0.280273, -9.78711, 1.10.2022 16:29:20.555
125, 1.83177, 0.234549, 317.579, -0.00195312, -0.000976562, 0.000976562, -0.0888672, 0.337891, -9.8125, 1.10.2022 16:29:20.563
126, 1.83177, 0.234549, 317.579, 0, -0.00195312, -0.000976562, -0.0507812, 0.303711, -9.78613, 1.10.2022 16:29:20.571
127, 1.83177, 0.234549, 317.579, -0.000976562, -0.000976562, -0.000976562, -0.0195312, 0.27832, -9.80566, 1.10.2022 16:29:20.579
128, 1.83177, 0.234549, 317.579, -0.000976562, -0.00195312, -0.000976562, -0.119141, 0.344727, -9.7793, 1.10.2022 16:29:20.587
129, 1.83177, 0.234549, 317.579, -0.000976562, -0.000976562, -0.000976562, -0.00292969, 0.303711, -9.79395, 1.10.2022 16:29:20.595
130, 1.83177, 0.234549, 317.579, -0.000976562, -0.000976562, 0, -0.0224609, 0.313477, -9.78809, 1.10.2022 16:29:20.603
131, 1.83177, 0.234549, 317.579, 0, -0.000976562, -0.000976562, -0.0693359, 0.330078, -9.77734, 1.10.2022 16:29:20.611
132, 1.83177, 0.234549, 317.579, -0.000976562, -0.000976562, -0.000976562, -0.015625, 0.319336, -9.80957, 1.10.2022 16:29:20.619
133, 1.83177, 0.234549, 317.579, 0, 0, -0.000976562, -0.0771484, 0.3125, -9.81543, 1.10.2022 16:29:20.627
134, 1.83177, 0.234549, 317.579, 0, -0.000976562, -0.000976562, -0.0537109, 0.304688, -9.82617, 1.10.2022 16:29:20.635
135, 1.83177, 0.234549, 317.579, -0.000976562, -0.000976562, -0.000976562, 0.0253906, 0.316406, -9.7959, 1.10.2022 16:29:20.643
136, 1.83177, 0.234549, 317.579, -0.000976562, -0.00195312, -0.000976562, -0.0791016, 0.328125, -9.80859, 1.10.2022 16:29:20.651
137, 1.83177, 0.234549, 317.579, 0, -0.000976562, -0.00195312, -0.0292969, 0.299805, -9.79785, 1.10.2022 16:29:20.659
138, 1.83177, 0.234549, 317.579, -0.000976562, -0.00195312, 0, -0.0107422, 0.30957, -9.8291, 1.10.2022 16:29:20.667
139, 1.83177, 0.234549, 317.579, -0.000976562, -0.000976562, 0.00195312, -0.0820312, 0.322266, -9.82227, 1.10.2022 16:29:20.675
140, 1.82526, 0.237079, 317.579, -0.000976562, 0, -0.000976562, -0.00683594, 0.332031, -9.76172, 1.10.2022 16:29:20.683
141, 1.82273, 0.23056, 317.579, -0.000976562, -0.00195312, -0.000976562, -0.0146484, 0.303711, -9.78613, 1.10.2022 16:29:20.691
142, 1.82273, 0.23056, 317.579, -0.000976562, 0, 0, -0.0507812, 0.321289, -9.80176, 1.10.2022 16:29:20.699
143, 1.82273, 0.23056, 317.579, -0.000976562, 0, -0.000976562, 0.00878906, 0.291992, -9.79395, 1.10.2022 16:29:20.707
144, 1.82273, 0.23056, 317.579, -0.000976562, 0, -0.000976562, -0.0488281, 0.308594, -9.79785, 1.10.2022 16:29:20.715
145, 1.82273, 0.23056, 317.579, -0.000976562, 0, -0.000976562, -0.0507812, 0.333008, -9.79004, 1.10.2022 16:29:20.723
146, 1.82273, 0.23056, 317.579, -0.000976562, 0, -0.000976562, -0.0078125, 0.296875, -9.79883, 1.10.2022 16:29:20.731
147, 1.82273, 0.23056, 317.579, -0.000976562, 0, -0.000976562, -0.0605469, 0.31543, -9.78516, 1.10.2022 16:29:20.739
148, 1.82273, 0.23056, 317.579, 0, 0, 0, -0.0634766, 0.307617, -9.81348, 1.10.2022 16:29:20.747
149, 1.8202, 0.22404, 317.579, -0.000976562, 0, -0.000976562, 0.00683594, 0.297852, -9.74902, 1.10.2022 16:29:20.755
150, 1.8202, 0.22404, 317.579, -0.000976562, -0.00195312, -0.000976562, -0.0957031, 0.3125, -9.76367, 1.10.2022 16:29:20.763
151, 1.8202, 0.22404, 317.579, -0.000976562, 0, -0.000976562, -0.0195312, 0.31543, -9.77441, 1.10.2022 16:29:20.771
152, 1.8202, 0.22404, 317.579, -0.00195312, 0, -0.000976562, -0.0439453, 0.314453, -9.81641, 1.10.2022 16:29:20.779
153, 1.82273, 0.23056, 317.579, -0.000976562, 0.000976562, -0.000976562, -0.120117, 0.328125, -9.78418, 1.10.2022 16:29:20.787
154, 1.82273, 0.23056, 317.579, 0, 0, -0.00195312, -0.0078125, 0.306641, -9.7959, 1.10.2022 16:29:20.795
155, 1.82273, 0.23056, 317.579, -0.000976562, 0, -0.000976562, -0.0341797, 0.285156, -9.80762, 1.10.2022 16:29:20.803
156, 1.82273, 0.23056, 317.579, -0.000976562, -0.00195312, -0.000976562, -0.0683594, 0.30957, -9.7334, 1.10.2022 16:29:20.811
157, 1.81621, 0.233089, 317.579, 0, 0, 0, 0.0302734, 0.299805, -9.80566, 1.10.2022 16:29:20.819
158, 1.81621, 0.233089, 317.579, -0.00195312, 0, -0.000976562, -0.0703125, 0.318359, -9.80176, 1.10.2022 16:29:20.827
159, 1.81621, 0.233089, 317.579, -0.000976562, 0, -0.000976562, -0.0410156, 0.323242, -9.80176, 1.10.2022 16:29:20.835
160, 1.81621, 0.233089, 317.579, -0.000976562, 0, -0.00195312, 0.00683594, 0.325195, -9.78125, 1.10.2022 16:29:20.843
161, 1.81621, 0.233089, 317.579, -0.000976562, 0, -0.000976562, -0.0761719, 0.298828, -9.77148, 1.10.2022 16:29:20.851
162, 1.82273, 0.23056, 317.579, -0.000976562, 0.000976562, -0.000976562, -0.0244141, 0.303711, -9.77637, 1.10.2022 16:29:20.859
163, 1.82273, 0.23056, 317.579, -0.000976562, 0, -0.000976562, -0.00292969, 0.300781, -9.77734, 1.10.2022 16:29:20.867
164, 1.82273, 0.23056, 317.579, -0.000976562, -0.00195312, 0, -0.0771484, 0.336914, -9.7793, 1.10.2022 16:29:20.875
165, 1.8202, 0.22404, 317.579, -0.000976562, 0, -0.00195312, -0.00488281, 0.336914, -9.76465, 1.10.2022 16:29:20.883
166, 1.8202, 0.22404, 317.579, -0.000976562, 0, -0.00195312, -0.0283203, 0.310547, -9.75781, 1.10.2022 16:29:20.891
167, 1.8202, 0.22404, 317.579, 0, 0, -0.000976562, -0.0722656, 0.332031, -9.78027, 1.10.2022 16:29:20.899
168, 1.8202, 0.22404, 317.579, -0.000976562, -0.00195312, -0.00195312, 0.0117188, 0.279297, -9.78027, 1.10.2022 16:29:20.905
169, 1.8202, 0.22404, 317.579, -0.000976562, 0, -0.000976562, -0.0341797, 0.289062, -9.77734, 1.10.2022 16:29:20.913
170, 1.8202, 0.22404, 317.579, -0.000976562, 0, 0, -0.0800781, 0.338867, -9.83398, 1.10.2022 16:29:20.921
171, 1.8202, 0.22404, 317.579, 0, 0.000976562, -0.00195312, 0.0136719, 0.274414, -9.77148, 1.10.2022 16:29:20.929
172, 1.8202, 0.22404, 317.579, -0.000976562, 0, 0, -0.0458984, 0.321289, -9.80176, 1.10.2022 16:29:20.939
173, 1.8202, 0.22404, 317.579, -0.00195312, 0, 0, -0.0175781, 0.323242, -9.80957, 1.10.2022 16:29:20.945
174, 1.81767, 0.217521, 317.579, -0.000976562, 0, 0, 0.00683594, 0.289062, -9.75879, 1.10.2022 16:29:20.953
175, 1.81767, 0.217521, 317.579, -0.000976562, 0, -0.00195312, -0.0859375, 0.318359, -9.77344, 1.10.2022 16:29:20.961
176, 1.82419, 0.214991, 317.579, -0.000976562, 0, 0, -0.0175781, 0.325195, -9.79004, 1.10.2022 16:29:20.969
177, 1.82419, 0.214991, 317.579, -0.000976562, 0, 0, -0.0361328, 0.306641, -9.79785, 1.10.2022 16:29:20.977
178, 1.82419, 0.214991, 317.579, 0, 0.000976562, 0, -0.0839844, 0.344727, -9.79102, 1.10.2022 16:29:20.985
179, 1.82419, 0.214991, 317.579, -0.000976562, -0.00195312, -0.000976562, 0.0117188, 0.344727, -9.79004, 1.10.2022 16:29:20.993
180, 1.82419, 0.214991, 317.579, -0.000976562, 0, -0.00195312, -0.015625, 0.34082, -9.82812, 1.10.2022 16:29:21.001
181, 1.8243, 0.21509, 317.584, -0.000976562, 0, -0.00195312, -0.0537109, 0.314453, -9.81152, 1.10.2022 16:29:21.009
182, 1.82828, 0.206041, 317.584, -0.000976562, 0, 0, 0.0253906, 0.296875, -9.80176, 1.10.2022 16:29:21.017
183, 1.82828, 0.206041, 317.584, 0.000976562, 0, 0.000976562, -0.0458984, 0.30957, -9.81445, 1.10.2022 16:29:21.025
184, 1.82817, 0.205942, 317.579, 0, 0, 0, -0.0195312, 0.301758, -9.80078, 1.10.2022 16:29:21.033
185, 1.82817, 0.205942, 317.579, 0.000976562, 0, 0.000976562, -0.0175781, 0.293945, -9.78223, 1.10.2022 16:29:21.041
186, 1.82817, 0.205942, 317.579, -0.00195312, 0, 0, -0.0957031, 0.341797, -9.76953, 1.10.2022 16:29:21.049
187, 1.82817, 0.205942, 317.579, -0.000976562, 0, 0.000976562, -0.0166016, 0.307617, -9.74609, 1.10.2022 16:29:21.057
188, 1.82565, 0.199422, 317.579, -0.000976562, 0.000976562, 0, -0.00292969, 0.306641, -9.80762, 1.10.2022 16:29:21.065
189, 1.82565, 0.199422, 317.579, 0, 0, 0, -0.101562, 0.317383, -9.82227, 1.10.2022 16:29:21.073
190, 1.82565, 0.199422, 317.579, 0, -0.00195312, -0.000976562, 0.00683594, 0.316406, -9.80273, 1.10.2022 16:29:21.081
191, 1.83216, 0.196893, 317.579, -0.000976562, 0, 0, -0.0195312, 0.318359, -9.80469, 1.10.2022 16:29:21.089
192, 1.83216, 0.196893, 317.579, -0.000976562, 0.000976562, 0.000976562, -0.0439453, 0.318359, -9.79688, 1.10.2022 16:29:21.097
193, 1.83216, 0.196893, 317.579, -0.000976562, 0, 0.000976562, 0.00390625, 0.306641, -9.78906, 1.10.2022 16:29:21.105
194, 1.83216, 0.196893, 317.579, -0.000976562, 0, -0.00195312, -0.0429688, 0.308594, -9.77148, 1.10.2022 16:29:21.113
195, 1.83216, 0.196893, 317.579, -0.000976562, 0, 0, -0.0263672, 0.310547, -9.75977, 1.10.2022 16:29:21.121
196, 1.82963, 0.190373, 317.579, 0, 0, 0, 0.0302734, 0.276367, -9.82129, 1.10.2022 16:29:21.129
197, 1.82963, 0.190373, 317.579, 0, 0.000976562, 0, -0.0888672, 0.306641, -9.78516, 1.10.2022 16:29:21.137
198, 1.82963, 0.190373, 317.579, 0, 0, -0.00195312, -0.0625, 0.325195, -9.77344, 1.10.2022 16:29:21.145
199, 1.82963, 0.190373, 317.579, -0.000976562, 0, 0, -0.0273438, 0.304688, -9.82129, 1.10.2022 16:29:21.153
200, 1.82963, 0.190373, 317.579, -0.00195312, 0, 0, -0.112305, 0.328125, -9.7959, 1.10.2022 16:29:21.161
201, 1.82963, 0.190373, 317.579, -0.00195312, 0, 0, 0, 0.295898, -9.77246, 1.10.2022 16:29:21.169
202, 1.82963, 0.190373, 317.579, 0, 0, -0.00292969, -0.0224609, 0.300781, -9.8291, 1.10.2022 16:29:21.177
203, 1.82312, 0.192903, 317.579, 0, 0.000976562, -0.00195312, -0.0751953, 0.331055, -9.82715, 1.10.2022 16:29:21.185
204, 1.82312, 0.192903, 317.579, -0.000976562, -0.000976562, 0, 0.0117188, 0.310547, -9.78223, 1.10.2022 16:29:21.193
205, 1.82312, 0.192903, 317.579, 0, -0.000976562, 0, -0.0556641, 0.321289, -9.7998, 1.10.2022 16:29:21.201
206, 1.82312, 0.192903, 317.579, 0, -0.000976562, 0, -0.0556641, 0.366211, -9.78906, 1.10.2022 16:29:21.209
207, 1.82312, 0.192903, 317.579, -0.000976562, -0.000976562, 0, 0.0302734, 0.295898, -9.76855, 1.10.2022 16:29:21.217
208, 1.82963, 0.190373, 317.579, -0.000976562, -0.000976562, 0.000976562, -0.0673828, 0.303711, -9.79297, 1.10.2022 16:29:21.225
209, 1.82963, 0.190373, 317.579, -0.000976562, -0.000976562, -0.000976562, -0.0410156, 0.303711, -9.78613, 1.10.2022 16:29:21.233
210, 1.82963, 0.190373, 317.579, -0.000976562, -0.000976562, -0.000976562, -0.0126953, 0.287109, -9.78418, 1.10.2022 16:29:21.241
211, 1.83227, 0.196992, 317.584, -0.00195312, -0.000976562, -0.000976562, -0.108398, 0.326172, -9.80762, 1.10.2022 16:29:21.249
212, 1.82576, 0.199522, 317.584, -0.000976562, -0.000976562, 0, -0.0146484, 0.272461, -9.78516, 1.10.2022 16:29:21.257
213, 1.82576, 0.199522, 317.584, -0.000976562, -0.000976562, 0, -0.0126953, 0.285156, -9.80859, 1.10.2022 16:29:21.265
214, 1.82576, 0.199522, 317.584, -0.000976562, -0.00195312, 0.000976562, -0.0742188, 0.30957, -9.7998, 1.10.2022 16:29:21.273
215, 1.82565, 0.199422, 317.579, -0.000976562, -0.000976562, 0, 0.015625, 0.299805, -9.8291, 1.10.2022 16:29:21.281
216, 1.82565, 0.199422, 317.579, 0, -0.000976562, 0, -0.0478516, 0.298828, -9.78809, 1.10.2022 16:29:21.289
217, 1.81913, 0.201952, 317.579, -0.000976562, 0, 0, -0.0654297, 0.306641, -9.79492, 1.10.2022 16:29:21.297
218, 1.81913, 0.201952, 317.579, -0.00195312, 0, 0, -0.00585938, 0.302734, -9.81738, 1.10.2022 16:29:21.305
219, 1.81913, 0.201952, 317.579, -0.000976562, 0, 0, -0.0625, 0.337891, -9.79199, 1.10.2022 16:29:21.313
220, 1.81913, 0.201952, 317.579, 0, 0, 0, -0.0576172, 0.303711, -9.78613, 1.10.2022 16:29:21.321
221, 1.8166, 0.195433, 317.579, 0, 0.000976562, -0.000976562, 0.0214844, 0.274414, -9.77832, 1.10.2022 16:29:21.329
222, 1.81671, 0.195532, 317.584, -0.000976562, 0, 0, -0.0820312, 0.307617, -9.82031, 1.10.2022 16:29:21.337
223, 1.81019, 0.198061, 317.584, -0.000976562, -0.000976562, 0, -0.0244141, 0.321289, -9.81152, 1.10.2022 16:29:21.345
224, 1.81008, 0.197962, 317.579, 0, -0.000976562, 0, -0.00292969, 0.306641, -9.80566, 1.10.2022 16:29:21.353
225, 1.81008, 0.197962, 317.579, 0.000976562, -0.00195312, 0, -0.0644531, 0.318359, -9.77832, 1.10.2022 16:29:21.361
226, 1.81008, 0.197962, 317.579, 0, -0.00195312, 0, 0.0273438, 0.317383, -9.8291, 1.10.2022 16:29:21.369
227, 1.81019, 0.198061, 317.584, -0.000976562, -0.00195312, -0.00195312, -0.0341797, 0.296875, -9.79102, 1.10.2022 16:29:21.377
228, 1.81019, 0.198061, 317.584, -0.000976562, -0.00195312, 0, -0.09375, 0.298828, -9.77344, 1.10.2022 16:29:21.385
229, 1.81019, 0.198061, 317.584, -0.000976562, -0.000976562, -0.000976562, 0.0166016, 0.301758, -9.78418, 1.10.2022 16:29:21.393
230, 1.81019, 0.198061, 317.584, -0.000976562, -0.000976562, 0, -0.0478516, 0.325195, -9.78027, 1.10.2022 16:29:21.401
231, 1.81019, 0.198061, 317.584, 0, 0, 0, -0.0380859, 0.341797, -9.76172, 1.10.2022 16:29:21.409
232, 1.81019, 0.198061, 317.584, -0.000976562, -0.000976562, 0, -0.0224609, 0.319336, -9.81934, 1.10.2022 16:29:21.417
233, 1.81019, 0.198061, 317.584, -0.000976562, -0.000976562, 0, -0.0839844, 0.354492, -9.78125, 1.10.2022 16:29:21.425
234, 1.81019, 0.198061, 317.584, 0, -0.000976562, 0, -0.0332031, 0.325195, -9.76855, 1.10.2022 16:29:21.433
235, 1.81019, 0.198061, 317.584, 0, 0, 0, -0.0224609, 0.293945, -9.78613, 1.10.2022 16:29:21.441
236, 1.81019, 0.198061, 317.584, 0, 0, 0, -0.105469, 0.332031, -9.76562, 1.10.2022 16:29:21.449
237, 1.81272, 0.20458, 317.584, -0.000976562, 0, 0, -0.0263672, 0.31543, -9.78613, 1.10.2022 16:29:21.457
238, 1.81272, 0.20458, 317.584, -0.000976562, 0, -0.000976562, -0.0244141, 0.316406, -9.79492, 1.10.2022 16:29:21.465
239, 1.81924, 0.202051, 317.584, -0.000976562, -0.000976562, 0.000976562, -0.0654297, 0.321289, -9.79199, 1.10.2022 16:29:21.473
240, 1.81924, 0.202051, 317.584, -0.000976562, -0.000976562, 0, 0.0302734, 0.290039, -9.79688, 1.10.2022 16:29:21.481
241, 1.81924, 0.202051, 317.584, -0.000976562, 0, 0, -0.0517578, 0.291016, -9.84082, 1.10.2022 16:29:21.489
242, 1.81924, 0.202051, 317.584, -0.000976562, -0.000976562, 0, -0.0673828, 0.318359, -9.80371, 1.10.2022 16:29:21.497
243, 1.81924, 0.202051, 317.584, -0.000976562, -0.00195312, 0, 0.0214844, 0.302734, -9.75586, 1.10.2022 16:29:21.505
244, 1.81924, 0.202051, 317.584, -0.000976562, -0.000976562, 0, -0.0341797, 0.318359, -9.78809, 1.10.2022 16:29:21.513
245, 1.81924, 0.202051, 317.584, 0, -0.00195312, -0.00195312, -0.0410156, 0.330078, -9.79199, 1.10.2022 16:29:21.521
246, 1.81924, 0.202051, 317.584, -0.000976562, -0.000976562, 0, -0.0175781, 0.28125, -9.81543, 1.10.2022 16:29:21.529
247, 1.81924, 0.202051, 317.584, -0.000976562, -0.000976562, 0, -0.0966797, 0.311523, -9.81348, 1.10.2022 16:29:21.537
248, 1.81924, 0.202051, 317.584, 0, -0.000976562, 0, -0.0351562, 0.295898, -9.8457, 1.10.2022 16:29:21.545
249, 1.81924, 0.202051, 317.584, 0, -0.000976562, 0, -0.00390625, 0.288086, -9.82031, 1.10.2022 16:29:21.553
250, 1.81924, 0.202051, 317.584, 0, -0.000976562, 0, -0.0625, 0.327148, -9.77051, 1.10.2022 16:29:21.561
251, 1.81924, 0.202051, 317.584, -0.000976562, -0.00195312, 0, 0.00390625, 0.299805, -9.80371, 1.10.2022 16:29:21.569
252, 1.81272, 0.20458, 317.584, 0, -0.000976562, 0, -0.0166016, 0.303711, -9.76758, 1.10.2022 16:29:21.577
253, 1.81272, 0.20458, 317.584, -0.000976562, -0.00195312, 0, -0.0712891, 0.3125, -9.74512, 1.10.2022 16:29:21.585
254, 1.81261, 0.204482, 317.579, -0.000976562, -0.000976562, 0, 0.0273438, 0.258789, -9.81934, 1.10.2022 16:29:21.593
255, 1.81261, 0.204482, 317.579, -0.000976562, 0, 0, -0.0615234, 0.293945, -9.84766, 1.10.2022 16:29:21.601
256, 1.81261, 0.204482, 317.579, -0.000976562, -0.000976562, 0, -0.0429688, 0.295898, -9.76758, 1.10.2022 16:29:21.609
257, 1.81261, 0.204482, 317.579, -0.000976562, -0.000976562, 0, -0.0107422, 0.294922, -9.81738, 1.10.2022 16:29:21.617
258, 1.81261, 0.204482, 317.579, 0, -0.000976562, 0, -0.0800781, 0.345703, -9.81738, 1.10.2022 16:29:21.625
259, 1.8061, 0.207012, 317.579, 0, -0.00195312, 0, -0.0488281, 0.326172, -9.81348, 1.10.2022 16:29:21.633
260, 1.8061, 0.207012, 317.579, 0, -0.000976562, 0, -0.0146484, 0.293945, -9.7793, 1.10.2022 16:29:21.641
261, 1.8061, 0.207012, 317.579, 0, -0.000976562, 0, -0.110352, 0.319336, -9.81738, 1.10.2022 16:29:21.649
262, 1.8061, 0.207012, 317.579, -0.000976562, -0.000976562, -0.000976562, -0.0341797, 0.290039, -9.81934, 1.10.2022 16:29:21.657
263, 1.8061, 0.207012, 317.579, -0.000976562, -0.000976562, 0, -0.0126953, 0.316406, -9.79785, 1.10.2022 16:29:21.665
264, 1.8061, 0.207012, 317.579, -0.000976562, -0.000976562, 0, -0.0654297, 0.331055, -9.80566, 1.10.2022 16:29:21.673
265, 1.8061, 0.207012, 317.579, -0.000976562, -0.000976562, 0, 0.000976562, 0.28125, -9.81836, 1.10.2022 16:29:21.681
266, 1.79958, 0.209541, 317.579, -0.000976562, -0.00195312, 0, -0.0654297, 0.270508, -9.80078, 1.10.2022 16:29:21.689
267, 1.79958, 0.209541, 317.579, -0.000976562, -0.000976562, 0, -0.0820312, 0.291992, -9.78809, 1.10.2022 16:29:21.697
268, 1.79958, 0.209541, 317.579, -0.000976562, 0, 0, 0.000976562, 0.292969, -9.81055, 1.10.2022 16:29:21.705
269, 1.80211, 0.216061, 317.579, 0, 0, -0.00195312, -0.0908203, 0.320312, -9.76074, 1.10.2022 16:29:21.713
270, 1.7957, 0.218688, 317.583, -0.000976562, 0, 0, -0.0576172, 0.333008, -9.80859, 1.10.2022 16:29:21.721
271, 1.7957, 0.218688, 317.583, 0, -0.00195312, 0, -0.0078125, 0.287109, -9.79395, 1.10.2022 16:29:21.729
272, 1.7957, 0.218688, 317.583, 0.000976562, 0, 0, -0.103516, 0.303711, -9.78711, 1.10.2022 16:29:21.737
273, 1.7957, 0.218688, 317.583, 0, -0.00195312, 0, -0.0195312, 0.303711, -9.78906, 1.10.2022 16:29:21.745
274, 1.78918, 0.221217, 317.583, 0, 0, 0, -0.0107422, 0.283203, -9.81055, 1.10.2022 16:29:21.753
275, 1.78918, 0.221217, 317.583, -0.000976562, 0.000976562, 0, -0.0703125, 0.342773, -9.81543, 1.10.2022 16:29:21.761
276, 1.78918, 0.221217, 317.583, -0.000976562, 0.000976562, 0, -0.00488281, 0.303711, -9.78906, 1.10.2022 16:29:21.769
277, 1.78918, 0.221217, 317.583, 0, 0, 0, -0.0292969, 0.298828, -9.76953, 1.10.2022 16:29:21.777
278, 1.7916, 0.22764, 317.578, -0.000976562, 0.000976562, 0.000976562, -0.0742188, 0.320312, -9.77539, 1.10.2022 16:29:21.785
279, 1.78907, 0.22112, 317.578, -0.000976562, 0, 0.000976562, 0.0185547, 0.273438, -9.80664, 1.10.2022 16:29:21.793
280, 1.78907, 0.22112, 317.578, -0.000976562, -0.00195312, 0, -0.0478516, 0.320312, -9.77344, 1.10.2022 16:29:21.801
281, 1.7916, 0.22764, 317.578, -0.000976562, 0.000976562, -0.000976562, -0.0820312, 0.313477, -9.79004, 1.10.2022 16:29:21.809
282, 1.7916, 0.22764, 317.578, -0.000976562, 0, 0, -0.00976562, 0.306641, -9.78906, 1.10.2022 16:29:21.817
283, 1.7916, 0.22764, 317.578, -0.00195312, -0.00195312, 0, -0.0742188, 0.310547, -9.77539, 1.10.2022 16:29:21.825
284, 1.7916, 0.22764, 317.578, -0.000976562, -0.00195312, 0.000976562, -0.0244141, 0.325195, -9.79297, 1.10.2022 16:29:21.833
285, 1.7916, 0.22764, 317.578, 0, 0, 0, -0.0224609, 0.288086, -9.83105, 1.10.2022 16:29:21.841
286, 1.7916, 0.22764, 317.578, -0.000976562, 0, 0, -0.0810547, 0.330078, -9.77734, 1.10.2022 16:29:21.849
287, 1.7916, 0.22764, 317.578, -0.000976562, 0, 0, -0.0146484, 0.302734, -9.74902, 1.10.2022 16:29:21.857
288, 1.7916, 0.22764, 317.578, -0.000976562, 0.000976562, 0.000976562, -0.0556641, 0.296875, -9.79492, 1.10.2022 16:29:21.865
289, 1.7916, 0.22764, 317.578, 0, 0, 0.000976562, -0.0810547, 0.327148, -9.76074, 1.10.2022 16:29:21.873
290, 1.7916, 0.22764, 317.578, -0.000976562, 0, 0, 0.00195312, 0.310547, -9.78418, 1.10.2022 16:29:21.881
291, 1.7916, 0.22764, 317.578, -0.000976562, 0, 0, -0.0576172, 0.308594, -9.78125, 1.10.2022 16:29:21.887
292, 1.79413, 0.234159, 317.578, 0, 0.000976562, 0, -0.0654297, 0.335938, -9.80371, 1.10.2022 16:29:21.895
293, 1.79413, 0.234159, 317.578, -0.000976562, 0.000976562, 0, 0.0185547, 0.308594, -9.7959, 1.10.2022 16:29:21.903
294, 1.79413, 0.234159, 317.578, -0.000976562, 0, -0.00195312, -0.0751953, 0.30957, -9.80664, 1.10.2022 16:29:21.911
295, 1.80065, 0.231629, 317.578, -0.000976562, 0, 0, -0.0341797, 0.314453, -9.82617, 1.10.2022 16:29:21.919
296, 1.80065, 0.231629, 317.578, -0.000976562, -0.00195312, 0, -0.0332031, 0.304688, -9.74316, 1.10.2022 16:29:21.927
297, 1.80065, 0.231629, 317.578, 0, 0, 0, -0.112305, 0.311523, -9.79395, 1.10.2022 16:29:21.935
298, 1.80065, 0.231629, 317.578, 0, 0, 0, -0.0078125, 0.34668, -9.79492, 1.10.2022 16:29:21.943
299, 1.80065, 0.231629, 317.578, -0.000976562, 0, 0, -0.0244141, 0.303711, -9.7959, 1.10.2022 16:29:21.951
300, 1.80318, 0.238149, 317.578, -0.000976562, -0.00195312, -0.000976562, -0.0839844, 0.326172, -9.80078, 1.10.2022 16:29:21.959
301, 1.80318, 0.238149, 317.578, -0.000976562, 0, -0.00195312, 0.00976562, 0.295898, -9.75195, 1.10.2022 16:29:21.967
302, 1.80318, 0.238149, 317.578, 0, -0.00195312, -0.000976562, -0.0341797, 0.316406, -9.81641, 1.10.2022 16:29:21.975
303, 1.80318, 0.238149, 317.578, -0.00195312, 0, -0.000976562, -0.0576172, 0.328125, -9.79199, 1.10.2022 16:29:21.983
304, 1.80969, 0.235619, 317.578, -0.000976562, 0.000976562, -0.000976562, 0.00683594, 0.293945, -9.79199, 1.10.2022 16:29:21.991
305, 1.80969, 0.235619, 317.578, -0.000976562, -0.000976562, 0.000976562, -0.0888672, 0.316406, -9.80371, 1.10.2022 16:29:21.999
306, 1.80969, 0.235619, 317.578, -0.000976562, 0, -0.000976562, -0.0361328, 0.301758, -9.78125, 1.10.2022 16:29:22.007
307, 1.80969, 0.235619, 317.578, -0.000976562, 0, -0.000976562, -0.0185547, 0.291016, -9.75098, 1.10.2022 16:29:22.015
308, 1.80969, 0.235619, 317.578, -0.000976562, 0.000976562, -0.000976562, -0.0810547, 0.336914, -9.76758, 1.10.2022 16:29:22.023
309, 1.80969, 0.235619, 317.578, -0.000976562, 0.000976562, -0.000976562, -0.0273438, 0.313477, -9.79297, 1.10.2022 16:29:22.031
310, 1.80969, 0.235619, 317.578, 0, 0.000976562, 0.000976562, -0.0273438, 0.329102, -9.83008, 1.10.2022 16:29:22.039
311, 1.81621, 0.233089, 317.579, -0.000976562, 0, -0.000976562, -0.0712891, 0.34082, -9.74414, 1.10.2022 16:29:22.047
312, 1.81621, 0.233089, 317.579, -0.000976562, -0.00195312, -0.000976562, -0.00292969, 0.305664, -9.76953, 1.10.2022 16:29:22.055
313, 1.81621, 0.233089, 317.579, -0.000976562, 0, -0.000976562, -0.0175781, 0.293945, -9.7793, 1.10.2022 16:29:22.063
314, 1.81621, 0.233089, 317.579, 0, 0.000976562, -0.000976562, -0.0820312, 0.330078, -9.78906, 1.10.2022 16:29:22.071
315, 1.81621, 0.233089, 317.579, -0.000976562, -0.000976562, 0.000976562, 0.0205078, 0.308594, -9.80371, 1.10.2022 16:29:22.079
316, 1.82273, 0.23056, 317.579, 0, -0.000976562, -0.000976562, -0.0644531, 0.318359, -9.77539, 1.10.2022 16:29:22.087
317, 1.82273, 0.23056, 317.579, -0.000976562, 0, -0.000976562, -0.0742188, 0.308594, -9.77832, 1.10.2022 16:29:22.095
318, 1.82273, 0.23056, 317.579, -0.000976562, 0, -0.000976562, -0.0078125, 0.291992, -9.78223, 1.10.2022 16:29:22.103
319, 1.82273, 0.23056, 317.579, 0, -0.000976562, -0.000976562, -0.0605469, 0.301758, -9.7832, 1.10.2022 16:29:22.111
320, 1.82273, 0.23056, 317.579, 0, -0.000976562, -0.000976562, -0.0224609, 0.306641, -9.8125, 1.10.2022 16:29:22.119
321, 1.82273, 0.23056, 317.579, 0, -0.00195312, -0.000976562, -0.00292969, 0.311523, -9.79102, 1.10.2022 16:29:22.127
322, 1.82273, 0.23056, 317.579, -0.000976562, 0, -0.000976562, -0.0917969, 0.332031, -9.84082, 1.10.2022 16:29:22.135
323, 1.82273, 0.23056, 317.579, -0.000976562, 0.000976562, -0.000976562, -0.0175781, 0.316406, -9.79492, 1.10.2022 16:29:22.143
324, 1.82273, 0.23056, 317.579, 0, -0.000976562, -0.000976562, -0.0175781, 0.292969, -9.80762, 1.10.2022 16:29:22.151
325, 1.82273, 0.23056, 317.579, 0, -0.000976562, -0.000976562, -0.0859375, 0.332031, -9.77246, 1.10.2022 16:29:22.159
326, 1.82273, 0.23056, 317.579, -0.000976562, 0, -0.000976562, 0.00683594, 0.28418, -9.78027, 1.10.2022 16:29:22.167
327, 1.82273, 0.23056, 317.579, 0, -0.00195312, 0, -0.0478516, 0.285156, -9.78906, 1.10.2022 16:29:22.175
328, 1.82273, 0.23056, 317.579, 0, -0.000976562, -0.000976562, -0.0390625, 0.318359, -9.7998, 1.10.2022 16:29:22.183
329, 1.8202, 0.22404, 317.579, 0.000976562, 0, -0.00195312, 0.0136719, 0.304688, -9.81738, 1.10.2022 16:29:22.191
330, 1.8202, 0.22404, 317.579, 0, 0, -0.00195312, -0.0673828, 0.308594, -9.7832, 1.10.2022 16:29:22.199
331, 1.81368, 0.22657, 317.579, 0, 0.000976562, -0.000976562, -0.0410156, 0.311523, -9.79297, 1.10.2022 16:29:22.207
332, 1.81368, 0.22657, 317.579, 0, -0.000976562, -0.00195312, -0.0146484, 0.310547, -9.78125, 1.10.2022 16:29:22.215
333, 1.81368, 0.22657, 317.579, -0.000976562, -0.000976562, 0, -0.0947266, 0.345703, -9.74414, 1.10.2022 16:29:22.223
334, 1.8202, 0.22404, 317.579, -0.000976562, -0.000976562, 0, -0.0126953, 0.303711, -9.78906, 1.10.2022 16:29:22.231
335, 1.8202, 0.22404, 317.579, -0.000976562, -0.000976562, -0.00195312, -0.03125, 0.306641, -9.79785, 1.10.2022 16:29:22.239
336, 1.8202, 0.22404, 317.579, -0.000976562, -0.000976562, -0.00195312, -0.0986328, 0.329102, -9.81738, 1.10.2022 16:29:22.247
337, 1.82031, 0.224139, 317.584, -0.000976562, -0.000976562, 0, 0.0117188, 0.323242, -9.7959, 1.10.2022 16:29:22.255
338, 1.82031, 0.224139, 317.584, 0, -0.000976562, -0.000976562, -0.046875, 0.28418, -9.85742, 1.10.2022 16:29:22.263
339, 1.82031, 0.224139, 317.584, 0, 0, 0, -0.0625, 0.308594, -9.79688, 1.10.2022 16:29:22.271
340, 1.82031, 0.224139, 317.584, 0, -0.000976562, -0.000976562, 0.015625, 0.301758, -9.79199, 1.10.2022 16:29:22.279
341, 1.82031, 0.224139, 317.584, -0.000976562, -0.000976562, 0, -0.0478516, 0.347656, -9.79395, 1.10.2022 16:29:22.287
342, 1.82031, 0.224139, 317.584, 0, -0.000976562, -0.00195312, -0.0458984, 0.323242, -9.77832, 1.10.2022 16:29:22.295
343, 1.82031, 0.224139, 317.584, 0, -0.000976562, -0.000976562, 0.0117188, 0.300781, -9.78223, 1.10.2022 16:29:22.303
344, 1.81778, 0.217619, 317.584, 0, 0, 0, -0.0820312, 0.308594, -9.79688, 1.10.2022 16:29:22.311
345, 1.81778, 0.217619, 317.584, -0.000976562, -0.000976562, -0.00195312, -0.0214844, 0.298828, -9.77246, 1.10.2022 16:29:22.319
346, 1.81778, 0.217619, 317.584, -0.000976562, 0, 0, -0.0195312, 0.294922, -9.80078, 1.10.2022 16:29:22.327
347, 1.81778, 0.217619, 317.584, -0.000976562, -0.00195312, -0.000976562, -0.0966797, 0.342773, -9.80762, 1.10.2022 16:29:22.335
348, 1.81778, 0.217619, 317.584, -0.000976562, -0.000976562, 0, -0.0166016, 0.329102, -9.75684, 1.10.2022 16:29:22.343
349, 1.81778, 0.217619, 317.584, -0.000976562, -0.000976562, 0, -0.0390625, 0.314453, -9.82812, 1.10.2022 16:29:22.351
350, 1.82031, 0.224139, 317.584, -0.00195312, -0.000976562, 0, -0.0722656, 0.299805, -9.79688, 1.10.2022 16:29:22.359
351, 1.82682, 0.221609, 317.584, -0.000976562, -0.000976562, 0, -0.0107422, 0.306641, -9.79785, 1.10.2022 16:29:22.367
352, 1.82682, 0.221609, 317.584, 0, -0.000976562, -0.00195312, -0.0507812, 0.304688, -9.80273, 1.10.2022 16:29:22.375
353, 1.82682, 0.221609, 317.584, -0.000976562, -0.000976562, 0, -0.0556641, 0.30957, -9.80176, 1.10.2022 16:29:22.383
354, 1.82682, 0.221609, 317.584, -0.00195312, 0, 0, 0.00878906, 0.280273, -9.79004, 1.10.2022 16:29:22.391
355, 1.82682, 0.221609, 317.584, -0.000976562, -0.000976562, 0.000976562, -0.0908203, 0.325195, -9.78711, 1.10.2022 16:29:22.399
356, 1.82031, 0.224139, 317.584, 0.000976562, -0.000976562, -0.000976562, -0.0390625, 0.316406, -9.79297, 1.10.2022 16:29:22.407
357, 1.82031, 0.224139, 317.584, 0, -0.00195312, -0.000976562, 0.0117188, 0.327148, -9.78125, 1.10.2022 16:29:22.415
358, 1.82031, 0.224139, 317.584, -0.000976562, -0.000976562, 0, -0.0771484, 0.305664, -9.82812, 1.10.2022 16:29:22.423
359, 1.82031, 0.224139, 317.584, -0.000976562, -0.000976562, 0, -0.0429688, 0.320312, -9.78516, 1.10.2022 16:29:22.431
360, 1.82031, 0.224139, 317.584, 0, -0.000976562, -0.000976562, -0.0273438, 0.283203, -9.80371, 1.10.2022 16:29:22.439
361, 1.82031, 0.224139, 317.584, 0, -0.000976562, 0.000976562, -0.0722656, 0.339844, -9.79883, 1.10.2022 16:29:22.447
362, 1.82031, 0.224139, 317.584, -0.000976562, -0.000976562, 0, 0.0107422, 0.313477, -9.80078, 1.10.2022 16:29:22.455
363, 1.82031, 0.224139, 317.584, -0.000976562, -0.000976562, -0.00195312, -0.0410156, 0.301758, -9.80957, 1.10.2022 16:29:22.463
364, 1.82031, 0.224139, 317.584, -0.000976562, -0.000976562, -0.000976562, -0.0605469, 0.314453, -9.81152, 1.10.2022 16:29:22.471
365, 1.82031, 0.224139, 317.584, -0.000976562, -0.00195312, 0, -0.000976562, 0.299805, -9.80566, 1.10.2022 16:29:22.479
366, 1.82031, 0.224139, 317.584, -0.000976562, -0.00292969, -0.00195312, -0.0585938, 0.319336, -9.82031, 1.10.2022 16:29:22.487
367, 1.82031, 0.224139, 317.584, -0.000976562, -0.000976562, 0, -0.0556641, 0.325195, -9.79199, 1.10.2022 16:29:22.495
368, 1.82031, 0.224139, 317.584, -0.000976562, -0.000976562, 0, -0.00292969, 0.293945, -9.77734, 1.10.2022 16:29:22.503
369, 1.82031, 0.224139, 317.584, 0, -0.000976562, 0, -0.0820312, 0.326172, -9.81055, 1.10.2022 16:29:22.511
370, 1.82031, 0.224139, 317.584, -0.000976562, -0.000976562, -0.000976562, -0.0410156, 0.325195, -9.79492, 1.10.2022 16:29:22.519
371, 1.82031, 0.224139, 317.584, -0.000976562, -0.00195312, 0, -0.0371094, 0.283203, -9.81934, 1.10.2022 16:29:22.527
372, 1.82031, 0.224139, 317.584, -0.000976562, -0.000976562, 0, -0.09375, 0.311523, -9.79688, 1.10.2022 16:29:22.535
373, 1.82031, 0.224139, 317.584, -0.000976562, -0.000976562, -0.000976562, -0.00585938, 0.285156, -9.81738, 1.10.2022 16:29:22.543
374, 1.82283, 0.230658, 317.583, -0.000976562, -0.000976562, 0, -0.0322266, 0.290039, -9.79785, 1.10.2022 16:29:22.551
375, 1.82283, 0.230658, 317.583, 0, 0.000976562, 0, -0.0751953, 0.319336, -9.82227, 1.10.2022 16:29:22.559
376, 1.82031, 0.224139, 317.584, -0.000976562, 0.000976562, 0, 0.0166016, 0.31543, -9.7627, 1.10.2022 16:29:22.567
377, 1.82031, 0.224139, 317.584, -0.000976562, -0.000976562, 0, -0.0390625, 0.313477, -9.79297, 1.10.2022 16:29:22.575
378, 1.82031, 0.224139, 317.584, -0.000976562, -0.000976562, 0, -0.0605469, 0.301758, -9.7832, 1.10.2022 16:29:22.583
379, 1.81379, 0.226668, 317.583, -0.000976562, -0.000976562, 0, 0.00878906, 0.258789, -9.81348, 1.10.2022 16:29:22.591
380, 1.81379, 0.226668, 317.583, -0.00195312, -0.000976562, 0, -0.0830078, 0.301758, -9.71484, 1.10.2022 16:29:22.599
381, 1.81379, 0.226668, 317.583, -0.00195312, 0.000976562, -0.000976562, -0.0478516, 0.296875, -9.7793, 1.10.2022 16:29:22.607
382, 1.81347, 0.226721, 317.59, -0.000976562, -0.000976562, -0.000976562, 0.00488281, 0.305664, -9.75781, 1.10.2022 16:29:22.615
383, 1.81347, 0.226721, 317.59, 0, 0.000976562, 0, -0.0957031, 0.342773, -9.80078, 1.10.2022 16:29:22.623
384, 1.81347, 0.226721, 317.59, -0.000976562, -0.000976562, 0, -0.0273438, 0.296875, -9.79297, 1.10.2022 16:29:22.631
385, 1.81347, 0.226721, 317.59, 0, -0.000976562, 0, -0.03125, 0.275391, -9.79199, 1.10.2022 16:29:22.639
386, 1.80696, 0.22925, 317.59, -0.000976562, -0.000976562, 0, -0.0957031, 0.334961, -9.76562, 1.10.2022 16:29:22.647
387, 1.80696, 0.22925, 317.59, -0.000976562, -0.00195312, 0, 0.0224609, 0.321289, -9.81055, 1.10.2022 16:29:22.655
388, 1.80696, 0.22925, 317.59, -0.000976562, -0.000976562, 0, -0.0292969, 0.297852, -9.8125, 1.10.2022 16:29:22.663
389, 1.80696, 0.22925, 317.59, -0.00195312, -0.000976562, 0, -0.0654297, 0.314453, -9.8252, 1.10.2022 16:29:22.671
390, 1.80696, 0.22925, 317.59, -0.000976562, 0.000976562, 0, 0.0234375, 0.301758, -9.80371, 1.10.2022 16:29:22.679
391, 1.80696, 0.22925, 317.59, -0.000976562, -0.000976562, -0.000976562, -0.0605469, 0.311523, -9.78809, 1.10.2022 16:29:22.687
392, 1.80696, 0.22925, 317.59, -0.000976562, -0.00195312, 0, -0.0429688, 0.31543, -9.77148, 1.10.2022 16:29:22.695
393, 1.80443, 0.22273, 317.59, 0, -0.000976562, 0.000976562, -0.000976562, 0.306641, -9.80762, 1.10.2022 16:29:22.703
394, 1.80474, 0.222678, 317.583, 0, -0.000976562, 0, -0.0888672, 0.311523, -9.81055, 1.10.2022 16:29:22.711
395, 1.80443, 0.22273, 317.59, 0, -0.000976562, -0.000976562, -0.0175781, 0.342773, -9.79688, 1.10.2022 16:29:22.719
396, 1.80443, 0.22273, 317.59, -0.000976562, 0.000976562, -0.000976562, 0.000976562, 0.301758, -9.8125, 1.10.2022 16:29:22.727
397, 1.80443, 0.22273, 317.59, -0.000976562, 0.000976562, 0, -0.0888672, 0.31543, -9.77539, 1.10.2022 16:29:22.735
398, 1.80443, 0.22273, 317.59, -0.000976562, 0.000976562, -0.000976562, 0.0166016, 0.310547, -9.76562, 1.10.2022 16:29:22.743
399, 1.81095, 0.220201, 317.59, -0.000976562, -0.000976562, 0, -0.0166016, 0.318359, -9.77637, 1.10.2022 16:29:22.751
400, 1.81095, 0.220201, 317.59, -0.000976562, -0.000976562, 0.000976562, -0.0683594, 0.331055, -9.74023, 1.10.2022 16:29:22.759
401, 1.80873, 0.213629, 317.584, 0, -0.000976562, 0, 0.0488281, 0.333008, -9.81738, 1.10.2022 16:29:22.767
402, 1.80873, 0.213629, 317.584, -0.00195312, 0, -0.000976562, -0.0498047, 0.329102, -9.75879, 1.10.2022 16:29:22.775
403, 1.81525, 0.2111, 317.584, -0.000976562, 0.000976562, 0, -0.0527344, 0.328125, -9.78516, 1.10.2022 16:29:22.783
404, 1.81525, 0.2111, 317.584, -0.000976562, -0.000976562, 0, -0.00292969, 0.28418, -9.78027, 1.10.2022 16:29:22.791
405, 1.81525, 0.2111, 317.584, 0, -0.000976562, 0.000976562, -0.102539, 0.313477, -9.78418, 1.10.2022 16:29:22.799
406, 1.81525, 0.2111, 317.584, 0, -0.000976562, 0, -0.0410156, 0.30957, -9.80469, 1.10.2022 16:29:22.807
407, 1.81525, 0.2111, 317.584, 0, -0.000976562, 0, -0.015625, 0.290039, -9.80371, 1.10.2022 16:29:22.815
408, 1.81525, 0.2111, 317.584, 0, -0.000976562, 0, -0.103516, 0.326172, -9.7959, 1.10.2022 16:29:22.823
409, 1.81525, 0.2111, 317.584, 0, -0.000976562, 0, 0.00390625, 0.324219, -9.81445, 1.10.2022 16:29:22.831
410, 1.81525, 0.2111, 317.584, 0, 0.000976562, 0, -0.0273438, 0.323242, -9.80957, 1.10.2022 16:29:22.839
411, 1.81525, 0.2111, 317.584, 0, -0.000976562, 0, -0.0683594, 0.329102, -9.82227, 1.10.2022 16:29:22.847
412, 1.81525, 0.2111, 317.584, -0.000976562, -0.000976562, 0, -0.000976562, 0.280273, -9.80176, 1.10.2022 16:29:22.853
413, 1.82177, 0.208571, 317.584, -0.000976562, 0, -0.000976562, -0.0341797, 0.302734, -9.82617, 1.10.2022 16:29:22.863
414, 1.82177, 0.208571, 317.584, 0, 0, -0.000976562, -0.0654297, 0.344727, -9.80078, 1.10.2022 16:29:22.869
415, 1.82177, 0.208571, 317.584, -0.000976562, -0.000976562, 0, -0.0205078, 0.314453, -9.81445, 1.10.2022 16:29:22.877
416, 1.82177, 0.208571, 317.584, -0.000976562, 0, -0.000976562, -0.0986328, 0.331055, -9.82227, 1.10.2022 16:29:22.885
417, 1.82177, 0.208571, 317.584, 0, -0.00195312, 0, -0.0527344, 0.322266, -9.77148, 1.10.2022 16:29:22.893
418, 1.82177, 0.208571, 317.584, 0, -0.000976562, 0, -0.0078125, 0.290039, -9.81055, 1.10.2022 16:29:22.901
419, 1.8243, 0.21509, 317.584, 0, -0.00195312, 0, -0.0839844, 0.335938, -9.80566, 1.10.2022 16:29:22.909
420, 1.8243, 0.21509, 317.584, -0.000976562, -0.000976562, 0, -0.00488281, 0.3125, -9.76758, 1.10.2022 16:29:22.917
421, 1.8243, 0.21509, 317.584, -0.000976562, -0.000976562, 0, -0.0263672, 0.305664, -9.76758, 1.10.2022 16:29:22.925
422, 1.8243, 0.21509, 317.584, -0.000976562, -0.000976562, 0, -0.0859375, 0.330078, -9.78711, 1.10.2022 16:29:22.933
423, 1.8243, 0.21509, 317.584, 0, 0.000976562, 0.000976562, 0.0205078, 0.283203, -9.80664, 1.10.2022 16:29:22.941
424, 1.8243, 0.21509, 317.584, -0.000976562, -0.000976562, 0, -0.0166016, 0.296875, -9.77734, 1.10.2022 16:29:22.949
425, 1.8243, 0.21509, 317.584, 0, -0.000976562, 0, -0.0703125, 0.30957, -9.7998, 1.10.2022 16:29:22.957
426, 1.8243, 0.21509, 317.584, -0.000976562, -0.000976562, 0, 0.0322266, 0.280273, -9.80176, 1.10.2022 16:29:22.965
427, 1.8243, 0.21509, 317.584, 0, 0, -0.000976562, -0.0673828, 0.339844, -9.77539, 1.10.2022 16:29:22.973
428, 1.8243, 0.21509, 317.584, -0.000976562, -0.000976562, 0, -0.0507812, 0.347656, -9.80566, 1.10.2022 16:29:22.981
429, 1.8243, 0.21509, 317.584, -0.000976562, -0.000976562, 0, -0.00976562, 0.320312, -9.7793, 1.10.2022 16:29:22.989
430, 1.8243, 0.21509, 317.584, -0.000976562, -0.000976562, 0, -0.103516, 0.333008, -9.80273, 1.10.2022 16:29:22.997
431, 1.8243, 0.21509, 317.584, -0.000976562, -0.000976562, 0, -0.03125, 0.308594, -9.79102, 1.10.2022 16:29:23.005
432, 1.83081, 0.212561, 317.584, -0.000976562, -0.000976562, 0, -0.0292969, 0.308594, -9.79297, 1.10.2022 16:29:23.013
433, 1.83081, 0.212561, 317.584, -0.000976562, -0.000976562, 0, -0.0810547, 0.339844, -9.7793, 1.10.2022 16:29:23.021
434, 1.83334, 0.21908, 317.584, -0.00195312, -0.000976562, 0, 0.00683594, 0.320312, -9.76953, 1.10.2022 16:29:23.029
435, 1.83334, 0.21908, 317.584, -0.000976562, -0.000976562, 0, -0.0458984, 0.306641, -9.80664, 1.10.2022 16:29:23.037
436, 1.83334, 0.21908, 317.584, 0, -0.00195312, 0, -0.0673828, 0.321289, -9.79199, 1.10.2022 16:29:23.045
437, 1.83334, 0.21908, 317.584, 0, -0.000976562, 0, 0.0332031, 0.287109, -9.79199, 1.10.2022 16:29:23.053
438, 1.83323, 0.218981, 317.579, -0.000976562, 0, 0.000976562, -0.0361328, 0.293945, -9.78125, 1.10.2022 16:29:23.061
439, 1.83323, 0.218981, 317.579, -0.000976562, 0, 0, -0.0644531, 0.320312, -9.78027, 1.10.2022 16:29:23.069
440, 1.83323, 0.218981, 317.579, -0.000976562, -0.000976562, 0, 0.0185547, 0.305664, -9.77539, 1.10.2022 16:29:23.077
441, 1.8307, 0.212461, 317.579, -0.000976562, 0, 0, -0.0605469, 0.328125, -9.80176, 1.10.2022 16:29:23.085
442, 1.8307, 0.212461, 317.579, 0, -0.000976562, 0, -0.0390625, 0.30957, -9.80957, 1.10.2022 16:29:23.093
443, 1.8307, 0.212461, 317.579, -0.000976562, -0.00195312, 0, 0.00195312, 0.279297, -9.78027, 1.10.2022 16:29:23.101
444, 1.8307, 0.212461, 317.579, -0.000976562, -0.00195312, 0, -0.0722656, 0.326172, -9.79688, 1.10.2022 16:29:23.109
445, 1.8307, 0.212461, 317.579, -0.000976562, -0.000976562, 0, -0.0107422, 0.306641, -9.79785, 1.10.2022 16:29:23.117
446, 1.8307, 0.212461, 317.579, -0.000976562, -0.000976562, 0, -0.00976562, 0.308594, -9.79102, 1.10.2022 16:29:23.125
447, 1.8307, 0.212461, 317.579, 0, -0.00195312, 0, -0.0556641, 0.333008, -9.79395, 1.10.2022 16:29:23.133
448, 1.8307, 0.212461, 317.579, -0.000976562, -0.00195312, 0, -0.00292969, 0.308594, -9.78125, 1.10.2022 16:29:23.141
449, 1.8307, 0.212461, 317.579, -0.000976562, -0.000976562, 0, -0.0390625, 0.307617, -9.83301, 1.10.2022 16:29:23.149
450, 1.82817, 0.205942, 317.579, -0.000976562, -0.000976562, 0, -0.0605469, 0.302734, -9.82129, 1.10.2022 16:29:23.157
451, 1.82817, 0.205942, 317.579, 0, -0.000976562, 0, 0.0078125, 0.276367, -9.83203, 1.10.2022 16:29:23.165
452, 1.82817, 0.205942, 317.579, 0, -0.000976562, -0.00195312, -0.0751953, 0.306641, -9.80664, 1.10.2022 16:29:23.173
453, 1.82817, 0.205942, 317.579, -0.000976562, -0.00195312, 0, -0.0625, 0.321289, -9.79199, 1.10.2022 16:29:23.181
454, 1.82817, 0.205942, 317.579, -0.000976562, -0.000976562, 0, -0.0214844, 0.276367, -9.75391, 1.10.2022 16:29:23.189
455, 1.82817, 0.205942, 317.579, -0.00195312, -0.000976562, -0.000976562, -0.100586, 0.333008, -9.81055, 1.10.2022 16:29:23.197
456, 1.82817, 0.205942, 317.579, -0.000976562, -0.000976562, -0.000976562, 0.00488281, 0.293945, -9.77539, 1.10.2022 16:29:23.205
457, 1.82817, 0.205942, 317.579, -0.00195312, -0.000976562, 0.000976562, -0.0175781, 0.283203, -9.80859, 1.10.2022 16:29:23.213
458, 1.82166, 0.208471, 317.579, 0, 0, 0, -0.0722656, 0.306641, -9.78809, 1.10.2022 16:29:23.221
459, 1.82166, 0.208471, 317.579, -0.000976562, 0, 0, -0.0107422, 0.290039, -9.81543, 1.10.2022 16:29:23.229
460, 1.82166, 0.208471, 317.579, -0.000976562, 0, 0, -0.0371094, 0.290039, -9.81934, 1.10.2022 16:29:23.237
461, 1.82166, 0.208471, 317.579, -0.000976562, 0.000976562, 0, -0.0722656, 0.318359, -9.80371, 1.10.2022 16:29:23.245
462, 1.81514, 0.211001, 317.579, 0, 0, 0, -0.00683594, 0.292969, -9.75391, 1.10.2022 16:29:23.253
463, 1.81514, 0.211001, 317.579, -0.000976562, 0, 0, -0.0458984, 0.290039, -9.79785, 1.10.2022 16:29:23.261
464, 1.81261, 0.204482, 317.579, -0.000976562, 0.000976562, -0.00195312, -0.0507812, 0.290039, -9.78613, 1.10.2022 16:29:23.269
465, 1.8061, 0.207012, 317.579, -0.000976562, -0.00195312, -0.000976562, 0.000976562, 0.306641, -9.8125, 1.10.2022 16:29:23.277
466, 1.8061, 0.207012, 317.579, -0.000976562, -0.00195312, -0.000976562, -0.09375, 0.331055, -9.80078, 1.10.2022 16:29:23.285
467, 1.8061, 0.207012, 317.579, -0.000976562, 0, 0, -0.0390625, 0.311523, -9.78809, 1.10.2022 16:29:23.293
468, 1.80862, 0.213531, 317.579, -0.000976562, -0.00195312, 0.000976562, -0.0341797, 0.306641, -9.79785, 1.10.2022 16:29:23.301
469, 1.80862, 0.213531, 317.579, -0.000976562, 0, 0.000976562, -0.0908203, 0.313477, -9.78027, 1.10.2022 16:29:23.309
470, 1.80211, 0.216061, 317.579, -0.000976562, 0, 0.000976562, 0.00878906, 0.300781, -9.7793, 1.10.2022 16:29:23.317
471, 1.80211, 0.216061, 317.579, -0.000976562, 0, 0, -0.046875, 0.302734, -9.82812, 1.10.2022 16:29:23.325
472, 1.80211, 0.216061, 317.579, -0.000976562, -0.00195312, -0.000976562, -0.114258, 0.334961, -9.76953, 1.10.2022 16:29:23.333
473, 1.80211, 0.216061, 317.579, 0, 0, -0.00195312, 0.0205078, 0.325195, -9.78613, 1.10.2022 16:29:23.341
474, 1.80211, 0.216061, 317.579, -0.000976562, 0, -0.00195312, -0.0410156, 0.328125, -9.79199, 1.10.2022 16:29:23.349
475, 1.80211, 0.216061, 317.579, -0.000976562, 0, 0, -0.046875, 0.331055, -9.82715, 1.10.2022 16:29:23.357
476, 1.80464, 0.22258, 317.579, -0.000976562, 0, 0, -0.015625, 0.285156, -9.80371, 1.10.2022 16:29:23.365
477, 1.80464, 0.22258, 317.579, -0.000976562, 0.000976562, 0, -0.0673828, 0.330078, -9.77344, 1.10.2022 16:29:23.373
478, 1.80464, 0.22258, 317.579, -0.000976562, 0.000976562, 0.000976562, -0.0673828, 0.311523, -9.80371, 1.10.2022 16:29:23.381
479, 1.80464, 0.22258, 317.579, -0.000976562, 0.000976562, 0, -0.0078125, 0.294922, -9.81055, 1.10.2022 16:29:23.389
480, 1.80464, 0.22258, 317.579, 0, 0.000976562, 0, -0.0742188, 0.331055, -9.80371, 1.10.2022 16:29:23.397
481, 1.80464, 0.22258, 317.579, -0.000976562, 0, 0, -0.0205078, 0.310547, -9.84082, 1.10.2022 16:29:23.405
482, 1.80464, 0.22258, 317.579, -0.000976562, 0.000976562, 0.000976562, -0.0371094, 0.292969, -9.8125, 1.10.2022 16:29:23.413
483, 1.80464, 0.22258, 317.579, -0.000976562, 0, 0.000976562, -0.0908203, 0.339844, -9.78418, 1.10.2022 16:29:23.421
484, 1.80464, 0.22258, 317.579, -0.000976562, -0.00195312, -0.00195312, -0.00976562, 0.294922, -9.79395, 1.10.2022 16:29:23.429
485, 1.80716, 0.2291, 317.579, -0.000976562, -0.00195312, -0.00195312, -0.0458984, 0.335938, -9.81836, 1.10.2022 16:29:23.437
486, 1.81368, 0.22657, 317.579, -0.000976562, -0.00195312, 0.000976562, -0.0644531, 0.339844, -9.78223, 1.10.2022 16:29:23.445
487, 1.81368, 0.22657, 317.579, 0, 0, 0.000976562, 0.0136719, 0.289062, -9.78711, 1.10.2022 16:29:23.453
488, 1.81368, 0.22657, 317.579, -0.00195312, 0, 0.000976562, -0.0634766, 0.31543, -9.85645, 1.10.2022 16:29:23.461
489, 1.81368, 0.22657, 317.579, -0.00195312, 0.000976562, 0.000976562, -0.0693359, 0.301758, -9.78809, 1.10.2022 16:29:23.469
490, 1.81368, 0.22657, 317.579, -0.000976562, 0, 0, -0.0078125, 0.279297, -9.77344, 1.10.2022 16:29:23.477
491, 1.81621, 0.233089, 317.579, 0, 0, -0.00195312, -0.0791016, 0.324219, -9.75684, 1.10.2022 16:29:23.485
492, 1.81621, 0.233089, 317.579, 0, -0.000976562, -0.000976562, -0.0302734, 0.333984, -9.73828, 1.10.2022 16:29:23.493
493, 1.81621, 0.233089, 317.579, 0, -0.00195312, -0.000976562, -0.0078125, 0.320312, -9.7832, 1.10.2022 16:29:23.501
494, 1.81621, 0.233089, 317.579, 0, -0.00195312, 0, -0.0810547, 0.313477, -9.77051, 1.10.2022 16:29:23.509
495, 1.81621, 0.233089, 317.579, -0.000976562, -0.000976562, -0.000976562, -0.0078125, 0.318359, -9.7998, 1.10.2022 16:29:23.517
496, 1.81621, 0.233089, 317.579, -0.000976562, -0.00195312, -0.00195312, -0.0224609, 0.314453, -9.80957, 1.10.2022 16:29:23.525
497, 1.81621, 0.233089, 317.579, -0.000976562, -0.000976562, -0.000976562, -0.0771484, 0.310547, -9.78027, 1.10.2022 16:29:23.533
498, 1.81621, 0.233089, 317.579, 0, -0.000976562, -0.00195312, 0.0107422, 0.301758, -9.7959, 1.10.2022 16:29:23.541
499, 1.81621, 0.233089, 317.579, 0.00195312, -0.000976562, -0.000976562, -0.0224609, 0.327148, -9.83789, 1.10.2022 16:29:23.549
500, 1.81621, 0.233089, 317.579, -0.000976562, -0.000976562, -0.000976562, -0.0380859, 0.34082, -9.75684, 1.10.2022 16:29:23.557
501, 1.82273, 0.23056, 317.579, -0.00195312, -0.000976562, -0.00195312, 0.00683594, 0.305664, -9.78223, 1.10.2022 16:29:23.565
502, 1.82273, 0.23056, 317.579, -0.000976562, 0.000976562, -0.00195312, -0.09375, 0.291992, -9.77148, 1.10.2022 16:29:23.573
503, 1.82273, 0.23056, 317.579, 0, -0.000976562, -0.000976562, -0.0410156, 0.313477, -9.78125, 1.10.2022 16:29:23.581
504, 1.8202, 0.22404, 317.579, 0, -0.00195312, -0.000976562, 0.00488281, 0.300781, -9.76074, 1.10.2022 16:29:23.589
505, 1.8202, 0.22404, 317.579, -0.000976562, -0.000976562, -0.000976562, -0.0820312, 0.337891, -9.79102, 1.10.2022 16:29:23.597
506, 1.8202, 0.22404, 317.579, -0.000976562, 0.000976562, -0.000976562, -0.0341797, 0.326172, -9.81641, 1.10.2022 16:29:23.605
507, 1.8202, 0.22404, 317.579, 0, 0.000976562, -0.000976562, -0.0126953, 0.307617, -9.82129, 1.10.2022 16:29:23.613
508, 1.8202, 0.22404, 317.579, 0, 0.000976562, -0.000976562, -0.0478516, 0.333008, -9.79004, 1.10.2022 16:29:23.621
509, 1.82672, 0.22151, 317.579, -0.000976562, -0.000976562, -0.000976562, -0.0126953, 0.301758, -9.78613, 1.10.2022 16:29:23.629
510, 1.82672, 0.22151, 317.579, -0.000976562, -0.000976562, 0, -0.0429688, 0.289062, -9.76758, 1.10.2022 16:29:23.637
511, 1.82672, 0.22151, 317.579, 0.00195312, -0.00195312, 0, -0.0751953, 0.304688, -9.82324, 1.10.2022 16:29:23.645
512, 1.82672, 0.22151, 317.579, 0, -0.00195312, -0.000976562, 0.0302734, 0.283203, -9.82031, 1.10.2022 16:29:23.653
513, 1.8202, 0.22404, 317.579, -0.000976562, -0.000976562, -0.000976562, -0.0576172, 0.320312, -9.78711, 1.10.2022 16:29:23.661
514, 1.8202, 0.22404, 317.579, 0, -0.00195312, -0.000976562, -0.0703125, 0.311523, -9.81348, 1.10.2022 16:29:23.669
515, 1.8202, 0.22404, 317.579, 0, -0.000976562, -0.000976562, -0.00292969, 0.282227, -9.79199, 1.10.2022 16:29:23.677
516, 1.81767, 0.217521, 317.579, 0, 0.000976562, -0.000976562, -0.0888672, 0.328125, -9.7959, 1.10.2022 16:29:23.685
517, 1.81767, 0.217521, 317.579, -0.000976562, -0.000976562, -0.000976562, -0.0371094, 0.304688, -9.80762, 1.10.2022 16:29:23.693
518, 1.81767, 0.217521, 317.579, 0, 0.000976562, -0.000976562, -0.0205078, 0.317383, -9.83301, 1.10.2022 16:29:23.701
519, 1.81767, 0.217521, 317.579, -0.000976562, -0.000976562, -0.000976562, -0.0791016, 0.339844, -9.78711, 1.10.2022 16:29:23.709
520, 1.81767, 0.217521, 317.579, -0.000976562, -0.000976562, -0.000976562, -0.0195312, 0.300781, -9.7627, 1.10.2022 16:29:23.717
521, 1.81767, 0.217521, 317.579, -0.000976562, -0.000976562, -0.00195312, -0.0195312, 0.296875, -9.78613, 1.10.2022 16:29:23.725
522, 1.81778, 0.217619, 317.584, -0.000976562, -0.000976562, -0.000976562, -0.0722656, 0.330078, -9.77539, 1.10.2022 16:29:23.733
523, 1.81778, 0.217619, 317.584, 0, -0.000976562, -0.000976562, 0.0146484, 0.292969, -9.74219, 1.10.2022 16:29:23.741
524, 1.81778, 0.217619, 317.584, -0.000976562, 0, -0.000976562, -0.0527344, 0.328125, -9.79883, 1.10.2022 16:29:23.749
525, 1.81778, 0.217619, 317.584, -0.000976562, 0.000976562, 0, -0.0527344, 0.310547, -9.76855, 1.10.2022 16:29:23.757
526, 1.81778, 0.217619, 317.584, -0.000976562, 0, 0, 0.0322266, 0.294922, -9.80371, 1.10.2022 16:29:23.765
527, 1.81778, 0.217619, 317.584, 0, 0, 0, -0.0703125, 0.335938, -9.80566, 1.10.2022 16:29:23.773
528, 1.81778, 0.217619, 317.584, -0.000976562, 0, -0.000976562, -0.0283203, 0.307617, -9.75977, 1.10.2022 16:29:23.781
529, 1.81778, 0.217619, 317.584, -0.000976562, 0, 0, -0.0224609, 0.296875, -9.78613, 1.10.2022 16:29:23.789
530, 1.81778, 0.217619, 317.584, 0, 0, 0, -0.0957031, 0.318359, -9.79883, 1.10.2022 16:29:23.797
531, 1.81778, 0.217619, 317.584, -0.000976562, 0, 0.000976562, -0.0361328, 0.306641, -9.79785, 1.10.2022 16:29:23.805
532, 1.81778, 0.217619, 317.584, -0.000976562, 0, 0, -0.0244141, 0.31543, -9.7666, 1.10.2022 16:29:23.813
533, 1.81767, 0.217521, 317.579, -0.00195312, 0, 0.000976562, -0.100586, 0.337891, -9.80957, 1.10.2022 16:29:23.821
534, 1.81767, 0.217521, 317.579, -0.000976562, 0, 0, -0.0078125, 0.285156, -9.81738, 1.10.2022 16:29:23.827
535, 1.81767, 0.217521, 317.579, -0.000976562, 0, 0, -0.0429688, 0.279297, -9.77734, 1.10.2022 16:29:23.835
536, 1.81767, 0.217521, 317.579, -0.00195312, 0.000976562, 0, -0.0478516, 0.303711, -9.79004, 1.10.2022 16:29:23.843
537, 1.81767, 0.217521, 317.579, 0, 0.000976562, 0, 0.00390625, 0.293945, -9.78906, 1.10.2022 16:29:23.851
538, 1.81767, 0.217521, 317.579, -0.000976562, 0, 0, -0.0556641, 0.306641, -9.79492, 1.10.2022 16:29:23.859
539, 1.81767, 0.217521, 317.579, -0.000976562, 0, 0, -0.0546875, 0.327148, -9.77539, 1.10.2022 16:29:23.867
540, 1.81767, 0.217521, 317.579, -0.000976562, 0, 0, -0.0195312, 0.276367, -9.75195, 1.10.2022 16:29:23.875
541, 1.81767, 0.217521, 317.579, -0.000976562, -0.00195312, 0, -0.100586, 0.321289, -9.78906, 1.10.2022 16:29:23.883
542, 1.81767, 0.217521, 317.579, -0.000976562, 0, -0.000976562, -0.0214844, 0.3125, -9.7627, 1.10.2022 16:29:23.891
543, 1.81115, 0.22005, 317.579, 0, 0.000976562, 0, -0.0146484, 0.270508, -9.79883, 1.10.2022 16:29:23.899
544, 1.81115, 0.22005, 317.579, -0.000976562, 0, 0, -0.0888672, 0.326172, -9.80078, 1.10.2022 16:29:23.907
545, 1.81115, 0.22005, 317.579, -0.000976562, 0, 0, 0.0136719, 0.28418, -9.78516, 1.10.2022 16:29:23.915
546, 1.81115, 0.22005, 317.579, -0.000976562, 0, 0, -0.0556641, 0.314453, -9.81641, 1.10.2022 16:29:23.923
547, 1.81115, 0.22005, 317.579, 0, 0, 0.000976562, -0.0605469, 0.344727, -9.78711, 1.10.2022 16:29:23.931
548, 1.81115, 0.22005, 317.579, -0.000976562, -0.00195312, 0, 0.0166016, 0.293945, -9.76562, 1.10.2022 16:29:23.939
549, 1.81115, 0.22005, 317.579, -0.000976562, 0, 0, -0.0429688, 0.279297, -9.7627, 1.10.2022 16:29:23.947
550, 1.81115, 0.22005, 317.579, -0.000976562, 0.000976562, -0.000976562, -0.0292969, 0.298828, -9.78906, 1.10.2022 16:29:23.955
551, 1.81115, 0.22005, 317.579, 0, 0, 0, 0.00195312, 0.295898, -9.77539, 1.10.2022 16:29:23.963
552, 1.80464, 0.22258, 317.579, 0, 0, 0, -0.0791016, 0.3125, -9.76172, 1.10.2022 16:29:23.971
553, 1.80464, 0.22258, 317.579, -0.000976562, -0.00195312, 0, -0.0390625, 0.333008, -9.79004, 1.10.2022 16:29:23.979
554, 1.80464, 0.22258, 317.579, -0.000976562, 0, 0, -0.00488281, 0.289062, -9.76758, 1.10.2022 16:29:23.987
555, 1.80464, 0.22258, 317.579, -0.000976562, 0, -0.000976562, -0.078125, 0.319336, -9.74512, 1.10.2022 16:29:23.995
556, 1.80464, 0.22258, 317.579, -0.000976562, -0.00195312, -0.000976562, -0.015625, 0.301758, -9.71777, 1.10.2022 16:29:24.003
557, 1.80464, 0.22258, 317.579, -0.000976562, -0.000976562, 0, -0.0429688, 0.296875, -9.78418, 1.10.2022 16:29:24.011
558, 1.80464, 0.22258, 317.579, -0.000976562, -0.000976562, 0, -0.100586, 0.337891, -9.80957, 1.10.2022 16:29:24.019
559, 1.80464, 0.22258, 317.579, 0, 0.000976562, 0.000976562, 0.0107422, 0.31543, -9.84766, 1.10.2022 16:29:24.027
560, 1.80464, 0.22258, 317.579, -0.000976562, -0.000976562, 0.000976562, -0.0507812, 0.291992, -9.78613, 1.10.2022 16:29:24.035
561, 1.80464, 0.22258, 317.579, 0, -0.000976562, 0, -0.0673828, 0.308594, -9.79004, 1.10.2022 16:29:24.043
562, 1.80464, 0.22258, 317.579, 0, -0.00195312, -0.000976562, 0.0126953, 0.297852, -9.82227, 1.10.2022 16:29:24.051
563, 1.80464, 0.22258, 317.579, -0.000976562, -0.000976562, -0.00195312, -0.0488281, 0.311523, -9.81348, 1.10.2022 16:29:24.059
564, 1.80464, 0.22258, 317.579, 0, -0.000976562, 0, -0.0458984, 0.306641, -9.80469, 1.10.2022 16:29:24.067
565, 1.80211, 0.216061, 317.579, 0, -0.000976562, 0, 0.00195312, 0.298828, -9.79102, 1.10.2022 16:29:24.075
566, 1.80464, 0.22258, 317.579, 0, -0.000976562, 0, -0.105469, 0.325195, -9.77441, 1.10.2022 16:29:24.083
567, 1.79812, 0.22511, 317.578, -0.000976562, -0.000976562, 0, -0.03125, 0.313477, -9.78125, 1.10.2022 16:29:24.091
568, 1.79812, 0.22511, 317.578, -0.000976562, -0.000976562, 0, -0.00488281, 0.303711, -9.7793, 1.10.2022 16:29:24.099
569, 1.79812, 0.22511, 317.578, -0.000976562, -0.000976562, -0.00195312, -0.0791016, 0.294922, -9.79297, 1.10.2022 16:29:24.107
570, 1.79812, 0.22511, 317.578, 0, -0.000976562, 0, 0.0234375, 0.310547, -9.78711, 1.10.2022 16:29:24.115
571, 1.79559, 0.21859, 317.579, 0, -0.00195312, -0.000976562, -0.0458984, 0.323242, -9.77832, 1.10.2022 16:29:24.123
572, 1.79812, 0.22511, 317.578, 0, -0.00195312, 0.000976562, -0.0771484, 0.347656, -9.80078, 1.10.2022 16:29:24.131
573, 1.80464, 0.22258, 317.579, 0, -0.000976562, 0.000976562, 0.0166016, 0.319336, -9.74609, 1.10.2022 16:29:24.139
574, 1.80464, 0.22258, 317.579, -0.000976562, -0.000976562, 0.000976562, -0.0820312, 0.324219, -9.83887, 1.10.2022 16:29:24.147
575, 1.80464, 0.22258, 317.579, -0.000976562, -0.000976562, 0.000976562, -0.0244141, 0.322266, -9.77148, 1.10.2022 16:29:24.155
576, 1.80464, 0.22258, 317.579, 0, -0.000976562, 0, 0.0351562, 0.285156, -9.80176, 1.10.2022 16:29:24.163
577, 1.80211, 0.216061, 317.579, -0.000976562, 0.000976562, 0, -0.0761719, 0.336914, -9.77734, 1.10.2022 16:29:24.171
578, 1.80862, 0.213531, 317.579, 0, 0.000976562, 0, -0.0214844, 0.338867, -9.75, 1.10.2022 16:29:24.179
579, 1.80862, 0.213531, 317.579, 0.00195312, -0.000976562, 0, -0.0078125, 0.301758, -9.78613, 1.10.2022 16:29:24.187
580, 1.80862, 0.213531, 317.579, -0.000976562, -0.000976562, 0, -0.0927734, 0.341797, -9.77246, 1.10.2022 16:29:24.195
581, 1.80862, 0.213531, 317.579, -0.000976562, -0.00195312, -0.000976562, -0.00292969, 0.291016, -9.77051, 1.10.2022 16:29:24.203
582, 1.80862, 0.213531, 317.579, 0, -0.00195312, -0.000976562, -0.03125, 0.287109, -9.77734, 1.10.2022 16:29:24.211
583, 1.80862, 0.213531, 317.579, -0.00195312, -0.000976562, 0, -0.0664062, 0.305664, -9.76172, 1.10.2022 16:29:24.219
584, 1.81514, 0.211001, 317.579, -0.000976562, -0.000976562, 0, -0.00292969, 0.322266, -9.7793, 1.10.2022 16:29:24.227
585, 1.81514, 0.211001, 317.579, 0, -0.000976562, -0.00195312, -0.0556641, 0.290039, -9.79785, 1.10.2022 16:29:24.235
586, 1.81514, 0.211001, 317.579, 0, -0.000976562, -0.00195312, -0.0439453, 0.333008, -9.80176, 1.10.2022 16:29:24.243
587, 1.81514, 0.211001, 317.579, 0, -0.00195312, -0.000976562, 0, 0.310547, -9.76953, 1.10.2022 16:29:24.251
588, 1.81514, 0.211001, 317.579, 0, -0.000976562, -0.000976562, -0.0908203, 0.310547, -9.75195, 1.10.2022 16:29:24.259
589, 1.81514, 0.211001, 317.579, -0.000976562, -0.000976562, -0.000976562, -0.0400391, 0.297852, -9.74805, 1.10.2022 16:29:24.267
590, 1.81514, 0.211001, 317.579, 0, 0.000976562, -0.00195312, -0.0175781, 0.301758, -9.79785, 1.10.2022 16:29:24.275
591, 1.81514, 0.211001, 317.579, 0, -0.000976562, -0.00195312, -0.0673828, 0.313477, -9.7832, 1.10.2022 16:29:24.283
592, 1.81514, 0.211001, 317.579, 0, -0.000976562, -0.000976562, -0.0263672, 0.313477, -9.78125, 1.10.2022 16:29:24.291
593, 1.81514, 0.211001, 317.579, -0.000976562, 0, -0.000976562, -0.0195312, 0.296875, -9.78223, 1.10.2022 16:29:24.299
594, 1.81514, 0.211001, 317.579, -0.000976562, 0, -0.000976562, -0.0908203, 0.313477, -9.79199, 1.10.2022 16:29:24.307
595, 1.81767, 0.217521, 317.579, -0.000976562, 0, -0.00195312, -0.000976562, 0.304688, -9.83105, 1.10.2022 16:29:24.315
596, 1.81767, 0.217521, 317.579, -0.00195312, 0, -0.000976562, -0.03125, 0.303711, -9.78809, 1.10.2022 16:29:24.323
597, 1.81767, 0.217521, 317.579, -0.000976562, 0, -0.000976562, -0.0625, 0.321289, -9.79492, 1.10.2022 16:29:24.331
598, 1.81778, 0.217619, 317.584, -0.000976562, 0.000976562, -0.000976562, 0.00878906, 0.328125, -9.80762, 1.10.2022 16:29:24.339
599, 1.81778, 0.217619, 317.584, 0, 0, -0.000976562, -0.0908203, 0.336914, -9.7793, 1.10.2022 16:29:24.347
600, 1.81778, 0.217619, 317.584, -0.000976562, -0.000976562, -0.000976562, -0.0410156, 0.331055, -9.7998, 1.10.2022 16:29:24.355
601, 1.81778, 0.217619, 317.584, 0, 0, -0.000976562, 0.00390625, 0.283203, -9.81055, 1.10.2022 16:29:24.363
602, 1.81778, 0.217619, 317.584, 0, 0, -0.000976562, -0.102539, 0.318359, -9.77246, 1.10.2022 16:29:24.371
603, 1.81778, 0.217619, 317.584, -0.000976562, 0, -0.000976562, -0.0390625, 0.311523, -9.81641, 1.10.2022 16:29:24.379
604, 1.81778, 0.217619, 317.584, -0.000976562, 0, -0.000976562, -0.0126953, 0.300781, -9.77246, 1.10.2022 16:29:24.387
605, 1.81778, 0.217619, 317.584, -0.000976562, 0, 0.000976562, -0.0908203, 0.334961, -9.78613, 1.10.2022 16:29:24.395
606, 1.81767, 0.217521, 317.579, -0.000976562, 0.000976562, -0.000976562, 0.0107422, 0.290039, -9.81348, 1.10.2022 16:29:24.403
607, 1.81767, 0.217521, 317.579, -0.00195312, 0, 0.000976562, -0.0263672, 0.304688, -9.74121, 1.10.2022 16:29:24.411
608, 1.82419, 0.214991, 317.579, 0, 0, -0.000976562, -0.0605469, 0.310547, -9.7832, 1.10.2022 16:29:24.419
609, 1.81767, 0.217521, 317.579, 0.000976562, 0, -0.00195312, 0.00683594, 0.289062, -9.76074, 1.10.2022 16:29:24.427
610, 1.81767, 0.217521, 317.579, 0.000976562, 0, -0.000976562, -0.0458984, 0.303711, -9.76953, 1.10.2022 16:29:24.435
611, 1.81767, 0.217521, 317.579, -0.000976562, 0.000976562, -0.000976562, -0.0478516, 0.317383, -9.76855, 1.10.2022 16:29:24.443
612, 1.81767, 0.217521, 317.579, -0.000976562, 0.000976562, -0.000976562, 0.0185547, 0.31543, -9.77051, 1.10.2022 16:29:24.451
613, 1.81767, 0.217521, 317.579, -0.00195312, 0.000976562, 0, -0.0673828, 0.31543, -9.78027, 1.10.2022 16:29:24.459
614, 1.8243, 0.21509, 317.584, -0.000976562, 0, -0.000976562, -0.0361328, 0.303711, -9.78613, 1.10.2022 16:29:24.467
615, 1.8243, 0.21509, 317.584, -0.000976562, 0, -0.000976562, -0.0263672, 0.287109, -9.7793, 1.10.2022 16:29:24.475
616, 1.81778, 0.217619, 317.584, 0, 0, -0.000976562, -0.104492, 0.336914, -9.75781, 1.10.2022 16:29:24.483
617, 1.8243, 0.21509, 317.584, -0.000976562, 0, -0.00195312, -0.0175781, 0.339844, -9.80176, 1.10.2022 16:29:24.491
618, 1.8243, 0.21509, 317.584, 0, 0, -0.000976562, -0.0390625, 0.337891, -9.79199, 1.10.2022 16:29:24.499
619, 1.8243, 0.21509, 317.584, -0.000976562, 0, -0.000976562, -0.108398, 0.337891, -9.80957, 1.10.2022 16:29:24.507
620, 1.8243, 0.21509, 317.584, -0.000976562, -0.000976562, -0.000976562, 0.00683594, 0.279297, -9.77832, 1.10.2022 16:29:24.515
621, 1.8243, 0.21509, 317.584, -0.00195312, -0.00195312, 0, -0.0537109, 0.28125, -9.81934, 1.10.2022 16:29:24.523
622, 1.82682, 0.221609, 317.584, -0.000976562, -0.000976562, 0, -0.0703125, 0.321289, -9.80176, 1.10.2022 16:29:24.531
623, 1.82682, 0.221609, 317.584, -0.000976562, -0.000976562, 0, 0.00390625, 0.325195, -9.79102, 1.10.2022 16:29:24.539
624, 1.82682, 0.221609, 317.584, -0.000976562, -0.000976562, 0, -0.0791016, 0.330078, -9.76758, 1.10.2022 16:29:24.547
625, 1.82682, 0.221609, 317.584, -0.000976562, -0.000976562, 0, -0.0361328, 0.299805, -9.7959, 1.10.2022 16:29:24.555
626, 1.82682, 0.221609, 317.584, -0.000976562, -0.00195312, 0.000976562, -0.00488281, 0.28125, -9.75391, 1.10.2022 16:29:24.563
627, 1.82682, 0.221609, 317.584, -0.000976562, -0.00195312, 0, -0.0810547, 0.301758, -9.78027, 1.10.2022 16:29:24.571
628, 1.82682, 0.221609, 317.584, 0, -0.00195312, 0, -0.00585938, 0.301758, -9.80078, 1.10.2022 16:29:24.579
629, 1.82031, 0.224139, 317.584, -0.000976562, -0.000976562, 0, 0.0078125, 0.297852, -9.8291, 1.10.2022 16:29:24.587
630, 1.8202, 0.22404, 317.579, -0.000976562, -0.000976562, 0.000976562, -0.0878906, 0.34375, -9.7627, 1.10.2022 16:29:24.595
631, 1.8202, 0.22404, 317.579, 0, -0.000976562, 0, 0.0205078, 0.301758, -9.79883, 1.10.2022 16:29:24.603
632, 1.8202, 0.22404, 317.579, 0, 0.000976562, 0, -0.0244141, 0.321289, -9.81152, 1.10.2022 16:29:24.611
633, 1.8202, 0.22404, 317.579, -0.000976562, -0.000976562, 0, -0.0644531, 0.317383, -9.77051, 1.10.2022 16:29:24.619
634, 1.82672, 0.22151, 317.579, -0.00195312, -0.00195312, 0, 0.0166016, 0.289062, -9.77734, 1.10.2022 16:29:24.627
635, 1.82672, 0.22151, 317.579, -0.000976562, 0, 0.000976562, -0.0507812, 0.308594, -9.79785, 1.10.2022 16:29:24.635
636, 1.82419, 0.214991, 317.579, -0.000976562, -0.000976562, 0, -0.0439453, 0.311523, -9.81445, 1.10.2022 16:29:24.643
637, 1.82419, 0.214991, 317.579, 0, 0.000976562, -0.000976562, 0.0273438, 0.294922, -9.81348, 1.10.2022 16:29:24.651
638, 1.82419, 0.214991, 317.579, -0.000976562, -0.000976562, 0.000976562, -0.0966797, 0.327148, -9.84375, 1.10.2022 16:29:24.659
639, 1.82419, 0.214991, 317.579, -0.000976562, -0.00195312, 0, -0.0244141, 0.301758, -9.78613, 1.10.2022 16:29:24.667
640, 1.82419, 0.214991, 317.579, -0.000976562, -0.000976562, 0, -0.0126953, 0.291992, -9.80078, 1.10.2022 16:29:24.675
641, 1.82419, 0.214991, 317.579, -0.000976562, 0.000976562, -0.000976562, -0.0927734, 0.332031, -9.75391, 1.10.2022 16:29:24.683
642, 1.82166, 0.208471, 317.579, 0, 0.000976562, 0, 0.0185547, 0.316406, -9.79785, 1.10.2022 16:29:24.691
643, 1.82166, 0.208471, 317.579, 0, -0.000976562, -0.000976562, -0.0273438, 0.318359, -9.79492, 1.10.2022 16:29:24.699
644, 1.82166, 0.208471, 317.579, -0.000976562, 0.000976562, 0, -0.0673828, 0.30957, -9.81348, 1.10.2022 16:29:24.707
645, 1.82166, 0.208471, 317.579, 0, -0.000976562, -0.000976562, 0.0166016, 0.287109, -9.77539, 1.10.2022 16:29:24.715
646, 1.82166, 0.208471, 317.579, 0, -0.000976562, 0, -0.0341797, 0.298828, -9.78125, 1.10.2022 16:29:24.723
647, 1.81913, 0.201952, 317.579, 0, -0.000976562, 0, -0.03125, 0.311523, -9.79785, 1.10.2022 16:29:24.731
648, 1.81261, 0.204482, 317.579, -0.000976562, -0.000976562, 0, 0.0214844, 0.269531, -9.75488, 1.10.2022 16:29:24.739
649, 1.81261, 0.204482, 317.579, 0, -0.00195312, 0, -0.0712891, 0.336914, -9.76367, 1.10.2022 16:29:24.747
650, 1.81261, 0.204482, 317.579, -0.000976562, -0.000976562, 0, -0.0371094, 0.335938, -9.81836, 1.10.2022 16:29:24.755
651, 1.81008, 0.197962, 317.579, 0, 0.000976562, 0, 0.00195312, 0.320312, -9.7793, 1.10.2022 16:29:24.763
652, 1.8166, 0.195433, 317.579, 0, -0.000976562, -0.000976562, -0.0966797, 0.320312, -9.84082, 1.10.2022 16:29:24.771
653, 1.8166, 0.195433, 317.579, 0, -0.000976562, -0.000976562, -0.0146484, 0.317383, -9.75488, 1.10.2022 16:29:24.779
654, 1.8166, 0.195433, 317.579, -0.000976562, 0.000976562, 0, -0.0205078, 0.290039, -9.81055, 1.10.2022 16:29:24.787
655, 1.8166, 0.195433, 317.579, -0.000976562, 0.000976562, 0, -0.0927734, 0.334961, -9.76758, 1.10.2022 16:29:24.795
656, 1.8166, 0.195433, 317.579, -0.000976562, 0, 0, -0.0078125, 0.316406, -9.79297, 1.10.2022 16:29:24.801
657, 1.8166, 0.195433, 317.579, -0.000976562, 0.000976562, 0, -0.0458984, 0.300781, -9.77148, 1.10.2022 16:29:24.809
658, 1.8166, 0.195433, 317.579, -0.000976562, 0, 0, -0.0859375, 0.349609, -9.78906, 1.10.2022 16:29:24.817
659, 1.8166, 0.195433, 317.579, -0.000976562, 0, -0.00195312, 0.0146484, 0.288086, -9.74902, 1.10.2022 16:29:24.825
660, 1.8166, 0.195433, 317.579, -0.000976562, 0, 0, -0.0703125, 0.307617, -9.83301, 1.10.2022 16:29:24.833
661, 1.8166, 0.195433, 317.579, -0.000976562, 0.000976562, 0, -0.0273438, 0.323242, -9.80664, 1.10.2022 16:29:24.841
662, 1.8166, 0.195433, 317.579, -0.000976562, -0.00195312, -0.000976562, 0.00878906, 0.31543, -9.77246, 1.10.2022 16:29:24.849
663, 1.81913, 0.201952, 317.579, -0.000976562, 0, 0, -0.102539, 0.318359, -9.77051, 1.10.2022 16:29:24.857
664, 1.81913, 0.201952, 317.579, -0.000976562, 0.000976562, 0, -0.0400391, 0.324219, -9.8418, 1.10.2022 16:29:24.865
665, 1.82565, 0.199422, 317.579, -0.000976562, 0, -0.00195312, -0.0253906, 0.319336, -9.81836, 1.10.2022 16:29:24.873
666, 1.82576, 0.199522, 317.584, -0.000976562, -0.00195312, -0.000976562, -0.0986328, 0.311523, -9.80566, 1.10.2022 16:29:24.881
667, 1.82576, 0.199522, 317.584, 0, -0.000976562, -0.000976562, 0.00878906, 0.31543, -9.77441, 1.10.2022 16:29:24.889
668, 1.82576, 0.199522, 317.584, 0, 0.000976562, 0, -0.0322266, 0.292969, -9.80762, 1.10.2022 16:29:24.897
669, 1.82828, 0.206041, 317.584, -0.000976562, 0.000976562, 0, -0.0576172, 0.332031, -9.77734, 1.10.2022 16:29:24.905
670, 1.82828, 0.206041, 317.584, -0.000976562, 0, -0.00195312, 0.0234375, 0.313477, -9.79102, 1.10.2022 16:29:24.913
671, 1.82828, 0.206041, 317.584, -0.000976562, 0, -0.00195312, -0.0410156, 0.311523, -9.81152, 1.10.2022 16:29:24.921
672, 1.82828, 0.206041, 317.584, -0.000976562, 0, -0.00195312, -0.0527344, 0.344727, -9.78418, 1.10.2022 16:29:24.929
673, 1.82828, 0.206041, 317.584, -0.000976562, 0, 0, -0.0361328, 0.267578, -9.78711, 1.10.2022 16:29:24.937
674, 1.82828, 0.206041, 317.584, -0.000976562, 0, 0, -0.0888672, 0.30957, -9.79883, 1.10.2022 16:29:24.945
675, 1.82828, 0.206041, 317.584, -0.000976562, 0.000976562, 0, -0.0361328, 0.316406, -9.80176, 1.10.2022 16:29:24.953
676, 1.82828, 0.206041, 317.584, -0.000976562, 0, 0, -0.00488281, 0.324219, -9.75781, 1.10.2022 16:29:24.961
677, 1.82828, 0.206041, 317.584, 0, -0.000976562, -0.000976562, -0.0869141, 0.326172, -9.80078, 1.10.2022 16:29:24.969
678, 1.82828, 0.206041, 317.584, 0, -0.000976562, -0.000976562, 0.015625, 0.311523, -9.80078, 1.10.2022 16:29:24.977
679, 1.82828, 0.206041, 317.584, -0.000976562, -0.00195312, -0.000976562, -0.0078125, 0.289062, -9.78418, 1.10.2022 16:29:24.985
680, 1.82828, 0.206041, 317.584, -0.000976562, 0, 0, -0.0664062, 0.305664, -9.75, 1.10.2022 16:29:24.993
681, 1.82828, 0.206041, 317.584, -0.000976562, -0.000976562, 0.000976562, 0.00390625, 0.296875, -9.78418, 1.10.2022 16:29:25.001
682, 1.82828, 0.206041, 317.584, 0, 0.000976562, 0, -0.0458984, 0.326172, -9.81152, 1.10.2022 16:29:25.009
683, 1.82828, 0.206041, 317.584, 0, 0.000976562, 0, -0.0527344, 0.333008, -9.78516, 1.10.2022 16:29:25.017
684, 1.82828, 0.206041, 317.584, -0.000976562, -0.000976562, 0, 0.00683594, 0.320312, -9.79102, 1.10.2022 16:29:25.025
685, 1.82828, 0.206041, 317.584, -0.000976562, -0.000976562, 0, -0.0488281, 0.307617, -9.81836, 1.10.2022 16:29:25.033
686, 1.82828, 0.206041, 317.584, -0.000976562, -0.000976562, 0, -0.0273438, 0.323242, -9.80469, 1.10.2022 16:29:25.041
687, 1.82828, 0.206041, 317.584, -0.000976562, -0.000976562, -0.000976562, 0.0136719, 0.291992, -9.80371, 1.10.2022 16:29:25.049
688, 1.82828, 0.206041, 317.584, 0, -0.000976562, -0.000976562, -0.100586, 0.334961, -9.76758, 1.10.2022 16:29:25.057
689, 1.82828, 0.206041, 317.584, 0, -0.000976562, -0.000976562, -0.0244141, 0.319336, -9.81152, 1.10.2022 16:29:25.065
690, 1.82576, 0.199522, 317.584, 0, -0.000976562, 0, -0.0146484, 0.301758, -9.78125, 1.10.2022 16:29:25.073
691, 1.82828, 0.206041, 317.584, -0.000976562, 0, 0, -0.0820312, 0.321289, -9.78906, 1.10.2022 16:29:25.081
692, 1.82576, 0.199522, 317.584, 0, -0.000976562, 0, -0.0126953, 0.306641, -9.79102, 1.10.2022 16:29:25.089
693, 1.82576, 0.199522, 317.584, 0, -0.000976562, -0.000976562, -0.0527344, 0.293945, -9.78809, 1.10.2022 16:29:25.097
694, 1.82828, 0.206041, 317.584, -0.000976562, -0.000976562, 0, -0.0703125, 0.310547, -9.83496, 1.10.2022 16:29:25.105
695, 1.82828, 0.206041, 317.584, -0.000976562, -0.000976562, 0, 0.00585938, 0.294922, -9.82422, 1.10.2022 16:29:25.113
696, 1.82828, 0.206041, 317.584, 0, -0.000976562, 0, -0.0625, 0.287109, -9.78809, 1.10.2022 16:29:25.121
697, 1.82828, 0.206041, 317.584, -0.000976562, -0.000976562, -0.000976562, -0.0605469, 0.337891, -9.80566, 1.10.2022 16:29:25.129
698, 1.82797, 0.206093, 317.591, -0.000976562, -0.00195312, 0, 0.0332031, 0.311523, -9.79199, 1.10.2022 16:29:25.137
699, 1.82797, 0.206093, 317.591, -0.000976562, -0.000976562, 0, -0.0458984, 0.326172, -9.80859, 1.10.2022 16:29:25.145
700, 1.82828, 0.206041, 317.584, -0.000976562, -0.000976562, 0, -0.0410156, 0.308594, -9.79004, 1.10.2022 16:29:25.153
701, 1.82828, 0.206041, 317.584, -0.000976562, -0.000976562, 0, -0.0146484, 0.318359, -9.80469, 1.10.2022 16:29:25.161
702, 1.82797, 0.206093, 317.591, 0, -0.000976562, -0.000976562, -0.103516, 0.34082, -9.80957, 1.10.2022 16:29:25.169
703, 1.82797, 0.206093, 317.591, -0.000976562, -0.000976562, -0.000976562, -0.0078125, 0.325195, -9.78613, 1.10.2022 16:29:25.177
704, 1.82797, 0.206093, 317.591, -0.000976562, -0.000976562, 0, -0.0126953, 0.299805, -9.81055, 1.10.2022 16:29:25.185
705, 1.82797, 0.206093, 317.591, -0.000976562, -0.00195312, -0.00195312, -0.0732422, 0.310547, -9.83984, 1.10.2022 16:29:25.193
706, 1.82797, 0.206093, 317.591, 0, -0.00195312, 0, 0.00390625, 0.292969, -9.82715, 1.10.2022 16:29:25.201
707, 1.82797, 0.206093, 317.591, 0, -0.000976562, -0.000976562, -0.0224609, 0.302734, -9.81738, 1.10.2022 16:29:25.209
708, 1.82797, 0.206093, 317.591, -0.000976562, 0, 0, -0.0820312, 0.335938, -9.82715, 1.10.2022 16:29:25.217
709, 1.82797, 0.206093, 317.591, 0, -0.000976562, 0, 0.0205078, 0.287109, -9.78711, 1.10.2022 16:29:25.225
710, 1.82797, 0.206093, 317.591, -0.000976562, -0.000976562, 0.000976562, -0.0527344, 0.318359, -9.79004, 1.10.2022 16:29:25.233
711, 1.82797, 0.206093, 317.591, -0.000976562, -0.000976562, 0, -0.0185547, 0.321289, -9.73828, 1.10.2022 16:29:25.241
712, 1.82797, 0.206093, 317.591, 0, 0, 0, 0.00390625, 0.296875, -9.79199, 1.10.2022 16:29:25.249
713, 1.82544, 0.199573, 317.591, 0, 0.000976562, 0, -0.0908203, 0.321289, -9.78906, 1.10.2022 16:29:25.257
714, 1.82544, 0.199573, 317.591, -0.000976562, -0.000976562, 0, -0.00585938, 0.311523, -9.79785, 1.10.2022 16:29:25.265
715, 1.82544, 0.199573, 317.591, -0.000976562, -0.000976562, -0.000976562, 0.00390625, 0.294922, -9.79883, 1.10.2022 16:29:25.273
716, 1.82544, 0.199573, 317.591, -0.000976562, 0.000976562, -0.000976562, -0.0888672, 0.332031, -9.7793, 1.10.2022 16:29:25.281
717, 1.82544, 0.199573, 317.591, -0.000976562, 0, 0, 0.0136719, 0.298828, -9.79199, 1.10.2022 16:29:25.289
718, 1.82544, 0.199573, 317.591, 0, 0, 0, -0.0361328, 0.291016, -9.76758, 1.10.2022 16:29:25.297
719, 1.82291, 0.193054, 317.591, -0.000976562, 0, 0.000976562, -0.0507812, 0.323242, -9.79004, 1.10.2022 16:29:25.305
720, 1.82291, 0.193054, 317.591, -0.000976562, -0.000976562, 0, 0.0273438, 0.296875, -9.80176, 1.10.2022 16:29:25.313
721, 1.82291, 0.193054, 317.591, -0.000976562, 0.000976562, -0.000976562, -0.0654297, 0.321289, -9.81543, 1.10.2022 16:29:25.321
722, 1.82291, 0.193054, 317.591, 0, 0, 0, -0.0556641, 0.336914, -9.78223, 1.10.2022 16:29:25.329
723, 1.82291, 0.193054, 317.591, -0.000976562, 0, 0, 0.00683594, 0.287109, -9.79688, 1.10.2022 16:29:25.337
724, 1.82038, 0.186534, 317.591, 0, 0, 0, -0.0751953, 0.328125, -9.80859, 1.10.2022 16:29:25.345
725, 1.82038, 0.186534, 317.591, 0, 0, 0, -0.0214844, 0.300781, -9.77441, 1.10.2022 16:29:25.353
726, 1.8207, 0.186483, 317.584, 0, -0.000976562, 0, -0.00390625, 0.314453, -9.82422, 1.10.2022 16:29:25.361
727, 1.8207, 0.186483, 317.584, 0.000976562, -0.000976562, 0, -0.0917969, 0.316406, -9.80176, 1.10.2022 16:29:25.369
728, 1.8207, 0.186483, 317.584, 0, 0, 0, -0.0166016, 0.31543, -9.77637, 1.10.2022 16:29:25.377
729, 1.8207, 0.186483, 317.584, 0, -0.000976562, 0.000976562, -0.0556641, 0.299805, -9.81934, 1.10.2022 16:29:25.385
730, 1.8207, 0.186483, 317.584, 0, -0.000976562, 0, -0.0771484, 0.336914, -9.7793, 1.10.2022 16:29:25.393
731, 1.8207, 0.186483, 317.584, 0, -0.000976562, -0.000976562, 0.0351562, 0.303711, -9.80176, 1.10.2022 16:29:25.401
732, 1.8207, 0.186483, 317.584, -0.000976562, -0.000976562, 0, -0.0693359, 0.303711, -9.78516, 1.10.2022 16:29:25.409
733, 1.82323, 0.193002, 317.584, -0.000976562, -0.000976562, 0, -0.0429688, 0.332031, -9.77051, 1.10.2022 16:29:25.417
734, 1.82323, 0.193002, 317.584, 0, -0.000976562, 0, 0.00390625, 0.292969, -9.82227, 1.10.2022 16:29:25.425
735, 1.82323, 0.193002, 317.584, 0, -0.00195312, 0.000976562, -0.0859375, 0.330078, -9.78418, 1.10.2022 16:29:25.433
736, 1.82323, 0.193002, 317.584, 0, 0.000976562, -0.000976562, -0.0478516, 0.332031, -9.77539, 1.10.2022 16:29:25.441
737, 1.82323, 0.193002, 317.584, 0, -0.000976562, 0, -0.0341797, 0.28418, -9.78223, 1.10.2022 16:29:25.449
738, 1.82323, 0.193002, 317.584, 0, 0, 0, -0.0878906, 0.297852, -9.75488, 1.10.2022 16:29:25.457
739, 1.81671, 0.195532, 317.584, 0, -0.000976562, 0, -0.0263672, 0.313477, -9.7832, 1.10.2022 16:29:25.465
740, 1.81671, 0.195532, 317.584, -0.000976562, -0.000976562, -0.000976562, -0.00292969, 0.301758, -9.79395, 1.10.2022 16:29:25.473
741, 1.81924, 0.202051, 317.584, 0, -0.000976562, 0, -0.0771484, 0.333008, -9.78418, 1.10.2022 16:29:25.481
742, 1.81924, 0.202051, 317.584, -0.000976562, -0.000976562, 0.000976562, 0.00878906, 0.30957, -9.82715, 1.10.2022 16:29:25.489
743, 1.81913, 0.201952, 317.579, -0.000976562, -0.00195312, 0, -0.00585938, 0.323242, -9.79297, 1.10.2022 16:29:25.497
744, 1.81913, 0.201952, 317.579, -0.000976562, -0.00195312, 0, -0.0537109, 0.314453, -9.80859, 1.10.2022 16:29:25.505
745, 1.81913, 0.201952, 317.579, -0.000976562, -0.000976562, 0, 0.0136719, 0.283203, -9.81836, 1.10.2022 16:29:25.513
746, 1.81913, 0.201952, 317.579, 0, -0.000976562, 0, -0.0839844, 0.306641, -9.80176, 1.10.2022 16:29:25.521
747, 1.81913, 0.201952, 317.579, 0, -0.000976562, 0, -0.0615234, 0.3125, -9.75488, 1.10.2022 16:29:25.529
748, 1.81913, 0.201952, 317.579, 0, -0.000976562, -0.000976562, -0.0078125, 0.327148, -9.77637, 1.10.2022 16:29:25.537
749, 1.81913, 0.201952, 317.579, 0, -0.000976562, -0.000976562, -0.113281, 0.329102, -9.8125, 1.10.2022 16:29:25.545
750, 1.81913, 0.201952, 317.579, 0, -0.000976562, -0.000976562, -0.015625, 0.316406, -9.81934, 1.10.2022 16:29:25.553
751, 1.82166, 0.208471, 317.579, -0.000976562, -0.000976562, 0, -0.0078125, 0.288086, -9.80859, 1.10.2022 16:29:25.561
752, 1.82166, 0.208471, 317.579, -0.000976562, -0.000976562, 0, -0.0800781, 0.324219, -9.83887, 1.10.2022 16:29:25.569
753, 1.82166, 0.208471, 317.579, -0.000976562, 0, 0, 0.0166016, 0.313477, -9.78418, 1.10.2022 16:29:25.577
754, 1.82166, 0.208471, 317.579, -0.000976562, -0.000976562, 0.000976562, -0.0195312, 0.303711, -9.7793, 1.10.2022 16:29:25.585
755, 1.82166, 0.208471, 317.579, -0.000976562, -0.000976562, 0, -0.0605469, 0.339844, -9.79395, 1.10.2022 16:29:25.593
756, 1.82166, 0.208471, 317.579, -0.000976562, -0.000976562, 0, 0.00683594, 0.324219, -9.7627, 1.10.2022 16:29:25.601
757, 1.82817, 0.205942, 317.579, -0.000976562, 0, 0.000976562, -0.0429688, 0.328125, -9.7832, 1.10.2022 16:29:25.609
758, 1.82817, 0.205942, 317.579, -0.000976562, -0.000976562, 0, -0.0234375, 0.319336, -9.75781, 1.10.2022 16:29:25.617
759, 1.82817, 0.205942, 317.579, 0, -0.00195312, -0.000976562, 0.00878906, 0.294922, -9.80859, 1.10.2022 16:29:25.625
760, 1.82817, 0.205942, 317.579, 0, -0.000976562, -0.000976562, -0.0625, 0.333008, -9.79395, 1.10.2022 16:29:25.633
761, 1.82817, 0.205942, 317.579, -0.000976562, -0.000976562, 0, -0.0546875, 0.332031, -9.76562, 1.10.2022 16:29:25.641
762, 1.82817, 0.205942, 317.579, 0, -0.000976562, -0.000976562, -0.0488281, 0.290039, -9.7959, 1.10.2022 16:29:25.649
763, 1.82817, 0.205942, 317.579, 0, -0.00195312, -0.000976562, -0.117188, 0.337891, -9.78613, 1.10.2022 16:29:25.657
764, 1.82817, 0.205942, 317.579, -0.000976562, -0.000976562, 0.000976562, -0.0126953, 0.290039, -9.80371, 1.10.2022 16:29:25.665
765, 1.82817, 0.205942, 317.579, -0.000976562, -0.000976562, 0, -0.046875, 0.289062, -9.84082, 1.10.2022 16:29:25.673
766, 1.8307, 0.212461, 317.579, -0.000976562, -0.000976562, -0.00292969, -0.0888672, 0.318359, -9.78711, 1.10.2022 16:29:25.681
767, 1.8307, 0.212461, 317.579, 0, -0.000976562, -0.000976562, -0.000976562, 0.296875, -9.80078, 1.10.2022 16:29:25.689
768, 1.8307, 0.212461, 317.579, 0, -0.000976562, -0.000976562, -0.0175781, 0.299805, -9.81738, 1.10.2022 16:29:25.697
769, 1.8307, 0.212461, 317.579, 0, -0.00195312, -0.000976562, -0.0576172, 0.316406, -9.80371, 1.10.2022 16:29:25.705
770, 1.8307, 0.212461, 317.579, -0.000976562, -0.000976562, 0, 0.0283203, 0.308594, -9.79395, 1.10.2022 16:29:25.713
771, 1.8307, 0.212461, 317.579, -0.000976562, -0.000976562, 0, -0.0488281, 0.288086, -9.81934, 1.10.2022 16:29:25.721
772, 1.8307, 0.212461, 317.579, 0, -0.00195312, -0.000976562, -0.03125, 0.333008, -9.79199, 1.10.2022 16:29:25.729
773, 1.8307, 0.212461, 317.579, 0, -0.000976562, 0.000976562, -0.0107422, 0.299805, -9.81055, 1.10.2022 16:29:25.737
774, 1.8307, 0.212461, 317.579, 0.000976562, -0.000976562, -0.000976562, -0.0771484, 0.323242, -9.79395, 1.10.2022 16:29:25.745
775, 1.8307, 0.212461, 317.579, 0, -0.000976562, -0.000976562, 0, 0.338867, -9.75, 1.10.2022 16:29:25.753
776, 1.8307, 0.212461, 317.579, 0, 0, -0.00195312, 0.00683594, 0.320312, -9.7627, 1.10.2022 16:29:25.761
777, 1.8307, 0.212461, 317.579, 0, -0.000976562, -0.000976562, -0.0742188, 0.310547, -9.75684, 1.10.2022 16:29:25.769
778, 1.82817, 0.205942, 317.579, -0.000976562, -0.000976562, 0.000976562, -0.0146484, 0.285156, -9.78906, 1.10.2022 16:29:25.777
779, 1.82817, 0.205942, 317.579, 0, -0.00195312, -0.000976562, -0.0292969, 0.283203, -9.80078, 1.10.2022 16:29:25.783
780, 1.82817, 0.205942, 317.579, 0, 0, -0.00195312, -0.0908203, 0.336914, -9.77246, 1.10.2022 16:29:25.793
781, 1.82817, 0.205942, 317.579, -0.000976562, 0, -0.000976562, 0.0302734, 0.304688, -9.80859, 1.10.2022 16:29:25.799
782, 1.82817, 0.205942, 317.579, -0.000976562, 0, -0.000976562, -0.0371094, 0.3125, -9.84961, 1.10.2022 16:29:25.807
783, 1.82817, 0.205942, 317.579, 0, 0, -0.000976562, -0.0175781, 0.311523, -9.79297, 1.10.2022 16:29:25.815
784, 1.82565, 0.199422, 317.579, -0.000976562, -0.000976562, -0.00195312, 0.0283203, 0.274414, -9.77148, 1.10.2022 16:29:25.823
785, 1.82565, 0.199422, 317.579, -0.00195312, 0, -0.00195312, -0.0712891, 0.327148, -9.75684, 1.10.2022 16:29:25.831
786, 1.82576, 0.199522, 317.584, -0.000976562, 0.000976562, -0.00195312, -0.0341797, 0.320312, -9.78516, 1.10.2022 16:29:25.839
787, 1.82576, 0.199522, 317.584, -0.000976562, 0, -0.000976562, -0.0244141, 0.31543, -9.78125, 1.10.2022 16:29:25.847
788, 1.82576, 0.199522, 317.584, 0, 0, 0.000976562, -0.0791016, 0.330078, -9.79395, 1.10.2022 16:29:25.855
789, 1.82565, 0.199422, 317.579, 0, 0.000976562, 0, -0.00488281, 0.289062, -9.75879, 1.10.2022 16:29:25.863
790, 1.82323, 0.193002, 317.584, -0.000976562, 0.000976562, -0.00195312, -0.0341797, 0.301758, -9.80957, 1.10.2022 16:29:25.871
791, 1.82323, 0.193002, 317.584, -0.000976562, -0.00195312, -0.000976562, -0.0693359, 0.320312, -9.78711, 1.10.2022 16:29:25.879
792, 1.82323, 0.193002, 317.584, 0, -0.00195312, -0.000976562, 0.0117188, 0.291016, -9.76855, 1.10.2022 16:29:25.887
793, 1.82323, 0.193002, 317.584, -0.000976562, 0, 0.000976562, -0.0556641, 0.290039, -9.7959, 1.10.2022 16:29:25.895
794, 1.82312, 0.192903, 317.579, -0.000976562, 0, -0.000976562, -0.0605469, 0.337891, -9.80566, 1.10.2022 16:29:25.903
795, 1.82312, 0.192903, 317.579, -0.000976562, 0, -0.000976562, 0.0566406, 0.289062, -9.78809, 1.10.2022 16:29:25.911
796, 1.82323, 0.193002, 317.584, 0, 0, -0.00195312, -0.0791016, 0.325195, -9.78027, 1.10.2022 16:29:25.919
797, 1.82323, 0.193002, 317.584, 0, 0, -0.000976562, -0.0625, 0.324219, -9.81055, 1.10.2022 16:29:25.927
798, 1.82323, 0.193002, 317.584, 0, 0, -0.000976562, 0.0253906, 0.282227, -9.7998, 1.10.2022 16:29:25.935
799, 1.82323, 0.193002, 317.584, -0.000976562, 0, -0.00195312, -0.104492, 0.345703, -9.75586, 1.10.2022 16:29:25.943
800, 1.82323, 0.193002, 317.584, 0, 0, -0.000976562, -0.0341797, 0.298828, -9.78125, 1.10.2022 16:29:25.951
801, 1.81671, 0.195532, 317.584, -0.000976562, 0, -0.000976562, -0.0244141, 0.3125, -9.76465, 1.10.2022 16:29:25.959
802, 1.81671, 0.195532, 317.584, 0, 0, -0.000976562, -0.0888672, 0.31543, -9.77734, 1.10.2022 16:29:25.967
803, 1.81671, 0.195532, 317.584, -0.00195312, 0, -0.000976562, 0.00683594, 0.316406, -9.80273, 1.10.2022 16:29:25.975
804, 1.82323, 0.193002, 317.584, -0.00195312, 0.000976562, 0, -0.0625, 0.294922, -9.79785, 1.10.2022 16:29:25.983
805, 1.82323, 0.193002, 317.584, 0, 0, 0.000976562, -0.0625, 0.34668, -9.78418, 1.10.2022 16:29:25.991
806, 1.81671, 0.195532, 317.584, 0, -0.00195312, -0.000976562, -0.0126953, 0.293945, -9.79102, 1.10.2022 16:29:25.999
807, 1.81924, 0.202051, 317.584, -0.000976562, 0, -0.00195312, -0.0673828, 0.289062, -9.77441, 1.10.2022 16:29:26.007
808, 1.81924, 0.202051, 317.584, -0.000976562, 0, -0.000976562, -0.0546875, 0.308594, -9.77148, 1.10.2022 16:29:26.015
809, 1.81924, 0.202051, 317.584, -0.000976562, 0, -0.000976562, 0.0107422, 0.292969, -9.81348, 1.10.2022 16:29:26.023
810, 1.81924, 0.202051, 317.584, -0.000976562, 0, -0.000976562, -0.0771484, 0.321289, -9.79883, 1.10.2022 16:29:26.031
811, 1.81924, 0.202051, 317.584, 0, 0, -0.000976562, -0.0244141, 0.306641, -9.80273, 1.10.2022 16:29:26.039
812, 1.81924, 0.202051, 317.584, 0.000976562, -0.00195312, -0.000976562, -0.0126953, 0.299805, -9.82422, 1.10.2022 16:29:26.047
813, 1.81924, 0.202051, 317.584, 0, 0, 0, -0.100586, 0.323242, -9.7793, 1.10.2022 16:29:26.055
814, 1.81924, 0.202051, 317.584, -0.000976562, 0.000976562, -0.000976562, 0.0166016, 0.310547, -9.78223, 1.10.2022 16:29:26.063
815, 1.81924, 0.202051, 317.584, -0.000976562, 0.000976562, 0, -0.0224609, 0.303711, -9.7959, 1.10.2022 16:29:26.071
816, 1.81924, 0.202051, 317.584, -0.000976562, 0, 0.000976562, -0.0644531, 0.31543, -9.76855, 1.10.2022 16:29:26.079
817, 1.81272, 0.20458, 317.584, 0, 0, 0, 0.0146484, 0.264648, -9.85156, 1.10.2022 16:29:26.087
818, 1.81272, 0.20458, 317.584, 0, 0, 0.000976562, -0.0654297, 0.290039, -9.79492, 1.10.2022 16:29:26.095
819, 1.81272, 0.20458, 317.584, -0.00195312, 0, -0.000976562, -0.0556641, 0.308594, -9.79688, 1.10.2022 16:29:26.103
820, 1.81272, 0.20458, 317.584, -0.000976562, 0.000976562, -0.000976562, -0.000976562, 0.310547, -9.78613, 1.10.2022 16:29:26.111
821, 1.81272, 0.20458, 317.584, 0, 0.000976562, -0.000976562, -0.0751953, 0.306641, -9.81152, 1.10.2022 16:29:26.119
822, 1.81241, 0.204632, 317.591, -0.000976562, 0, 0, -0.0292969, 0.325195, -9.78125, 1.10.2022 16:29:26.127
823, 1.80589, 0.207161, 317.591, -0.000976562, 0, -0.000976562, -0.0263672, 0.259766, -9.75, 1.10.2022 16:29:26.135
824, 1.80589, 0.207161, 317.591, 0, 0, 0, -0.0888672, 0.328125, -9.78418, 1.10.2022 16:29:26.143
825, 1.80589, 0.207161, 317.591, 0, 0, 0, -0.0126953, 0.326172, -9.82129, 1.10.2022 16:29:26.151
826, 1.80589, 0.207161, 317.591, -0.000976562, 0, 0.000976562, -0.0244141, 0.298828, -9.78125, 1.10.2022 16:29:26.159
827, 1.80589, 0.207161, 317.591, -0.000976562, 0, -0.000976562, -0.0839844, 0.333008, -9.79395, 1.10.2022 16:29:26.167
828, 1.80589, 0.207161, 317.591, -0.000976562, -0.00195312, -0.000976562, 0.00195312, 0.275391, -9.78711, 1.10.2022 16:29:26.175
829, 1.80589, 0.207161, 317.591, -0.000976562, 0, -0.000976562, -0.0576172, 0.289062, -9.76465, 1.10.2022 16:29:26.183
830, 1.79937, 0.209691, 317.59, -0.000976562, 0, 0, -0.0595703, 0.325195, -9.77832, 1.10.2022 16:29:26.191
831, 1.79937, 0.209691, 317.59, -0.00195312, 0, 0, 0.0185547, 0.273438, -9.7998, 1.10.2022 16:29:26.199
832, 1.79937, 0.209691, 317.59, 0, -0.00195312, 0, -0.0859375, 0.303711, -9.76855, 1.10.2022 16:29:26.207
833, 1.8019, 0.216211, 317.59, -0.000976562, 0, -0.000976562, -0.0625, 0.322266, -9.77051, 1.10.2022 16:29:26.215
834, 1.8019, 0.216211, 317.59, 0, 0, 0, 0.0136719, 0.318359, -9.78906, 1.10.2022 16:29:26.223
835, 1.8019, 0.216211, 317.59, -0.00195312, -0.00195312, 0, -0.0703125, 0.314453, -9.80176, 1.10.2022 16:29:26.231
836, 1.8019, 0.216211, 317.59, 0, 0, 0, -0.0478516, 0.336914, -9.77539, 1.10.2022 16:29:26.239
837, 1.8019, 0.216211, 317.59, -0.000976562, 0, 0, -0.0371094, 0.266602, -9.81738, 1.10.2022 16:29:26.247
838, 1.8019, 0.216211, 317.59, -0.000976562, -0.00195312, 0, -0.0888672, 0.325195, -9.78711, 1.10.2022 16:29:26.255
839, 1.79539, 0.21874, 317.59, 0, 0, 0, -0.0078125, 0.291992, -9.78223, 1.10.2022 16:29:26.263
840, 1.79539, 0.21874, 317.59, 0, 0.000976562, -0.000976562, -0.0371094, 0.319336, -9.81152, 1.10.2022 16:29:26.271
841, 1.79539, 0.21874, 317.59, 0, 0.000976562, 0, -0.0810547, 0.327148, -9.77539, 1.10.2022 16:29:26.279
842, 1.79539, 0.21874, 317.59, 0, 0, 0, 0.015625, 0.31543, -9.79102, 1.10.2022 16:29:26.287
843, 1.79539, 0.21874, 317.59, 0, 0.000976562, 0, -0.0126953, 0.300781, -9.77246, 1.10.2022 16:29:26.295
844, 1.79539, 0.21874, 317.59, -0.000976562, -0.000976562, 0, -0.0517578, 0.325195, -9.84375, 1.10.2022 16:29:26.303
845, 1.8019, 0.216211, 317.59, -0.000976562, -0.000976562, 0.000976562, 0.0185547, 0.304688, -9.80371, 1.10.2022 16:29:26.311
846, 1.8019, 0.216211, 317.59, -0.000976562, 0, 0, -0.103516, 0.337891, -9.80957, 1.10.2022 16:29:26.319
847, 1.8019, 0.216211, 317.59, 0, 0.00195312, 0.000976562, -0.0166016, 0.310547, -9.77637, 1.10.2022 16:29:26.327
848, 1.80221, 0.216158, 317.583, -0.000976562, -0.000976562, 0.000976562, -0.00683594, 0.28418, -9.75879, 1.10.2022 16:29:26.335
849, 1.80221, 0.216158, 317.583, -0.000976562, -0.000976562, 0, -0.100586, 0.318359, -9.77734, 1.10.2022 16:29:26.343
850, 1.80221, 0.216158, 317.583, 0, 0, 0, -0.00292969, 0.287109, -9.80371, 1.10.2022 16:29:26.351
851, 1.80221, 0.216158, 317.583, -0.000976562, -0.000976562, 0, -0.0253906, 0.302734, -9.82422, 1.10.2022 16:29:26.359
852, 1.80221, 0.216158, 317.583, -0.000976562, 0, 0, -0.0605469, 0.318359, -9.80176, 1.10.2022 16:29:26.367
853, 1.80221, 0.216158, 317.583, 0, 0.000976562, -0.000976562, 0.0136719, 0.301758, -9.80078, 1.10.2022 16:29:26.375
854, 1.80221, 0.216158, 317.583, 0, -0.000976562, 0, -0.0361328, 0.318359, -9.77832, 1.10.2022 16:29:26.383
