Seq, Rot x, Rot y, Rot z, Vel x, Vel y, Vel z, Acc x, Acc y, Acc z, Time(m.d.y h:m:s.ms)
0, 1.84903, 0.488382, 6.81027, 0, 0, -0.000976562, -0.0849609, 0.318359, -9.85352, 12.8.2021 17:29:4.638
1, 1.84903, 0.488382, 6.81027, 0, 0, -0.000976562, -0.0673828, 0.34375, -9.77246, 12.8.2021 17:29:4.646
2, 1.84903, 0.488382, 6.81027, 0, 0, -0.000976562, -0.0410156, 0.299805, -9.80469, 12.8.2021 17:29:4.654
3, 1.84903, 0.488382, 6.81027, 0, 0.000976562, 0, -0.121094, 0.353516, -9.85449, 12.8.2021 17:29:4.662
4, 1.84903, 0.488382, 6.81027, -0.00195312, 0.000976562, 0, -0.0205078, 0.333984, -9.84668, 12.8.2021 17:29:4.670
5, 1.84903, 0.488382, 6.81027, -0.00195312, 0.000976562, -0.000976562, -0.0458984, 0.319336, -9.81152, 12.8.2021 17:29:4.678
6, 1.84903, 0.488382, 6.81027, 0, 0.000976562, -0.000976562, -0.0869141, 0.337891, -9.8125, 12.8.2021 17:29:4.686
7, 1.84945, 0.481401, 6.81039, 0, 0.000976562, -0.000976562, -0.0361328, 0.31543, -9.77832, 12.8.2021 17:29:4.694
8, 1.84945, 0.481401, 6.81039, -0.00195312, 0.000976562, 0, -0.0585938, 0.3125, -9.83691, 12.8.2021 17:29:4.702
9, 1.84945, 0.481401, 6.81039, -0.00195312, 0, 0, -0.0683594, 0.333008, -9.86719, 12.8.2021 17:29:4.710
10, 1.84945, 0.481401, 6.81039, 0, 0, -0.000976562, -0.015625, 0.326172, -9.82324, 12.8.2021 17:29:4.718
11, 1.84945, 0.481401, 6.81039, 0, 0.000976562, -0.000976562, -0.09375, 0.331055, -9.81055, 12.8.2021 17:29:4.726
12, 1.84945, 0.481401, 6.81039, -0.00195312, 0.000976562, 0, -0.0634766, 0.332031, -9.85059, 12.8.2021 17:29:4.734
13, 1.84945, 0.481401, 6.81039, -0.00195312, 0.000976562, 0, -0.0419922, 0.30957, -9.83105, 12.8.2021 17:29:4.742
14, 1.84945, 0.481401, 6.81039, -0.000976562, 0.000976562, 0.000976562, -0.0839844, 0.304688, -9.81348, 12.8.2021 17:29:4.750
15, 1.84949, 0.481286, 6.80345, 0, 0, 0.000976562, -0.0361328, 0.316406, -9.79297, 12.8.2021 17:29:4.758
16, 1.84949, 0.481286, 6.80345, -0.000976562, 0, 0.000976562, -0.0488281, 0.319336, -9.80859, 12.8.2021 17:29:4.766
17, 1.84949, 0.481286, 6.80345, 0, 0, 0, -0.103516, 0.338867, -9.84082, 12.8.2021 17:29:4.774
18, 1.84949, 0.481286, 6.80345, 0, 0.00195312, -0.000976562, 0.00585938, 0.311523, -9.81738, 12.8.2021 17:29:4.782
19, 1.84949, 0.481286, 6.80345, -0.00195312, 0, 0, -0.0683594, 0.31543, -9.83496, 12.8.2021 17:29:4.790
20, 1.84949, 0.481286, 6.80345, -0.000976562, 0, 0.000976562, -0.0390625, 0.333008, -9.80176, 12.8.2021 17:29:4.798
21, 1.84949, 0.481286, 6.80345, -0.00195312, 0.000976562, 0, -0.0351562, 0.327148, -9.85156, 12.8.2021 17:29:4.806
22, 1.84991, 0.474306, 6.80357, 0, 0.000976562, -0.000976562, -0.0966797, 0.329102, -9.83398, 12.8.2021 17:29:4.814
23, 1.85689, 0.474721, 6.80352, -0.00195312, 0, -0.000976562, -0.0654297, 0.314453, -9.80859, 12.8.2021 17:29:4.822
24, 1.85689, 0.474721, 6.80352, -0.00195312, 0, 0, -0.0595703, 0.344727, -9.86914, 12.8.2021 17:29:4.830
25, 1.85689, 0.474721, 6.80352, -0.00195312, 0.000976562, 0, -0.0996094, 0.34375, -9.84961, 12.8.2021 17:29:4.838
26, 1.85689, 0.474721, 6.80352, -0.000976562, 0, 0.000976562, -0.015625, 0.333008, -9.80957, 12.8.2021 17:29:4.846
27, 1.85689, 0.474721, 6.80352, 0, 0, -0.000976562, -0.0566406, 0.305664, -9.85645, 12.8.2021 17:29:4.854
28, 1.85689, 0.474721, 6.80352, -0.000976562, 0, 0.000976562, -0.0683594, 0.34375, -9.85254, 12.8.2021 17:29:4.862
29, 1.85689, 0.474721, 6.80352, 0, 0.000976562, 0, -0.0166016, 0.332031, -9.86328, 12.8.2021 17:29:4.870
30, 1.85689, 0.474721, 6.80352, -0.00195312, 0.000976562, 0, -0.0966797, 0.329102, -9.81934, 12.8.2021 17:29:4.878
31, 1.89144, 0.364692, 6.80517, 0, 0, 0.000976562, -0.0673828, 0.324219, -9.80859, 12.8.2021 17:29:4.886
32, 1.89967, 0.344166, 6.80548, -0.000976562, -0.000976562, 0, -0.0322266, 0.305664, -9.85254, 12.8.2021 17:29:4.894
33, 1.90008, 0.337185, 6.80559, -0.000976562, -0.000976562, 0.000976562, -0.118164, 0.341797, -9.83984, 12.8.2021 17:29:4.902
34, 1.90012, 0.337068, 6.79866, -0.000976562, -0.000976562, 0.000976562, -0.0439453, 0.327148, -9.8418, 12.8.2021 17:29:4.910
35, 1.90012, 0.337068, 6.79866, -0.000976562, 0, 0, -0.0566406, 0.313477, -9.87793, 12.8.2021 17:29:4.918
36, 1.89971, 0.344049, 6.79854, -0.000976562, -0.000976562, 0, -0.111328, 0.333984, -9.82617, 12.8.2021 17:29:4.926
37, 1.89971, 0.344049, 6.79854, -0.000976562, -0.000976562, 0, -0.0224609, 0.317383, -9.83496, 12.8.2021 17:29:4.934
38, 1.89971, 0.344049, 6.79854, 0, -0.000976562, 0.000976562, -0.0673828, 0.352539, -9.82422, 12.8.2021 17:29:4.942
39, 1.89971, 0.344049, 6.79854, -0.000976562, -0.000976562, 0, -0.0703125, 0.329102, -9.82715, 12.8.2021 17:29:4.950
40, 1.89971, 0.344049, 6.79854, -0.000976562, -0.000976562, 0, -0.0136719, 0.319336, -9.83789, 12.8.2021 17:29:4.958
41, 1.89971, 0.344049, 6.79854, 0, -0.000976562, -0.000976562, -0.113281, 0.350586, -9.83789, 12.8.2021 17:29:4.966
42, 1.89971, 0.344049, 6.79854, 0, -0.00195312, -0.000976562, -0.0439453, 0.344727, -9.79883, 12.8.2021 17:29:4.974
43, 1.89971, 0.344049, 6.79854, -0.000976562, 0, -0.000976562, -0.0527344, 0.287109, -9.79785, 12.8.2021 17:29:4.982
44, 1.89971, 0.344049, 6.79854, 0, 0, 0, -0.0986328, 0.357422, -9.80273, 12.8.2021 17:29:4.990
45, 1.90669, 0.344464, 6.7985, -0.000976562, 0, 0, -0.0273438, 0.311523, -9.80957, 12.8.2021 17:29:4.998
46, 1.90669, 0.344464, 6.7985, 0, 0, 0, -0.0654297, 0.320312, -9.8418, 12.8.2021 17:29:5.006
47, 1.90669, 0.344464, 6.7985, 0.000976562, -0.000976562, 0, -0.0761719, 0.334961, -9.86523, 12.8.2021 17:29:5.014
48, 1.89971, 0.344049, 6.79854, 0, -0.00195312, 0, -0.0205078, 0.319336, -9.83984, 12.8.2021 17:29:5.022
49, 1.8993, 0.35103, 6.79843, 0, 0, 0, -0.103516, 0.341797, -9.84277, 12.8.2021 17:29:5.030
50, 1.8993, 0.35103, 6.79843, 0, -0.000976562, 0, -0.0849609, 0.327148, -9.84082, 12.8.2021 17:29:5.038
51, 1.8993, 0.35103, 6.79843, 0, -0.000976562, 0, -0.0439453, 0.307617, -9.83301, 12.8.2021 17:29:5.046
52, 1.90627, 0.351444, 6.79839, -0.000976562, -0.00195312, 0, -0.129883, 0.338867, -9.81641, 12.8.2021 17:29:5.054
53, 1.90627, 0.351444, 6.79839, 0, -0.000976562, 0, -0.0585938, 0.34082, -9.82715, 12.8.2021 17:29:5.062
54, 1.90586, 0.358425, 6.79827, 0, 0, 0.000976562, -0.0419922, 0.322266, -9.82812, 12.8.2021 17:29:5.070
55, 1.90586, 0.358425, 6.79827, 0, 0, 0, -0.0917969, 0.347656, -9.81934, 12.8.2021 17:29:5.078
56, 1.90586, 0.358425, 6.79827, -0.000976562, -0.000976562, 0, -0.015625, 0.333008, -9.81836, 12.8.2021 17:29:5.086
57, 1.90586, 0.358425, 6.79827, -0.000976562, 0, -0.000976562, -0.0615234, 0.344727, -9.86719, 12.8.2021 17:29:5.094
58, 1.90586, 0.358425, 6.79827, 0, -0.000976562, 0, -0.0820312, 0.338867, -9.84082, 12.8.2021 17:29:5.102
59, 1.90586, 0.358425, 6.79827, -0.000976562, -0.000976562, 0.000976562, -0.0253906, 0.291016, -9.83105, 12.8.2021 17:29:5.110
60, 1.90586, 0.358425, 6.79827, 0, -0.000976562, 0, -0.111328, 0.34082, -9.83105, 12.8.2021 17:29:5.118
61, 1.90586, 0.358425, 6.79827, -0.00195312, -0.000976562, 0.000976562, -0.0585938, 0.319336, -9.82324, 12.8.2021 17:29:5.126
62, 1.90586, 0.358425, 6.79827, -0.00195312, -0.000976562, 0, -0.0244141, 0.321289, -9.81152, 12.8.2021 17:29:5.134
63, 1.91284, 0.35884, 6.79823, -0.000976562, -0.000976562, -0.000976562, -0.123047, 0.339844, -9.86426, 12.8.2021 17:29:5.142
64, 1.91284, 0.35884, 6.79823, 0, 0, -0.00195312, -0.0302734, 0.339844, -9.86035, 12.8.2021 17:29:5.148
65, 1.91284, 0.35884, 6.79823, -0.000976562, 0, -0.00195312, -0.0517578, 0.313477, -9.86621, 12.8.2021 17:29:5.158
66, 1.91284, 0.35884, 6.79823, -0.000976562, -0.000976562, -0.000976562, -0.0917969, 0.339844, -9.85449, 12.8.2021 17:29:5.164
67, 1.91284, 0.35884, 6.79823, -0.000976562, -0.000976562, 0.000976562, -0.0107422, 0.31543, -9.84961, 12.8.2021 17:29:5.172
68, 1.91284, 0.35884, 6.79823, -0.000976562, -0.000976562, -0.000976562, -0.0917969, 0.328125, -9.80566, 12.8.2021 17:29:5.180
69, 1.91284, 0.35884, 6.79823, -0.000976562, 0, -0.00195312, -0.0751953, 0.355469, -9.82617, 12.8.2021 17:29:5.188
70, 1.91284, 0.35884, 6.79823, -0.000976562, 0, 0.000976562, -0.0205078, 0.307617, -9.81641, 12.8.2021 17:29:5.196
71, 1.91284, 0.35884, 6.79823, -0.000976562, -0.000976562, -0.00195312, -0.0869141, 0.329102, -9.84082, 12.8.2021 17:29:5.204
72, 1.91284, 0.35884, 6.79823, 0, -0.000976562, -0.000976562, -0.0537109, 0.326172, -9.81348, 12.8.2021 17:29:5.212
73, 1.91284, 0.35884, 6.79823, -0.000976562, -0.000976562, -0.000976562, -0.0654297, 0.311523, -9.80664, 12.8.2021 17:29:5.220
74, 1.91284, 0.35884, 6.79823, 0, -0.000976562, -0.000976562, -0.105469, 0.367188, -9.81641, 12.8.2021 17:29:5.228
75, 1.91284, 0.35884, 6.79823, -0.000976562, -0.000976562, -0.00195312, -0.0302734, 0.333984, -9.84473, 12.8.2021 17:29:5.236
76, 1.91284, 0.35884, 6.79823, -0.000976562, 0, -0.000976562, -0.0751953, 0.334961, -9.84863, 12.8.2021 17:29:5.244
77, 1.91284, 0.35884, 6.79823, -0.00195312, -0.000976562, 0.000976562, -0.101562, 0.317383, -9.8291, 12.8.2021 17:29:5.252
78, 1.9194, 0.366236, 6.79807, -0.000976562, -0.00195312, -0.000976562, -0.0449219, 0.3125, -9.84961, 12.8.2021 17:29:5.260
79, 1.91242, 0.365821, 6.79811, -0.000976562, -0.000976562, -0.000976562, -0.0703125, 0.305664, -9.83008, 12.8.2021 17:29:5.268
80, 1.91242, 0.365821, 6.79811, 0, -0.000976562, 0.000976562, -0.0800781, 0.322266, -9.83203, 12.8.2021 17:29:5.276
81, 1.91242, 0.365821, 6.79811, -0.000976562, -0.000976562, -0.000976562, -0.0439453, 0.30957, -9.7998, 12.8.2021 17:29:5.284
82, 1.91242, 0.365821, 6.79811, -0.000976562, -0.000976562, 0.000976562, -0.110352, 0.335938, -9.81445, 12.8.2021 17:29:5.292
83, 1.91242, 0.365821, 6.79811, 0, -0.000976562, 0.000976562, -0.0507812, 0.335938, -9.82715, 12.8.2021 17:29:5.300
84, 1.91242, 0.365821, 6.79811, -0.000976562, 0, -0.000976562, -0.0566406, 0.333984, -9.84668, 12.8.2021 17:29:5.308
85, 1.91242, 0.365821, 6.79811, -0.000976562, 0, -0.000976562, -0.108398, 0.34082, -9.82422, 12.8.2021 17:29:5.316
86, 1.91242, 0.365821, 6.79811, 0, -0.000976562, -0.00195312, -0.0419922, 0.332031, -9.86328, 12.8.2021 17:29:5.324
87, 1.91242, 0.365821, 6.79811, 0, -0.000976562, -0.000976562, -0.0722656, 0.314453, -9.8252, 12.8.2021 17:29:5.332
88, 1.91242, 0.365821, 6.79811, -0.000976562, -0.000976562, -0.000976562, -0.0898438, 0.34082, -9.8291, 12.8.2021 17:29:5.340
89, 1.91242, 0.365821, 6.79811, -0.00195312, -0.000976562, 0.000976562, -0.0117188, 0.311523, -9.87793, 12.8.2021 17:29:5.348
90, 1.91242, 0.365821, 6.79811, 0, -0.000976562, -0.000976562, -0.078125, 0.348633, -9.85254, 12.8.2021 17:29:5.356
91, 1.91242, 0.365821, 6.79811, 0, -0.000976562, -0.00195312, -0.0654297, 0.361328, -9.80078, 12.8.2021 17:29:5.364
92, 1.91242, 0.365821, 6.79811, -0.000976562, -0.000976562, -0.000976562, -0.0634766, 0.322266, -9.8252, 12.8.2021 17:29:5.372
93, 1.91242, 0.365821, 6.79811, -0.000976562, -0.000976562, -0.000976562, -0.124023, 0.349609, -9.78125, 12.8.2021 17:29:5.380
94, 1.91242, 0.365821, 6.79811, -0.000976562, 0, -0.000976562, -0.0341797, 0.335938, -9.82324, 12.8.2021 17:29:5.388
95, 1.91242, 0.365821, 6.79811, -0.00292969, -0.000976562, -0.00195312, -0.0634766, 0.348633, -9.85254, 12.8.2021 17:29:5.396
96, 1.91242, 0.365821, 6.79811, -0.000976562, -0.000976562, -0.000976562, -0.121094, 0.355469, -9.8418, 12.8.2021 17:29:5.404
97, 1.91242, 0.365821, 6.79811, 0, 0, -0.000976562, -0.0322266, 0.329102, -9.8252, 12.8.2021 17:29:5.412
98, 1.91242, 0.365821, 6.79811, -0.000976562, -0.000976562, -0.00195312, -0.0644531, 0.328125, -9.79004, 12.8.2021 17:29:5.420
99, 1.91238, 0.365938, 6.80504, -0.00195312, 0, -0.00195312, -0.101562, 0.34082, -9.81738, 12.8.2021 17:29:5.428
100, 1.91936, 0.366354, 6.805, -0.000976562, 0, -0.00195312, -0.0546875, 0.331055, -9.88184, 12.8.2021 17:29:5.436
101, 1.91936, 0.366354, 6.805, -0.000976562, -0.000976562, -0.000976562, -0.111328, 0.373047, -9.85352, 12.8.2021 17:29:5.444
102, 1.91936, 0.366354, 6.805, -0.000976562, -0.000976562, -0.000976562, -0.0566406, 0.325195, -9.86035, 12.8.2021 17:29:5.452
103, 1.91936, 0.366354, 6.805, -0.00195312, -0.000976562, -0.000976562, -0.0498047, 0.310547, -9.86133, 12.8.2021 17:29:5.460
104, 1.91936, 0.366354, 6.805, -0.000976562, -0.000976562, -0.000976562, -0.101562, 0.334961, -9.85742, 12.8.2021 17:29:5.468
105, 1.91936, 0.366354, 6.805, 0.000976562, -0.000976562, -0.000976562, -0.00585938, 0.329102, -9.81641, 12.8.2021 17:29:5.476
106, 1.91936, 0.366354, 6.805, 0, -0.00195312, -0.000976562, -0.0615234, 0.34668, -9.8623, 12.8.2021 17:29:5.484
107, 1.91936, 0.366354, 6.805, -0.000976562, -0.000976562, -0.00195312, -0.0898438, 0.350586, -9.83301, 12.8.2021 17:29:5.492
108, 1.91936, 0.366354, 6.805, 0, -0.000976562, -0.00195312, -0.0371094, 0.324219, -9.82129, 12.8.2021 17:29:5.500
109, 1.91936, 0.366354, 6.805, -0.000976562, -0.000976562, -0.000976562, -0.0800781, 0.331055, -9.82715, 12.8.2021 17:29:5.508
110, 1.91936, 0.366354, 6.805, -0.00195312, -0.000976562, -0.00195312, -0.0664062, 0.341797, -9.8623, 12.8.2021 17:29:5.516
111, 1.91936, 0.366354, 6.805, -0.00195312, -0.000976562, -0.00195312, -0.0517578, 0.325195, -9.85352, 12.8.2021 17:29:5.524
112, 1.91936, 0.366354, 6.805, -0.000976562, -0.000976562, -0.000976562, -0.0966797, 0.356445, -9.85254, 12.8.2021 17:29:5.532
113, 1.91936, 0.366354, 6.805, -0.000976562, -0.000976562, 0.000976562, -0.0556641, 0.347656, -9.81543, 12.8.2021 17:29:5.540
114, 1.96039, 0.382807, 6.8045, 0, 0, 0, -0.0625, 0.349609, -9.80273, 12.8.2021 17:29:5.548
115, 1.96737, 0.383223, 6.80445, 0, -0.000976562, 0, -0.103516, 0.345703, -9.80762, 12.8.2021 17:29:5.556
116, 1.96737, 0.383223, 6.80445, -0.000976562, 0, 0, 0.000976562, 0.318359, -9.85938, 12.8.2021 17:29:5.564
117, 1.96737, 0.383223, 6.80445, -0.000976562, 0, -0.000976562, -0.0878906, 0.316406, -9.87695, 12.8.2021 17:29:5.572
118, 1.96737, 0.383223, 6.80445, -0.000976562, -0.000976562, 0, -0.0820312, 0.34375, -9.84082, 12.8.2021 17:29:5.580
119, 1.96737, 0.383223, 6.80445, -0.000976562, -0.000976562, 0, -0.0351562, 0.329102, -9.84473, 12.8.2021 17:29:5.588
120, 1.96737, 0.383223, 6.80445, -0.000976562, -0.000976562, 0, -0.0947266, 0.334961, -9.85547, 12.8.2021 17:29:5.596
121, 1.96039, 0.382807, 6.8045, -0.000976562, -0.000976562, 0, -0.0517578, 0.332031, -9.85352, 12.8.2021 17:29:5.604
122, 1.96039, 0.382807, 6.8045, -0.000976562, 0, 0, -0.0205078, 0.316406, -9.82129, 12.8.2021 17:29:5.612
123, 1.96039, 0.382807, 6.8045, -0.000976562, 0, -0.000976562, -0.118164, 0.355469, -9.84277, 12.8.2021 17:29:5.620
124, 1.96039, 0.382807, 6.8045, -0.000976562, -0.000976562, 0, -0.0400391, 0.319336, -9.83984, 12.8.2021 17:29:5.628
125, 1.96039, 0.382807, 6.8045, -0.000976562, -0.000976562, 0, -0.046875, 0.34668, -9.84863, 12.8.2021 17:29:5.636
126, 1.96039, 0.382807, 6.8045, -0.00195312, 0, 0, -0.0898438, 0.355469, -9.83105, 12.8.2021 17:29:5.644
127, 1.96039, 0.382807, 6.8045, -0.000976562, -0.000976562, 0, -0.0244141, 0.326172, -9.81348, 12.8.2021 17:29:5.652
128, 1.96081, 0.375827, 6.80462, 0, 0, 0, -0.0605469, 0.330078, -9.79199, 12.8.2021 17:29:5.660
129, 1.96081, 0.375827, 6.80462, -0.000976562, 0, 0, -0.0800781, 0.351562, -9.84277, 12.8.2021 17:29:5.668
130, 1.96081, 0.375827, 6.80462, -0.000976562, -0.000976562, 0, -0.0107422, 0.333984, -9.83984, 12.8.2021 17:29:5.676
131, 1.96081, 0.375827, 6.80462, -0.000976562, -0.000976562, 0, -0.104492, 0.356445, -9.84961, 12.8.2021 17:29:5.684
132, 1.96081, 0.375827, 6.80462, -0.000976562, -0.00195312, 0, -0.0585938, 0.355469, -9.83105, 12.8.2021 17:29:5.692
133, 1.96081, 0.375827, 6.80462, -0.000976562, -0.000976562, 0, -0.0136719, 0.332031, -9.83789, 12.8.2021 17:29:5.700
134, 1.96122, 0.368846, 6.80474, -0.000976562, 0, 0, -0.0917969, 0.34375, -9.8291, 12.8.2021 17:29:5.708
135, 1.96122, 0.368846, 6.80474, -0.000976562, -0.000976562, 0, -0.0566406, 0.295898, -9.83301, 12.8.2021 17:29:5.716
136, 1.96122, 0.368846, 6.80474, -0.000976562, -0.000976562, 0, -0.0634766, 0.34375, -9.82227, 12.8.2021 17:29:5.724
137, 1.96122, 0.368846, 6.80474, -0.000976562, -0.000976562, 0, -0.0810547, 0.358398, -9.77637, 12.8.2021 17:29:5.732
138, 1.96122, 0.368846, 6.80474, 0, -0.000976562, 0, -0.03125, 0.301758, -9.79785, 12.8.2021 17:29:5.740
139, 1.96122, 0.368846, 6.80474, -0.000976562, 0, 0, -0.0947266, 0.320312, -9.85742, 12.8.2021 17:29:5.748
140, 1.96122, 0.368846, 6.80474, -0.000976562, -0.000976562, 0, -0.0488281, 0.336914, -9.84375, 12.8.2021 17:29:5.756
141, 1.96122, 0.368846, 6.80474, 0, -0.000976562, 0, -0.0449219, 0.327148, -9.84863, 12.8.2021 17:29:5.764
142, 1.96122, 0.368846, 6.80474, -0.000976562, -0.000976562, 0, -0.113281, 0.322266, -9.82715, 12.8.2021 17:29:5.772
143, 1.95425, 0.368431, 6.80478, -0.000976562, -0.000976562, 0, -0.0302734, 0.31543, -9.84473, 12.8.2021 17:29:5.780
144, 1.95466, 0.36145, 6.8049, -0.000976562, -0.00195312, 0, -0.0439453, 0.321289, -9.80859, 12.8.2021 17:29:5.788
145, 1.95466, 0.36145, 6.8049, -0.000976562, -0.000976562, 0, -0.0869141, 0.333984, -9.83887, 12.8.2021 17:29:5.796
146, 1.95466, 0.36145, 6.8049, -0.000976562, -0.000976562, 0, 0.0253906, 0.298828, -9.79688, 12.8.2021 17:29:5.804
147, 1.94768, 0.361035, 6.80494, 0, 0, -0.00195312, -0.0771484, 0.316406, -9.81543, 12.8.2021 17:29:5.812
148, 1.94768, 0.361035, 6.80494, 0, -0.000976562, 0, -0.0673828, 0.338867, -9.82031, 12.8.2021 17:29:5.820
149, 1.9481, 0.354054, 6.80506, -0.000976562, 0, 0, -0.0136719, 0.333984, -9.83496, 12.8.2021 17:29:5.828
150, 1.9481, 0.354054, 6.80506, -0.000976562, -0.000976562, 0, -0.0966797, 0.327148, -9.83203, 12.8.2021 17:29:5.836
151, 1.94112, 0.353639, 6.80511, -0.000976562, -0.00195312, 0, -0.0566406, 0.325195, -9.85352, 12.8.2021 17:29:5.844
152, 1.94112, 0.353639, 6.80511, 0, -0.000976562, 0, -0.0175781, 0.337891, -9.81836, 12.8.2021 17:29:5.852
153, 1.94112, 0.353639, 6.80511, 0, 0, 0, -0.0986328, 0.319336, -9.82227, 12.8.2021 17:29:5.860
154, 1.94112, 0.353639, 6.80511, 0, -0.00195312, 0, -0.0302734, 0.310547, -9.84277, 12.8.2021 17:29:5.868
155, 1.93456, 0.346243, 6.80527, 0, 0, 0, -0.0615234, 0.31543, -9.85156, 12.8.2021 17:29:5.876
156, 1.93456, 0.346243, 6.80527, -0.000976562, -0.000976562, 0, -0.0849609, 0.339844, -9.85938, 12.8.2021 17:29:5.884
157, 1.93456, 0.346243, 6.80527, -0.000976562, 0, -0.000976562, -0.0185547, 0.316406, -9.87793, 12.8.2021 17:29:5.892
158, 1.93456, 0.346243, 6.80527, -0.000976562, -0.000976562, 0, -0.0898438, 0.332031, -9.85059, 12.8.2021 17:29:5.900
159, 1.92758, 0.345827, 6.80531, -0.000976562, -0.000976562, 0.000976562, -0.0800781, 0.352539, -9.82422, 12.8.2021 17:29:5.908
160, 1.92758, 0.345827, 6.80531, 0.000976562, -0.000976562, 0.000976562, -0.0566406, 0.303711, -9.875, 12.8.2021 17:29:5.916
161, 1.92762, 0.345709, 6.79838, 0.000976562, 0, 0.000976562, -0.118164, 0.355469, -9.81836, 12.8.2021 17:29:5.924
162, 1.92762, 0.345709, 6.79838, -0.00195312, -0.000976562, 0, -0.0175781, 0.337891, -9.81641, 12.8.2021 17:29:5.932
163, 1.92762, 0.345709, 6.79838, -0.00195312, -0.000976562, 0.000976562, -0.0537109, 0.329102, -9.83203, 12.8.2021 17:29:5.940
164, 1.92762, 0.345709, 6.79838, -0.000976562, -0.000976562, 0, -0.110352, 0.335938, -9.80078, 12.8.2021 17:29:5.948
165, 1.92762, 0.345709, 6.79838, 0, -0.000976562, -0.00195312, -0.0302734, 0.332031, -9.85645, 12.8.2021 17:29:5.956
166, 1.92762, 0.345709, 6.79838, -0.000976562, -0.000976562, -0.00195312, -0.0712891, 0.344727, -9.85547, 12.8.2021 17:29:5.964
167, 1.92762, 0.345709, 6.79838, -0.000976562, -0.000976562, 0, -0.0751953, 0.353516, -9.83789, 12.8.2021 17:29:5.972
168, 1.92762, 0.345709, 6.79838, -0.00195312, -0.000976562, 0, -0.015625, 0.299805, -9.81055, 12.8.2021 17:29:5.980
169, 1.92762, 0.345709, 6.79838, -0.000976562, -0.000976562, -0.00195312, -0.0947266, 0.321289, -9.87402, 12.8.2021 17:29:5.988
170, 1.92758, 0.345827, 6.80531, 0, -0.000976562, -0.00195312, -0.0537109, 0.324219, -9.81543, 12.8.2021 17:29:5.996
171, 1.92758, 0.345827, 6.80531, -0.000976562, -0.000976562, 0, -0.0537109, 0.331055, -9.83008, 12.8.2021 17:29:6.004
172, 1.92717, 0.352808, 6.80519, -0.000976562, -0.00195312, 0, -0.134766, 0.336914, -9.83789, 12.8.2021 17:29:6.012
173, 1.92717, 0.352808, 6.80519, 0, -0.000976562, 0, -0.0400391, 0.332031, -9.8584, 12.8.2021 17:29:6.020
174, 1.92717, 0.352808, 6.80519, 0.000976562, -0.000976562, 0.000976562, -0.0634766, 0.341797, -9.85547, 12.8.2021 17:29:6.028
175, 1.92717, 0.352808, 6.80519, -0.000976562, -0.00195312, 0, -0.0849609, 0.348633, -9.83105, 12.8.2021 17:29:6.036
176, 1.92717, 0.352808, 6.80519, -0.000976562, -0.000976562, 0, -0.0107422, 0.30957, -9.83105, 12.8.2021 17:29:6.044
177, 1.92717, 0.352808, 6.80519, -0.000976562, -0.000976562, 0, -0.0605469, 0.333984, -9.82227, 12.8.2021 17:29:6.052
178, 1.92717, 0.352808, 6.80519, 0, -0.000976562, 0, -0.0712891, 0.325195, -9.85352, 12.8.2021 17:29:6.060
179, 1.92717, 0.352808, 6.80519, 0, -0.000976562, 0, -0.0517578, 0.329102, -9.84375, 12.8.2021 17:29:6.068
180, 1.92717, 0.352808, 6.80519, 0, 0.000976562, 0, -0.0966797, 0.327148, -9.82715, 12.8.2021 17:29:6.076
181, 1.92717, 0.352808, 6.80519, -0.000976562, -0.000976562, 0, -0.0361328, 0.311523, -9.80469, 12.8.2021 17:29:6.084
182, 1.92023, 0.352274, 6.7983, -0.00195312, 0.000976562, 0.000976562, -0.0634766, 0.325195, -9.84375, 12.8.2021 17:29:6.092
183, 1.92023, 0.352274, 6.7983, -0.000976562, 0.000976562, -0.00195312, -0.114258, 0.334961, -9.87109, 12.8.2021 17:29:6.098
184, 1.91981, 0.359255, 6.79818, -0.000976562, -0.000976562, 0, -0.0439453, 0.317383, -9.82812, 12.8.2021 17:29:6.106
185, 1.91981, 0.359255, 6.79818, -0.000976562, -0.000976562, 0, -0.0654297, 0.333984, -9.84375, 12.8.2021 17:29:6.114
186, 1.91977, 0.359373, 6.80512, -0.000976562, 0.000976562, 0, -0.0996094, 0.348633, -9.85254, 12.8.2021 17:29:6.122
187, 1.91981, 0.359255, 6.79818, -0.000976562, -0.000976562, 0, -0.00390625, 0.314453, -9.82129, 12.8.2021 17:29:6.130
188, 1.91981, 0.359255, 6.79818, -0.000976562, -0.000976562, 0, -0.0800781, 0.329102, -9.84082, 12.8.2021 17:29:6.138
189, 1.91977, 0.359373, 6.80512, 0, -0.00195312, -0.00195312, -0.0966797, 0.34375, -9.83105, 12.8.2021 17:29:6.146
190, 1.91977, 0.359373, 6.80512, -0.000976562, -0.00292969, -0.00195312, -0.0371094, 0.31543, -9.85156, 12.8.2021 17:29:6.154
191, 1.91977, 0.359373, 6.80512, -0.000976562, -0.000976562, 0, -0.103516, 0.342773, -9.81738, 12.8.2021 17:29:6.162
192, 1.91977, 0.359373, 6.80512, -0.000976562, -0.000976562, 0, -0.0439453, 0.3125, -9.82617, 12.8.2021 17:29:6.170
193, 1.91936, 0.366354, 6.805, 0, -0.000976562, 0, -0.0644531, 0.318359, -9.78516, 12.8.2021 17:29:6.178
194, 1.91936, 0.366354, 6.805, -0.000976562, -0.000976562, -0.00195312, -0.0800781, 0.34375, -9.82227, 12.8.2021 17:29:6.186
195, 1.91936, 0.366354, 6.805, -0.000976562, 0.000976562, 0, -0.0253906, 0.314453, -9.83105, 12.8.2021 17:29:6.194
196, 1.91936, 0.366354, 6.805, -0.000976562, -0.000976562, -0.00195312, -0.0585938, 0.327148, -9.83887, 12.8.2021 17:29:6.202
197, 1.91936, 0.366354, 6.805, -0.000976562, -0.000976562, 0, -0.0634766, 0.327148, -9.83008, 12.8.2021 17:29:6.210
198, 1.91977, 0.359373, 6.80512, -0.000976562, -0.000976562, 0, 0.00585938, 0.307617, -9.84082, 12.8.2021 17:29:6.218
199, 1.91977, 0.359373, 6.80512, -0.000976562, -0.000976562, -0.00195312, -0.0947266, 0.336914, -9.8457, 12.8.2021 17:29:6.226
200, 1.91977, 0.359373, 6.80512, -0.000976562, -0.000976562, -0.00195312, -0.0800781, 0.338867, -9.82227, 12.8.2021 17:29:6.234
201, 1.91977, 0.359373, 6.80512, -0.000976562, -0.000976562, 0, -0.0566406, 0.318359, -9.86523, 12.8.2021 17:29:6.242
202, 1.91977, 0.359373, 6.80512, 0, 0.000976562, 0, -0.130859, 0.361328, -9.85645, 12.8.2021 17:29:6.250
203, 1.91977, 0.359373, 6.80512, -0.000976562, 0.000976562, 0, -0.046875, 0.325195, -9.85352, 12.8.2021 17:29:6.258
204, 1.91977, 0.359373, 6.80512, -0.000976562, -0.00195312, -0.000976562, -0.0830078, 0.34668, -9.8457, 12.8.2021 17:29:6.266
205, 1.91936, 0.366354, 6.805, 0, -0.00195312, -0.000976562, -0.0703125, 0.364258, -9.81445, 12.8.2021 17:29:6.274
206, 1.91936, 0.366354, 6.805, 0, -0.000976562, 0, -0.0107422, 0.304688, -9.81934, 12.8.2021 17:29:6.282
207, 1.91936, 0.366354, 6.805, 0.000976562, -0.000976562, 0, -0.0966797, 0.305664, -9.83496, 12.8.2021 17:29:6.290
208, 1.91936, 0.366354, 6.805, -0.000976562, 0.000976562, 0, -0.0732422, 0.327148, -9.83398, 12.8.2021 17:29:6.298
209, 1.91936, 0.366354, 6.805, -0.000976562, 0.000976562, 0.000976562, -0.0205078, 0.322266, -9.85938, 12.8.2021 17:29:6.306
210, 1.91936, 0.366354, 6.805, -0.000976562, -0.000976562, 0, -0.0966797, 0.330078, -9.85254, 12.8.2021 17:29:6.314
211, 1.91936, 0.366354, 6.805, -0.000976562, -0.000976562, 0, -0.0517578, 0.341797, -9.83887, 12.8.2021 17:29:6.322
212, 1.91936, 0.366354, 6.805, 0, -0.00195312, 0, -0.0341797, 0.328125, -9.80469, 12.8.2021 17:29:6.330
213, 1.91936, 0.366354, 6.805, 0, -0.000976562, -0.000976562, -0.103516, 0.337891, -9.8125, 12.8.2021 17:29:6.338
214, 1.91936, 0.366354, 6.805, 0, -0.000976562, -0.000976562, -0.0205078, 0.307617, -9.83301, 12.8.2021 17:29:6.346
215, 1.91936, 0.366354, 6.805, -0.000976562, -0.000976562, 0, -0.0712891, 0.308594, -9.86133, 12.8.2021 17:29:6.354
216, 1.91936, 0.366354, 6.805, -0.000976562, -0.000976562, 0, -0.106445, 0.339844, -9.85742, 12.8.2021 17:29:6.362
217, 1.91936, 0.366354, 6.805, -0.000976562, -0.000976562, 0, -0.0351562, 0.335938, -9.83496, 12.8.2021 17:29:6.370
218, 1.91936, 0.366354, 6.805, -0.000976562, -0.000976562, 0, -0.0898438, 0.345703, -9.8291, 12.8.2021 17:29:6.378
219, 1.91936, 0.366354, 6.805, -0.000976562, -0.000976562, 0, -0.09375, 0.364258, -9.81445, 12.8.2021 17:29:6.386
220, 1.91936, 0.366354, 6.805, -0.000976562, -0.000976562, 0, -0.0576172, 0.3125, -9.75977, 12.8.2021 17:29:6.394
221, 1.91936, 0.366354, 6.805, -0.000976562, -0.000976562, 0, -0.131836, 0.342773, -9.80469, 12.8.2021 17:29:6.402
222, 1.91894, 0.373334, 6.80488, 0, -0.000976562, 0, -0.0791016, 0.323242, -9.78906, 12.8.2021 17:29:6.410
223, 1.91894, 0.373334, 6.80488, 0, -0.000976562, 0, -0.0585938, 0.334961, -9.86035, 12.8.2021 17:29:6.418
224, 1.91894, 0.373334, 6.80488, -0.000976562, -0.000976562, 0, -0.103516, 0.341797, -9.83594, 12.8.2021 17:29:6.426
225, 1.91853, 0.380315, 6.80476, 0, -0.00195312, 0, -0.0302734, 0.31543, -9.85938, 12.8.2021 17:29:6.434
226, 1.91853, 0.380315, 6.80476, 0, -0.000976562, -0.000976562, -0.0712891, 0.306641, -9.86523, 12.8.2021 17:29:6.442
227, 1.91853, 0.380315, 6.80476, -0.000976562, -0.000976562, 0, -0.0986328, 0.350586, -9.81934, 12.8.2021 17:29:6.450
228, 1.91853, 0.380315, 6.80476, -0.000976562, -0.00195312, 0, 0.00390625, 0.30957, -9.81445, 12.8.2021 17:29:6.458
229, 1.91853, 0.380315, 6.80476, -0.000976562, -0.00195312, 0, -0.117188, 0.326172, -9.80078, 12.8.2021 17:29:6.466
230, 1.91811, 0.387296, 6.80465, 0, -0.000976562, 0, -0.0830078, 0.351562, -9.85742, 12.8.2021 17:29:6.474
231, 1.91811, 0.387296, 6.80465, -0.000976562, 0, 0, -0.0322266, 0.321289, -9.82324, 12.8.2021 17:29:6.482
232, 1.91811, 0.387296, 6.80465, -0.000976562, 0, 0, -0.109375, 0.344727, -9.86426, 12.8.2021 17:29:6.490
233, 1.91811, 0.387296, 6.80465, -0.00195312, -0.000976562, 0, -0.0253906, 0.305664, -9.85254, 12.8.2021 17:29:6.498
234, 1.91811, 0.387296, 6.80465, -0.00195312, -0.000976562, -0.000976562, -0.0537109, 0.324219, -9.81836, 12.8.2021 17:29:6.506
235, 1.91811, 0.387296, 6.80465, -0.000976562, -0.000976562, -0.000976562, -0.0654297, 0.335938, -9.81055, 12.8.2021 17:29:6.514
236, 1.91811, 0.387296, 6.80465, -0.000976562, 0, 0, -0.0400391, 0.291016, -9.84082, 12.8.2021 17:29:6.522
237, 1.91811, 0.387296, 6.80465, -0.000976562, -0.000976562, 0.000976562, -0.0820312, 0.328125, -9.80859, 12.8.2021 17:29:6.530
238, 1.91811, 0.387296, 6.80465, -0.000976562, -0.000976562, 0, -0.0820312, 0.329102, -9.83203, 12.8.2021 17:29:6.538
239, 1.91811, 0.387296, 6.80465, -0.000976562, -0.000976562, 0.000976562, -0.0351562, 0.302734, -9.84473, 12.8.2021 17:29:6.546
240, 1.91811, 0.387296, 6.80465, -0.00195312, -0.000976562, 0, -0.103516, 0.329102, -9.84082, 12.8.2021 17:29:6.554
241, 1.91811, 0.387296, 6.80465, -0.000976562, -0.000976562, 0.000976562, -0.0361328, 0.357422, -9.80566, 12.8.2021 17:29:6.562
242, 1.91853, 0.380315, 6.80476, -0.000976562, 0, 0.000976562, -0.0351562, 0.330078, -9.85156, 12.8.2021 17:29:6.570
243, 1.91853, 0.380315, 6.80476, -0.000976562, -0.00195312, -0.000976562, -0.0986328, 0.352539, -9.82422, 12.8.2021 17:29:6.578
244, 1.91853, 0.380315, 6.80476, 0, 0.000976562, 0, -0.0371094, 0.314453, -9.82617, 12.8.2021 17:29:6.586
245, 1.91853, 0.380315, 6.80476, -0.000976562, 0, -0.00195312, -0.0273438, 0.302734, -9.84277, 12.8.2021 17:29:6.594
246, 1.91853, 0.380315, 6.80476, -0.000976562, 0, -0.00195312, -0.0703125, 0.348633, -9.83594, 12.8.2021 17:29:6.602
247, 1.91853, 0.380315, 6.80476, -0.000976562, 0, 0, -0.000976562, 0.306641, -9.81738, 12.8.2021 17:29:6.610
248, 1.91894, 0.373334, 6.80488, -0.000976562, 0, 0, -0.0917969, 0.318359, -9.79883, 12.8.2021 17:29:6.618
249, 1.91196, 0.372919, 6.80493, 0, -0.00195312, -0.00195312, -0.0839844, 0.308594, -9.79492, 12.8.2021 17:29:6.626
250, 1.91196, 0.372919, 6.80493, 0, 0, 0, -0.0224609, 0.322266, -9.82812, 12.8.2021 17:29:6.634
251, 1.91196, 0.372919, 6.80493, 0, 0, 0, -0.0917969, 0.345703, -9.83398, 12.8.2021 17:29:6.642
252, 1.91196, 0.372919, 6.80493, -0.000976562, 0.000976562, 0, -0.0605469, 0.326172, -9.82031, 12.8.2021 17:29:6.650
253, 1.91238, 0.365938, 6.80504, -0.000976562, 0.000976562, -0.00195312, -0.0527344, 0.318359, -9.79004, 12.8.2021 17:29:6.658
254, 1.91238, 0.365938, 6.80504, -0.000976562, 0.000976562, 0, -0.0986328, 0.342773, -9.80273, 12.8.2021 17:29:6.666
255, 1.91238, 0.365938, 6.80504, -0.000976562, 0.000976562, 0, -0.0371094, 0.316406, -9.81152, 12.8.2021 17:29:6.674
256, 1.91238, 0.365938, 6.80504, -0.000976562, 0, 0, -0.0761719, 0.328125, -9.86719, 12.8.2021 17:29:6.682
257, 1.91238, 0.365938, 6.80504, 0, 0, 0.000976562, -0.120117, 0.339844, -9.7959, 12.8.2021 17:29:6.690
258, 1.91238, 0.365938, 6.80504, -0.000976562, -0.00292969, -0.000976562, -0.0419922, 0.314453, -9.83008, 12.8.2021 17:29:6.698
259, 1.91238, 0.365938, 6.80504, -0.000976562, -0.00195312, -0.000976562, -0.106445, 0.34082, -9.83105, 12.8.2021 17:29:6.706
260, 1.91238, 0.365938, 6.80504, -0.000976562, 0, 0, -0.0439453, 0.328125, -9.80664, 12.8.2021 17:29:6.714
261, 1.91196, 0.372919, 6.80493, -0.00195312, 0, 0, -0.0488281, 0.306641, -9.80957, 12.8.2021 17:29:6.722
262, 1.91196, 0.372919, 6.80493, -0.000976562, 0, -0.00195312, -0.103516, 0.353516, -9.82812, 12.8.2021 17:29:6.730
263, 1.91196, 0.372919, 6.80493, -0.000976562, 0, -0.00195312, -0.0126953, 0.326172, -9.81836, 12.8.2021 17:29:6.738
264, 1.91238, 0.365938, 6.80504, -0.000976562, 0, 0, -0.0205078, 0.329102, -9.81836, 12.8.2021 17:29:6.746
265, 1.91238, 0.365938, 6.80504, -0.000976562, 0, 0, -0.0917969, 0.338867, -9.81738, 12.8.2021 17:29:6.754
266, 1.91238, 0.365938, 6.80504, -0.000976562, 0, 0, 0.0078125, 0.308594, -9.86426, 12.8.2021 17:29:6.762
267, 1.91238, 0.365938, 6.80504, -0.000976562, 0, 0.000976562, -0.0556641, 0.317383, -9.83008, 12.8.2021 17:29:6.770
268, 1.91238, 0.365938, 6.80504, -0.000976562, -0.00195312, -0.000976562, -0.0634766, 0.357422, -9.83105, 12.8.2021 17:29:6.778
269, 1.91279, 0.358958, 6.80516, 0, 0, 0, -0.0185547, 0.322266, -9.84473, 12.8.2021 17:29:6.786
270, 1.91279, 0.358958, 6.80516, 0, 0, 0, -0.115234, 0.324219, -9.8125, 12.8.2021 17:29:6.794
271, 1.91279, 0.358958, 6.80516, 0, 0, 0, -0.0732422, 0.317383, -9.84863, 12.8.2021 17:29:6.802
272, 1.90582, 0.358542, 6.8052, -0.000976562, 0, 0, -0.0341797, 0.307617, -9.82812, 12.8.2021 17:29:6.810
273, 1.91279, 0.358958, 6.80516, -0.00195312, 0, 0, -0.123047, 0.352539, -9.82324, 12.8.2021 17:29:6.818
274, 1.91279, 0.358958, 6.80516, -0.00195312, -0.00195312, 0, -0.0224609, 0.307617, -9.82129, 12.8.2021 17:29:6.826
275, 1.91279, 0.358958, 6.80516, -0.00195312, -0.00195312, 0, -0.0556641, 0.333008, -9.80371, 12.8.2021 17:29:6.834
276, 1.91279, 0.358958, 6.80516, -0.000976562, 0, 0, -0.078125, 0.34375, -9.8457, 12.8.2021 17:29:6.842
277, 1.91279, 0.358958, 6.80516, 0, 0.000976562, -0.000976562, 0.015625, 0.3125, -9.82715, 12.8.2021 17:29:6.850
278, 1.91321, 0.351977, 6.80528, -0.000976562, 0, 0, -0.0849609, 0.336914, -9.83398, 12.8.2021 17:29:6.858
279, 1.91321, 0.351977, 6.80528, -0.000976562, 0.000976562, 0, -0.0751953, 0.345703, -9.83594, 12.8.2021 17:29:6.866
280, 1.91321, 0.351977, 6.80528, -0.000976562, 0, 0, -0.0273438, 0.321289, -9.80664, 12.8.2021 17:29:6.874
281, 1.91321, 0.351977, 6.80528, 0, 0.000976562, 0, -0.104492, 0.342773, -9.87109, 12.8.2021 17:29:6.882
282, 1.91321, 0.351977, 6.80528, -0.000976562, 0, 0, -0.0322266, 0.329102, -9.8252, 12.8.2021 17:29:6.890
283, 1.91362, 0.344997, 6.80539, -0.000976562, 0, 0, -0.0449219, 0.351562, -9.84863, 12.8.2021 17:29:6.898
284, 1.91362, 0.344997, 6.80539, 0, 0, 0, -0.078125, 0.317383, -9.83887, 12.8.2021 17:29:6.906
285, 1.91362, 0.344997, 6.80539, -0.000976562, 0, -0.000976562, -0.0205078, 0.302734, -9.84082, 12.8.2021 17:29:6.914
286, 1.91362, 0.344997, 6.80539, -0.000976562, 0, 0, -0.0664062, 0.320312, -9.86035, 12.8.2021 17:29:6.922
287, 1.91362, 0.344997, 6.80539, -0.000976562, 0, 0, -0.0605469, 0.374023, -9.82617, 12.8.2021 17:29:6.930
288, 1.91404, 0.338016, 6.80551, -0.000976562, 0.00195312, -0.000976562, -0.0195312, 0.285156, -9.80371, 12.8.2021 17:29:6.938
289, 1.91404, 0.338016, 6.80551, -0.000976562, 0, 0, -0.0800781, 0.347656, -9.8125, 12.8.2021 17:29:6.946
290, 1.91404, 0.338016, 6.80551, -0.000976562, 0, 0, -0.0849609, 0.348633, -9.82617, 12.8.2021 17:29:6.954
291, 1.91404, 0.338016, 6.80551, 0, -0.00195312, -0.00195312, -0.046875, 0.341797, -9.83887, 12.8.2021 17:29:6.962
292, 1.91404, 0.338016, 6.80551, -0.000976562, 0, 0, -0.106445, 0.331055, -9.81934, 12.8.2021 17:29:6.970
293, 1.91404, 0.338016, 6.80551, -0.000976562, -0.00195312, 0, -0.0419922, 0.317383, -9.84473, 12.8.2021 17:29:6.978
294, 1.91404, 0.338016, 6.80551, 0, -0.00195312, 0, -0.0537109, 0.305664, -9.83301, 12.8.2021 17:29:6.986
295, 1.91404, 0.338016, 6.80551, 0, 0, 0, -0.108398, 0.328125, -9.80566, 12.8.2021 17:29:6.994
296, 1.91404, 0.338016, 6.80551, -0.000976562, 0, -0.000976562, -0.0253906, 0.321289, -9.82324, 12.8.2021 17:29:7.002
297, 1.91404, 0.338016, 6.80551, 0, 0.000976562, 0, -0.0820312, 0.326172, -9.79883, 12.8.2021 17:29:7.010
298, 1.91404, 0.338016, 6.80551, -0.00195312, 0.000976562, 0, -0.0625, 0.308594, -9.79688, 12.8.2021 17:29:7.018
299, 1.91404, 0.338016, 6.80551, -0.000976562, 0, 0, -0.0253906, 0.273438, -9.82227, 12.8.2021 17:29:7.026
300, 1.91362, 0.344997, 6.80539, -0.000976562, 0, 0.000976562, -0.125977, 0.318359, -9.85254, 12.8.2021 17:29:7.034
301, 1.90665, 0.344581, 6.80544, -0.000976562, 0, 0, -0.0458984, 0.328125, -9.79688, 12.8.2021 17:29:7.040
302, 1.90665, 0.344581, 6.80544, 0, 0, 0, -0.0107422, 0.3125, -9.83789, 12.8.2021 17:29:7.048
303, 1.90665, 0.344581, 6.80544, -0.000976562, 0, 0.000976562, -0.106445, 0.327148, -9.83398, 12.8.2021 17:29:7.056
304, 1.90665, 0.344581, 6.80544, -0.000976562, 0, 0.000976562, -0.0195312, 0.313477, -9.80469, 12.8.2021 17:29:7.064
305, 1.89967, 0.344166, 6.80548, -0.000976562, 0, 0, -0.0634766, 0.302734, -9.83301, 12.8.2021 17:29:7.072
306, 1.89967, 0.344166, 6.80548, -0.000976562, -0.000976562, 0, -0.0986328, 0.317383, -9.81738, 12.8.2021 17:29:7.082
307, 1.89967, 0.344166, 6.80548, 0, 0.000976562, -0.00195312, -0.000976562, 0.322266, -9.84082, 12.8.2021 17:29:7.088
308, 1.89967, 0.344166, 6.80548, -0.000976562, 0, 0.000976562, -0.0703125, 0.329102, -9.83691, 12.8.2021 17:29:7.096
309, 1.89967, 0.344166, 6.80548, -0.000976562, -0.000976562, 0, -0.0751953, 0.320312, -9.84668, 12.8.2021 17:29:7.104
310, 1.89269, 0.343751, 6.80552, -0.00195312, -0.000976562, -0.00195312, -0.0332031, 0.313477, -9.87109, 12.8.2021 17:29:7.112
311, 1.89269, 0.343751, 6.80552, -0.000976562, 0.00195312, 0, -0.105469, 0.316406, -9.81543, 12.8.2021 17:29:7.120
312, 1.89311, 0.33677, 6.80563, -0.000976562, 0.00195312, 0, -0.0419922, 0.331055, -9.8252, 12.8.2021 17:29:7.128
313, 1.89311, 0.33677, 6.80563, 0, -0.000976562, 0, -0.0390625, 0.332031, -9.83203, 12.8.2021 17:29:7.136
314, 1.89311, 0.33677, 6.80563, 0, -0.000976562, 0, -0.101562, 0.348633, -9.82812, 12.8.2021 17:29:7.144
315, 1.89311, 0.33677, 6.80563, -0.000976562, -0.000976562, 0, -0.0400391, 0.31543, -9.83789, 12.8.2021 17:29:7.152
316, 1.89269, 0.343751, 6.80552, -0.000976562, -0.000976562, -0.00195312, -0.078125, 0.310547, -9.84375, 12.8.2021 17:29:7.160
317, 1.88571, 0.343335, 6.80556, -0.000976562, 0.000976562, -0.000976562, -0.0732422, 0.329102, -9.83203, 12.8.2021 17:29:7.168
318, 1.88571, 0.343335, 6.80556, -0.000976562, 0, 0, -0.0234375, 0.303711, -9.86914, 12.8.2021 17:29:7.176
319, 1.88571, 0.343335, 6.80556, -0.000976562, -0.000976562, 0, -0.0917969, 0.342773, -9.81445, 12.8.2021 17:29:7.184
320, 1.88571, 0.343335, 6.80556, -0.000976562, -0.000976562, 0, -0.0917969, 0.329102, -9.82031, 12.8.2021 17:29:7.192
321, 1.88571, 0.343335, 6.80556, -0.00195312, -0.000976562, 0, -0.0371094, 0.292969, -9.83398, 12.8.2021 17:29:7.200
322, 1.88571, 0.343335, 6.80556, -0.00195312, 0, 0, -0.0966797, 0.322266, -9.83887, 12.8.2021 17:29:7.208
323, 1.88571, 0.343335, 6.80556, -0.00195312, -0.000976562, 0, -0.0488281, 0.310547, -9.83789, 12.8.2021 17:29:7.216
324, 1.88571, 0.343335, 6.80556, -0.000976562, -0.000976562, 0, -0.0439453, 0.335938, -9.83203, 12.8.2021 17:29:7.224
325, 1.88571, 0.343335, 6.80556, 0, -0.000976562, 0, -0.0917969, 0.335938, -9.81445, 12.8.2021 17:29:7.232
326, 1.88571, 0.343335, 6.80556, -0.000976562, -0.000976562, 0, -0.00585938, 0.311523, -9.81738, 12.8.2021 17:29:7.240
327, 1.88571, 0.343335, 6.80556, -0.000976562, -0.000976562, -0.00195312, -0.0830078, 0.322266, -9.84863, 12.8.2021 17:29:7.248
328, 1.88571, 0.343335, 6.80556, 0, -0.000976562, -0.00195312, -0.0917969, 0.382812, -9.85352, 12.8.2021 17:29:7.256
329, 1.88571, 0.343335, 6.80556, 0, 0, 0, -0.0234375, 0.310547, -9.84473, 12.8.2021 17:29:7.264
330, 1.8853, 0.350316, 6.80545, -0.000976562, -0.000976562, 0, -0.108398, 0.347656, -9.81152, 12.8.2021 17:29:7.272
331, 1.8853, 0.350316, 6.80545, -0.000976562, -0.000976562, 0, -0.0576172, 0.331055, -9.80176, 12.8.2021 17:29:7.280
332, 1.8853, 0.350316, 6.80545, -0.00195312, -0.000976562, 0.000976562, -0.0488281, 0.3125, -9.82129, 12.8.2021 17:29:7.288
333, 1.89228, 0.350731, 6.8054, -0.000976562, 0, 0.000976562, -0.0800781, 0.333984, -9.82227, 12.8.2021 17:29:7.296
334, 1.89228, 0.350731, 6.8054, -0.000976562, -0.000976562, 0.000976562, -0.0292969, 0.316406, -9.82129, 12.8.2021 17:29:7.304
335, 1.89228, 0.350731, 6.8054, -0.000976562, -0.000976562, 0.000976562, -0.0605469, 0.3125, -9.82129, 12.8.2021 17:29:7.312
336, 1.89228, 0.350731, 6.8054, -0.000976562, -0.000976562, -0.00195312, -0.0849609, 0.336914, -9.85059, 12.8.2021 17:29:7.320
337, 1.89228, 0.350731, 6.8054, -0.000976562, 0, 0, -0.0371094, 0.322266, -9.83301, 12.8.2021 17:29:7.328
338, 1.89228, 0.350731, 6.8054, -0.000976562, 0, 0.000976562, -0.103516, 0.352539, -9.80957, 12.8.2021 17:29:7.336
339, 1.89228, 0.350731, 6.8054, -0.000976562, -0.000976562, 0, -0.0751953, 0.348633, -9.84082, 12.8.2021 17:29:7.344
340, 1.89228, 0.350731, 6.8054, 0.000976562, -0.000976562, 0, -0.015625, 0.316406, -9.80762, 12.8.2021 17:29:7.352
341, 1.89228, 0.350731, 6.8054, -0.000976562, -0.000976562, 0.000976562, -0.0986328, 0.352539, -9.80762, 12.8.2021 17:29:7.360
342, 1.89925, 0.351146, 6.80536, -0.000976562, -0.000976562, 0, -0.0634766, 0.330078, -9.85352, 12.8.2021 17:29:7.368
343, 1.89925, 0.351146, 6.80536, -0.000976562, -0.000976562, 0, -0.0400391, 0.320312, -9.85645, 12.8.2021 17:29:7.376
344, 1.89925, 0.351146, 6.80536, 0.000976562, -0.000976562, 0, -0.0888672, 0.350586, -9.81738, 12.8.2021 17:29:7.384
345, 1.89925, 0.351146, 6.80536, 0.000976562, -0.000976562, 0, -0.0175781, 0.328125, -9.80957, 12.8.2021 17:29:7.392
346, 1.8993, 0.35103, 6.79843, -0.000976562, -0.000976562, 0.000976562, -0.0722656, 0.337891, -9.80762, 12.8.2021 17:29:7.400
347, 1.89888, 0.35801, 6.79831, 0.000976562, -0.000976562, 0, -0.0839844, 0.326172, -9.81543, 12.8.2021 17:29:7.408
348, 1.89888, 0.35801, 6.79831, 0.000976562, -0.000976562, -0.00195312, -0.0263672, 0.277344, -9.87207, 12.8.2021 17:29:7.416
349, 1.89884, 0.358127, 6.80525, -0.000976562, -0.000976562, 0, -0.0849609, 0.301758, -9.86523, 12.8.2021 17:29:7.424
350, 1.89888, 0.35801, 6.79831, 0.000976562, -0.000976562, 0.000976562, -0.0654297, 0.319336, -9.82715, 12.8.2021 17:29:7.432
351, 1.89888, 0.35801, 6.79831, 0.000976562, 0, 0, -0.0322266, 0.319336, -9.82129, 12.8.2021 17:29:7.440
352, 1.89514, 0.354025, 5.31237, -0.000976562, -0.000976562, 0, -0.108398, 0.329102, -9.82617, 12.8.2021 17:29:7.448
353, 1.89537, 0.35823, 5.14433, -0.000976562, -0.000976562, 0, -0.0390625, 0.30957, -9.83301, 12.8.2021 17:29:7.456
354, 1.89571, 0.357181, 5.0817, 0.000976562, 0, -0.00195312, -0.0488281, 0.326172, -9.7998, 12.8.2021 17:29:7.464
355, 1.89586, 0.356715, 5.05386, 0.000976562, -0.000976562, -0.00195312, -0.0966797, 0.3125, -9.8457, 12.8.2021 17:29:7.472
356, 1.89586, 0.356715, 5.05386, 0.000976562, -0.000976562, 0, -0.0195312, 0.326172, -9.81152, 12.8.2021 17:29:7.480
357, 1.89586, 0.356715, 5.05386, -0.000976562, -0.000976562, 0, -0.0732422, 0.336914, -9.84375, 12.8.2021 17:29:7.488
358, 1.89586, 0.356715, 5.05386, -0.000976562, -0.000976562, 0, -0.0791016, 0.342773, -9.80566, 12.8.2021 17:29:7.496
359, 1.89586, 0.356715, 5.05386, -0.000976562, -0.000976562, 0.000976562, -0.0556641, 0.319336, -9.82812, 12.8.2021 17:29:7.504
360, 1.89586, 0.356715, 5.05386, 0.000976562, 0, 0, -0.115234, 0.311523, -9.7959, 12.8.2021 17:29:7.512
361, 1.89586, 0.356715, 5.05386, 0.000976562, -0.000976562, 0, -0.0673828, 0.331055, -9.81543, 12.8.2021 17:29:7.520
362, 1.89586, 0.356715, 5.05386, 0.000976562, -0.000976562, -0.00195312, -0.0429688, 0.326172, -9.88184, 12.8.2021 17:29:7.528
363, 1.89586, 0.356715, 5.05386, 0.000976562, 0, 0, -0.0820312, 0.324219, -9.81738, 12.8.2021 17:29:7.536
364, 1.88887, 0.356406, 5.0539, -0.00195312, 0, 0.000976562, -0.0371094, 0.314453, -9.82617, 12.8.2021 17:29:7.544
365, 1.88887, 0.356406, 5.0539, -0.000976562, -0.000976562, 0.000976562, -0.0605469, 0.316406, -9.81348, 12.8.2021 17:29:7.552
366, 1.88887, 0.356406, 5.0539, 0.000976562, 0, 0, -0.0898438, 0.329102, -9.83398, 12.8.2021 17:29:7.560
367, 1.88887, 0.356406, 5.0539, -0.000976562, 0, 0, -0.0351562, 0.317383, -9.84668, 12.8.2021 17:29:7.568
368, 1.88887, 0.356406, 5.0539, -0.00195312, 0, 0, -0.0996094, 0.341797, -9.85449, 12.8.2021 17:29:7.576
369, 1.88887, 0.356406, 5.0539, -0.00195312, 0, 0, -0.0771484, 0.325195, -9.78516, 12.8.2021 17:29:7.584
370, 1.88856, 0.363392, 5.05379, -0.000976562, -0.000976562, -0.000976562, -0.0253906, 0.305664, -9.85938, 12.8.2021 17:29:7.592
371, 1.88856, 0.363392, 5.05379, -0.000976562, -0.000976562, -0.000976562, -0.101562, 0.344727, -9.86133, 12.8.2021 17:29:7.600
372, 1.88856, 0.363392, 5.05379, -0.000976562, -0.000976562, -0.000976562, -0.0576172, 0.321289, -9.80176, 12.8.2021 17:29:7.608
373, 1.88856, 0.363392, 5.05379, -0.000976562, 0, -0.000976562, -0.03125, 0.326172, -9.7998, 12.8.2021 17:29:7.616
374, 1.88856, 0.363392, 5.05379, 0, -0.000976562, -0.000976562, -0.0986328, 0.347656, -9.80078, 12.8.2021 17:29:7.624
375, 1.88856, 0.363392, 5.05379, -0.000976562, -0.00195312, -0.000976562, -0.00292969, 0.316406, -9.81445, 12.8.2021 17:29:7.632
376, 1.88856, 0.363392, 5.05379, 0, -0.000976562, -0.000976562, -0.0654297, 0.327148, -9.83496, 12.8.2021 17:29:7.640
377, 1.88856, 0.363392, 5.05379, 0, -0.000976562, -0.000976562, -0.0966797, 0.359375, -9.81152, 12.8.2021 17:29:7.648
378, 1.88856, 0.363392, 5.05379, 0, -0.000976562, -0.000976562, -0.0292969, 0.328125, -9.80859, 12.8.2021 17:29:7.656
379, 1.88856, 0.363392, 5.05379, 0.000976562, -0.00195312, -0.000976562, -0.0966797, 0.351562, -9.85645, 12.8.2021 17:29:7.664
380, 1.89555, 0.363701, 5.05375, 0, -0.000976562, -0.000976562, -0.0830078, 0.34668, -9.86914, 12.8.2021 17:29:7.672
381, 1.89555, 0.363701, 5.05375, 0, -0.000976562, -0.000976562, -0.046875, 0.291016, -9.83594, 12.8.2021 17:29:7.680
382, 1.89555, 0.363701, 5.05375, -0.000976562, -0.000976562, -0.000976562, -0.110352, 0.345703, -9.81641, 12.8.2021 17:29:7.688
383, 1.89555, 0.363701, 5.05375, -0.000976562, -0.000976562, -0.000976562, -0.0751953, 0.333984, -9.82715, 12.8.2021 17:29:7.696
384, 1.89524, 0.370687, 5.05363, 0, -0.000976562, -0.00195312, -0.0683594, 0.310547, -9.84668, 12.8.2021 17:29:7.704
385, 1.89524, 0.370687, 5.05363, 0, -0.00195312, -0.000976562, -0.078125, 0.34668, -9.84082, 12.8.2021 17:29:7.712
386, 1.89524, 0.370687, 5.05363, 0, -0.00195312, -0.00195312, -0.0136719, 0.302734, -9.83594, 12.8.2021 17:29:7.720
387, 1.89524, 0.370687, 5.05363, -0.000976562, 0, -0.000976562, -0.0800781, 0.330078, -9.8457, 12.8.2021 17:29:7.728
388, 1.89524, 0.370687, 5.05363, -0.000976562, 0, -0.00195312, -0.0625, 0.334961, -9.79199, 12.8.2021 17:29:7.736
389, 1.90222, 0.370996, 5.05359, -0.000976562, 0, -0.000976562, -0.0136719, 0.318359, -9.85938, 12.8.2021 17:29:7.744
390, 1.90222, 0.370996, 5.05359, -0.000976562, -0.000976562, -0.000976562, -0.0927734, 0.330078, -9.86426, 12.8.2021 17:29:7.752
391, 1.90222, 0.370996, 5.05359, -0.000976562, -0.000976562, -0.000976562, -0.046875, 0.336914, -9.83691, 12.8.2021 17:29:7.760
392, 1.90222, 0.370996, 5.05359, -0.000976562, -0.000976562, -0.000976562, -0.0292969, 0.318359, -9.79785, 12.8.2021 17:29:7.768
393, 1.90222, 0.370996, 5.05359, -0.000976562, -0.000976562, -0.00195312, -0.0966797, 0.318359, -9.85547, 12.8.2021 17:29:7.776
394, 1.90222, 0.370996, 5.05359, -0.000976562, -0.000976562, -0.00195312, -0.03125, 0.323242, -9.88672, 12.8.2021 17:29:7.784
395, 1.90222, 0.370996, 5.05359, -0.000976562, 0, -0.000976562, -0.0498047, 0.308594, -9.85156, 12.8.2021 17:29:7.792
396, 1.90222, 0.370996, 5.05359, -0.000976562, -0.000976562, -0.000976562, -0.0947266, 0.355469, -9.83301, 12.8.2021 17:29:7.800
397, 1.90222, 0.370996, 5.05359, 0, 0, -0.000976562, 0.00390625, 0.318359, -9.80762, 12.8.2021 17:29:7.808
398, 1.90253, 0.36401, 5.05371, -0.000976562, 0, -0.000976562, -0.100586, 0.34082, -9.80273, 12.8.2021 17:29:7.816
399, 1.90253, 0.36401, 5.05371, -0.000976562, -0.000976562, -0.00195312, -0.0800781, 0.329102, -9.84082, 12.8.2021 17:29:7.824
400, 1.90249, 0.364127, 5.06067, -0.000976562, -0.000976562, -0.00195312, -0.0371094, 0.305664, -9.84473, 12.8.2021 17:29:7.832
401, 1.90249, 0.364127, 5.06067, -0.000976562, -0.000976562, -0.000976562, -0.111328, 0.329102, -9.83398, 12.8.2021 17:29:7.840
402, 1.90249, 0.364127, 5.06067, -0.000976562, -0.000976562, 0.000976562, -0.0517578, 0.317383, -9.8418, 12.8.2021 17:29:7.848
403, 1.90253, 0.36401, 5.05371, -0.000976562, -0.000976562, 0, -0.0439453, 0.319336, -9.8252, 12.8.2021 17:29:7.856
404, 1.90253, 0.36401, 5.05371, -0.000976562, -0.000976562, 0, -0.0830078, 0.34668, -9.86426, 12.8.2021 17:29:7.864
405, 1.90253, 0.36401, 5.05371, -0.000976562, -0.00195312, 0, -0.015625, 0.338867, -9.84473, 12.8.2021 17:29:7.872
406, 1.90253, 0.36401, 5.05371, -0.000976562, -0.000976562, 0, -0.0654297, 0.335938, -9.81738, 12.8.2021 17:29:7.880
407, 1.90253, 0.36401, 5.05371, 0, 0, 0, -0.0800781, 0.347656, -9.81445, 12.8.2021 17:29:7.888
408, 1.90253, 0.36401, 5.05371, 0.000976562, -0.000976562, -0.000976562, -0.00390625, 0.333984, -9.83789, 12.8.2021 17:29:7.896
409, 1.90253, 0.36401, 5.05371, 0, -0.000976562, 0, -0.0703125, 0.338867, -9.83398, 12.8.2021 17:29:7.904
410, 1.90284, 0.357024, 5.05383, 0, -0.000976562, 0, -0.0751953, 0.329102, -9.81738, 12.8.2021 17:29:7.912
411, 1.90284, 0.357024, 5.05383, 0.000976562, -0.000976562, 0, -0.0273438, 0.322266, -9.83496, 12.8.2021 17:29:7.920
412, 1.90284, 0.357024, 5.05383, -0.000976562, -0.000976562, 0, -0.117188, 0.347656, -9.80469, 12.8.2021 17:29:7.928
413, 1.90982, 0.357332, 5.05379, -0.000976562, -0.000976562, 0, -0.046875, 0.336914, -9.83691, 12.8.2021 17:29:7.936
414, 1.90982, 0.357332, 5.05379, 0, 0.000976562, -0.000976562, -0.0488281, 0.304688, -9.7998, 12.8.2021 17:29:7.944
415, 1.90982, 0.357332, 5.05379, 0, 0.000976562, -0.000976562, -0.0839844, 0.345703, -9.81445, 12.8.2021 17:29:7.952
416, 1.90979, 0.35745, 5.06075, -0.000976562, -0.00195312, 0, 0.000976562, 0.330078, -9.85156, 12.8.2021 17:29:7.960
417, 1.90982, 0.357332, 5.05379, 0, -0.000976562, 0, -0.0634766, 0.345703, -9.82227, 12.8.2021 17:29:7.968
418, 1.91013, 0.350346, 5.05391, -0.000976562, -0.000976562, 0, -0.109375, 0.349609, -9.88086, 12.8.2021 17:29:7.976
419, 1.91013, 0.350346, 5.05391, -0.000976562, -0.000976562, 0, -0.0224609, 0.306641, -9.80957, 12.8.2021 17:29:7.982
420, 1.91013, 0.350346, 5.05391, -0.000976562, -0.000976562, 0.000976562, -0.0703125, 0.34668, -9.84375, 12.8.2021 17:29:7.992
421, 1.91713, 0.349493, 4.98335, 0, -0.000976562, 0, -0.0537109, 0.345703, -9.8125, 12.8.2021 17:29:7.998
422, 1.91731, 0.348904, 4.94855, 0, -0.000976562, 0, -0.0253906, 0.332031, -9.8418, 12.8.2021 17:29:8.006
423, 1.91742, 0.34855, 4.92766, 0, -0.000976562, 0, -0.0986328, 0.352539, -9.81641, 12.8.2021 17:29:8.014
424, 1.91746, 0.348432, 4.9207, -0.000976562, -0.000976562, 0, -0.0380859, 0.347656, -9.87695, 12.8.2021 17:29:8.022
425, 1.91753, 0.348197, 4.90678, -0.000976562, -0.000976562, 0.000976562, -0.0605469, 0.317383, -9.82812, 12.8.2021 17:29:8.030
426, 1.91757, 0.348079, 4.89982, -0.000976562, -0.000976562, 0.000976562, -0.09375, 0.319336, -9.82715, 12.8.2021 17:29:8.038
427, 1.91761, 0.347961, 4.89285, -0.000976562, -0.000976562, -0.000976562, -0.0292969, 0.323242, -9.7998, 12.8.2021 17:29:8.046
428, 1.91761, 0.347961, 4.89285, -0.000976562, -0.000976562, 0, -0.101562, 0.367188, -9.82324, 12.8.2021 17:29:8.054
429, 1.91761, 0.347961, 4.89285, -0.000976562, 0, 0.000976562, -0.0771484, 0.335938, -9.8125, 12.8.2021 17:29:8.062
430, 1.91761, 0.347961, 4.89285, -0.000976562, 0, 0, -0.0371094, 0.304688, -9.81445, 12.8.2021 17:29:8.070
431, 1.92459, 0.34826, 4.89282, -0.000976562, 0, 0, -0.111328, 0.348633, -9.85449, 12.8.2021 17:29:8.078
432, 1.92459, 0.34826, 4.89282, -0.00195312, -0.000976562, 0, -0.0703125, 0.34082, -9.82422, 12.8.2021 17:29:8.086
433, 1.92459, 0.34826, 4.89282, -0.000976562, -0.000976562, 0, -0.0595703, 0.31543, -9.77832, 12.8.2021 17:29:8.094
434, 1.92459, 0.34826, 4.89282, 0, -0.000976562, -0.00195312, -0.0966797, 0.333008, -9.8125, 12.8.2021 17:29:8.102
435, 1.92459, 0.34826, 4.89282, -0.000976562, -0.000976562, 0, -0.0351562, 0.30957, -9.83105, 12.8.2021 17:29:8.110
436, 1.92459, 0.34826, 4.89282, -0.000976562, 0, 0, -0.0683594, 0.332031, -9.8623, 12.8.2021 17:29:8.118
437, 1.92459, 0.34826, 4.89282, -0.000976562, 0, -0.00195312, -0.0966797, 0.338867, -9.8291, 12.8.2021 17:29:8.126
438, 1.92459, 0.34826, 4.89282, 0, -0.000976562, 0, 0.00390625, 0.328125, -9.7998, 12.8.2021 17:29:8.134
439, 1.92459, 0.34826, 4.89282, 0, -0.00195312, -0.000976562, -0.0742188, 0.342773, -9.79883, 12.8.2021 17:29:8.142
440, 1.92459, 0.34826, 4.89282, 0, -0.000976562, 0, -0.0888672, 0.338867, -9.81738, 12.8.2021 17:29:8.150
441, 1.92459, 0.34826, 4.89282, -0.00195312, -0.00195312, 0, -0.0332031, 0.328125, -9.86328, 12.8.2021 17:29:8.158
442, 1.92459, 0.34826, 4.89282, -0.000976562, -0.000976562, 0, -0.118164, 0.333984, -9.8125, 12.8.2021 17:29:8.166
443, 1.92459, 0.34826, 4.89282, 0, -0.000976562, -0.00195312, -0.0517578, 0.353516, -9.84375, 12.8.2021 17:29:8.174
444, 1.93154, 0.348677, 4.89974, -0.000976562, -0.000976562, 0, -0.0488281, 0.319336, -9.81152, 12.8.2021 17:29:8.182
445, 1.93154, 0.348677, 4.89974, -0.000976562, -0.000976562, 0, -0.09375, 0.357422, -9.82812, 12.8.2021 17:29:8.190
446, 1.93154, 0.348677, 4.89974, -0.000976562, -0.000976562, 0, 0.00390625, 0.316406, -9.82422, 12.8.2021 17:29:8.198
447, 1.93124, 0.355664, 4.89963, -0.000976562, -0.000976562, -0.00195312, -0.078125, 0.313477, -9.85156, 12.8.2021 17:29:8.206
448, 1.93124, 0.355664, 4.89963, -0.000976562, 0, -0.00195312, -0.0634766, 0.331055, -9.81836, 12.8.2021 17:29:8.214
449, 1.93124, 0.355664, 4.89963, -0.00195312, 0, 0, -0.0126953, 0.277344, -9.78906, 12.8.2021 17:29:8.222
450, 1.93124, 0.355664, 4.89963, 0, -0.000976562, 0, -0.0605469, 0.333008, -9.80176, 12.8.2021 17:29:8.230
451, 1.93124, 0.355664, 4.89963, 0, -0.000976562, 0, -0.0595703, 0.339844, -9.77539, 12.8.2021 17:29:8.238
452, 1.93124, 0.355664, 4.89963, 0, -0.000976562, -0.00195312, -0.03125, 0.313477, -9.79492, 12.8.2021 17:29:8.246
453, 1.93124, 0.355664, 4.89963, -0.000976562, -0.000976562, 0, -0.0869141, 0.359375, -9.80762, 12.8.2021 17:29:8.254
454, 1.93124, 0.355664, 4.89963, 0, -0.000976562, 0, -0.0234375, 0.308594, -9.85449, 12.8.2021 17:29:8.262
455, 1.93124, 0.355664, 4.89963, 0.000976562, -0.000976562, 0, -0.0566406, 0.341797, -9.8418, 12.8.2021 17:29:8.270
456, 1.93124, 0.355664, 4.89963, -0.000976562, -0.000976562, 0, -0.115234, 0.331055, -9.79785, 12.8.2021 17:29:8.278
457, 1.93124, 0.355664, 4.89963, -0.000976562, -0.000976562, 0, -0.0234375, 0.325195, -9.84668, 12.8.2021 17:29:8.286
458, 1.93124, 0.355664, 4.89963, -0.000976562, -0.000976562, 0, -0.0771484, 0.329102, -9.8252, 12.8.2021 17:29:8.294
459, 1.93124, 0.355664, 4.89963, 0, -0.00195312, -0.000976562, -0.0869141, 0.335938, -9.80078, 12.8.2021 17:29:8.302
460, 1.93124, 0.355664, 4.89963, -0.000976562, -0.000976562, 0, -0.0224609, 0.317383, -9.83301, 12.8.2021 17:29:8.310
461, 1.93124, 0.355664, 4.89963, 0, -0.000976562, 0, -0.126953, 0.302734, -9.81055, 12.8.2021 17:29:8.318
462, 1.93124, 0.355664, 4.89963, -0.000976562, -0.000976562, 0, -0.0507812, 0.333008, -9.79688, 12.8.2021 17:29:8.326
463, 1.93124, 0.355664, 4.89963, 0, -0.000976562, 0, -0.0107422, 0.333984, -9.82812, 12.8.2021 17:29:8.334
464, 1.93124, 0.355664, 4.89963, -0.000976562, -0.000976562, 0, -0.0986328, 0.375, -9.83496, 12.8.2021 17:29:8.342
465, 1.93124, 0.355664, 4.89963, 0, -0.000976562, -0.00195312, -0.0253906, 0.326172, -9.82617, 12.8.2021 17:29:8.350
466, 1.93124, 0.355664, 4.89963, -0.000976562, 0.000976562, -0.000976562, -0.0390625, 0.317383, -9.83496, 12.8.2021 17:29:8.358
467, 1.93154, 0.348677, 4.89974, 0, 0.00195312, 0, -0.0849609, 0.338867, -9.8457, 12.8.2021 17:29:8.366
468, 1.93154, 0.348677, 4.89974, -0.000976562, 0.000976562, -0.000976562, -0.0253906, 0.345703, -9.8252, 12.8.2021 17:29:8.374
469, 1.93154, 0.348677, 4.89974, -0.000976562, -0.000976562, -0.000976562, -0.0917969, 0.329102, -9.8125, 12.8.2021 17:29:8.382
470, 1.93154, 0.348677, 4.89974, 0, -0.000976562, 0, -0.0507812, 0.344727, -9.79688, 12.8.2021 17:29:8.390
471, 1.93154, 0.348677, 4.89974, -0.000976562, -0.000976562, 0, -0.0224609, 0.323242, -9.80664, 12.8.2021 17:29:8.398
472, 1.93154, 0.348677, 4.89974, -0.000976562, -0.000976562, 0, -0.0888672, 0.334961, -9.78906, 12.8.2021 17:29:8.406
473, 1.93154, 0.348677, 4.89974, -0.000976562, -0.000976562, 0, -0.0439453, 0.327148, -9.83008, 12.8.2021 17:29:8.414
474, 1.93154, 0.348677, 4.89974, -0.000976562, -0.000976562, -0.000976562, -0.0527344, 0.308594, -9.77832, 12.8.2021 17:29:8.422
475, 1.93154, 0.348677, 4.89974, -0.00195312, -0.000976562, -0.000976562, -0.0800781, 0.317383, -9.85059, 12.8.2021 17:29:8.430
476, 1.93154, 0.348677, 4.89974, -0.000976562, -0.000976562, -0.000976562, -0.0322266, 0.316406, -9.80957, 12.8.2021 17:29:8.438
477, 1.93154, 0.348677, 4.89974, -0.00195312, -0.000976562, -0.000976562, -0.0820312, 0.3125, -9.82031, 12.8.2021 17:29:8.446
478, 1.93154, 0.348677, 4.89974, -0.000976562, 0.000976562, -0.000976562, -0.0820312, 0.345703, -9.8291, 12.8.2021 17:29:8.454
479, 1.93154, 0.348677, 4.89974, -0.000976562, 0.000976562, -0.000976562, -0.0253906, 0.314453, -9.82324, 12.8.2021 17:29:8.462
480, 1.93154, 0.348677, 4.89974, -0.000976562, -0.00195312, 0, -0.0908203, 0.320312, -9.78711, 12.8.2021 17:29:8.470
481, 1.93154, 0.348677, 4.89974, -0.000976562, -0.00195312, 0, -0.0683594, 0.333984, -9.8252, 12.8.2021 17:29:8.478
482, 1.93154, 0.348677, 4.89974, -0.000976562, -0.000976562, -0.000976562, -0.0224609, 0.314453, -9.81445, 12.8.2021 17:29:8.486
483, 1.93154, 0.348677, 4.89974, 0, -0.000976562, -0.000976562, -0.0947266, 0.341797, -9.84766, 12.8.2021 17:29:8.494
484, 1.93154, 0.348677, 4.89974, 0, -0.000976562, 0, -0.0205078, 0.34082, -9.82324, 12.8.2021 17:29:8.502
485, 1.93154, 0.348677, 4.89974, -0.000976562, 0.000976562, 0, -0.0517578, 0.310547, -9.83496, 12.8.2021 17:29:8.510
486, 1.93184, 0.341691, 4.89986, 0, 0.000976562, -0.000976562, -0.09375, 0.34082, -9.8125, 12.8.2021 17:29:8.518
487, 1.93184, 0.341691, 4.89986, 0, -0.000976562, 0, 0.0107422, 0.301758, -9.8125, 12.8.2021 17:29:8.526
488, 1.92485, 0.341392, 4.8999, -0.000976562, -0.000976562, 0, -0.0458984, 0.283203, -9.80957, 12.8.2021 17:29:8.534
489, 1.92485, 0.341392, 4.8999, -0.000976562, -0.000976562, 0, -0.0654297, 0.319336, -9.83496, 12.8.2021 17:29:8.542
490, 1.92485, 0.341392, 4.8999, -0.000976562, -0.00195312, 0.000976562, -0.0205078, 0.324219, -9.82617, 12.8.2021 17:29:8.550
491, 1.92485, 0.341392, 4.8999, -0.000976562, -0.000976562, 0, -0.101562, 0.336914, -9.83398, 12.8.2021 17:29:8.558
492, 1.92485, 0.341392, 4.8999, -0.000976562, -0.000976562, 0, -0.0761719, 0.361328, -9.86914, 12.8.2021 17:29:8.566
493, 1.92485, 0.341392, 4.8999, -0.000976562, -0.000976562, 0, -0.0498047, 0.318359, -9.85645, 12.8.2021 17:29:8.574
494, 1.92485, 0.341392, 4.8999, 0, -0.000976562, 0, -0.105469, 0.335938, -9.80957, 12.8.2021 17:29:8.582
495, 1.92485, 0.341392, 4.8999, 0, -0.000976562, 0, -0.0175781, 0.316406, -9.81152, 12.8.2021 17:29:8.590
496, 1.92485, 0.341392, 4.8999, 0, -0.000976562, 0, -0.0507812, 0.307617, -9.81641, 12.8.2021 17:29:8.598
497, 1.92485, 0.341392, 4.8999, -0.00195312, 0.000976562, 0, -0.0908203, 0.342773, -9.7959, 12.8.2021 17:29:8.606
498, 1.92485, 0.341392, 4.8999, -0.00195312, -0.000976562, 0, -0.0205078, 0.305664, -9.84277, 12.8.2021 17:29:8.614
499, 1.92485, 0.341392, 4.8999, -0.000976562, -0.000976562, 0, -0.0966797, 0.308594, -9.85352, 12.8.2021 17:29:8.622
500, 1.92485, 0.341392, 4.8999, -0.000976562, -0.000976562, 0, -0.0800781, 0.334961, -9.85742, 12.8.2021 17:29:8.630
501, 1.91787, 0.341092, 4.89993, 0, 0, -0.000976562, -0.0371094, 0.30957, -9.83301, 12.8.2021 17:29:8.638
502, 1.91787, 0.341092, 4.89993, 0, -0.000976562, 0, -0.0917969, 0.333984, -9.84375, 12.8.2021 17:29:8.646
503, 1.91787, 0.341092, 4.89993, 0, -0.000976562, 0, -0.0302734, 0.329102, -9.83008, 12.8.2021 17:29:8.654
504, 1.91787, 0.341092, 4.89993, -0.000976562, 0, 0, -0.0439453, 0.321289, -9.79492, 12.8.2021 17:29:8.662
505, 1.91817, 0.334106, 4.90005, -0.000976562, 0, 0, -0.0820312, 0.34082, -9.80762, 12.8.2021 17:29:8.670
506, 1.91817, 0.334106, 4.90005, -0.000976562, -0.000976562, 0, -0.03125, 0.339844, -9.79004, 12.8.2021 17:29:8.678
507, 1.91817, 0.334106, 4.90005, -0.00195312, -0.000976562, 0, -0.0703125, 0.316406, -9.81348, 12.8.2021 17:29:8.686
508, 1.91817, 0.334106, 4.90005, -0.000976562, -0.000976562, 0, -0.0986328, 0.352539, -9.82422, 12.8.2021 17:29:8.694
509, 1.91817, 0.334106, 4.90005, 0, 0, 0, -0.0341797, 0.307617, -9.81934, 12.8.2021 17:29:8.702
510, 1.91118, 0.333806, 4.90009, 0, -0.000976562, 0, -0.101562, 0.338867, -9.82422, 12.8.2021 17:29:8.710
511, 1.91118, 0.333806, 4.90009, -0.000976562, -0.000976562, 0, -0.0419922, 0.34668, -9.84863, 12.8.2021 17:29:8.718
512, 1.91118, 0.333806, 4.90009, 0, -0.00195312, 0, -0.0244141, 0.295898, -9.77441, 12.8.2021 17:29:8.726
513, 1.91088, 0.340793, 4.89997, 0, -0.00195312, 0, -0.110352, 0.333984, -9.81934, 12.8.2021 17:29:8.734
514, 1.91088, 0.340793, 4.89997, -0.000976562, -0.00195312, 0.000976562, -0.0419922, 0.325195, -9.85156, 12.8.2021 17:29:8.742
515, 1.91088, 0.340793, 4.89997, -0.000976562, -0.000976562, 0.000976562, -0.046875, 0.299805, -9.82324, 12.8.2021 17:29:8.750
516, 1.91088, 0.340793, 4.89997, -0.000976562, -0.00195312, 0.000976562, -0.09375, 0.324219, -9.81543, 12.8.2021 17:29:8.758
517, 1.91092, 0.340676, 4.89301, -0.000976562, -0.00195312, 0, -0.0361328, 0.316406, -9.79004, 12.8.2021 17:29:8.766
518, 1.91092, 0.340676, 4.89301, -0.000976562, -0.000976562, 0, -0.0986328, 0.333008, -9.80566, 12.8.2021 17:29:8.774
519, 1.91092, 0.340676, 4.89301, -0.000976562, -0.000976562, 0, -0.0800781, 0.348633, -9.84277, 12.8.2021 17:29:8.782
520, 1.91092, 0.340676, 4.89301, -0.00195312, -0.000976562, -0.000976562, -0.0175781, 0.326172, -9.81152, 12.8.2021 17:29:8.790
521, 1.91092, 0.340676, 4.89301, -0.000976562, -0.000976562, -0.000976562, -0.120117, 0.3125, -9.82422, 12.8.2021 17:29:8.798
522, 1.91092, 0.340676, 4.89301, -0.000976562, 0, 0, -0.0556641, 0.3125, -9.82129, 12.8.2021 17:29:8.806
523, 1.91092, 0.340676, 4.89301, -0.000976562, -0.000976562, 0, -0.0498047, 0.289062, -9.85254, 12.8.2021 17:29:8.814
524, 1.91092, 0.340676, 4.89301, -0.000976562, -0.000976562, 0, -0.103516, 0.3125, -9.83398, 12.8.2021 17:29:8.822
525, 1.91092, 0.340676, 4.89301, -0.000976562, -0.000976562, 0, -0.0439453, 0.328125, -9.7998, 12.8.2021 17:29:8.830
526, 1.90394, 0.340377, 4.89304, -0.000976562, 0, 0, -0.0751953, 0.304688, -9.82031, 12.8.2021 17:29:8.838
527, 1.90394, 0.340377, 4.89304, -0.000976562, -0.000976562, -0.000976562, -0.0898438, 0.330078, -9.8623, 12.8.2021 17:29:8.846
528, 1.90364, 0.347363, 4.89293, -0.00195312, -0.000976562, -0.000976562, -0.0136719, 0.332031, -9.85449, 12.8.2021 17:29:8.854
529, 1.90364, 0.347363, 4.89293, -0.000976562, -0.000976562, 0, -0.0751953, 0.327148, -9.82715, 12.8.2021 17:29:8.862
530, 1.90364, 0.347363, 4.89293, -0.00195312, -0.000976562, 0.000976562, -0.0917969, 0.335938, -9.82715, 12.8.2021 17:29:8.870
531, 1.90364, 0.347363, 4.89293, -0.00195312, -0.000976562, 0, -0.0566406, 0.323242, -9.88867, 12.8.2021 17:29:8.878
532, 1.90364, 0.347363, 4.89293, -0.000976562, -0.000976562, -0.00195312, -0.106445, 0.37207, -9.83301, 12.8.2021 17:29:8.886
533, 1.9036, 0.34748, 4.89989, 0, -0.000976562, -0.00195312, -0.0488281, 0.326172, -9.81543, 12.8.2021 17:29:8.894
534, 1.9036, 0.34748, 4.89989, 0, -0.00195312, -0.00195312, -0.0507812, 0.333984, -9.8252, 12.8.2021 17:29:8.902
535, 1.9036, 0.34748, 4.89989, 0.00195312, -0.00195312, -0.000976562, -0.102539, 0.354492, -9.88086, 12.8.2021 17:29:8.910
536, 1.9033, 0.354467, 4.89977, -0.000976562, 0.000976562, 0, -0.0244141, 0.316406, -9.80957, 12.8.2021 17:29:8.918
537, 1.9033, 0.354467, 4.89977, -0.000976562, 0.000976562, -0.00195312, -0.0800781, 0.300781, -9.8252, 12.8.2021 17:29:8.926
538, 1.9033, 0.354467, 4.89977, 0, -0.00195312, -0.000976562, -0.0722656, 0.333008, -9.80078, 12.8.2021 17:29:8.934
539, 1.9033, 0.354467, 4.89977, -0.000976562, -0.000976562, 0, -0.0078125, 0.316406, -9.81641, 12.8.2021 17:29:8.940
540, 1.9033, 0.354467, 4.89977, 0, 0.000976562, 0, -0.103516, 0.332031, -9.84277, 12.8.2021 17:29:8.948
541, 1.9033, 0.354467, 4.89977, -0.000976562, -0.000976562, 0, -0.0830078, 0.330078, -9.85059, 12.8.2021 17:29:8.956
542, 1.9033, 0.354467, 4.89977, -0.000976562, 0.000976562, 0, -0.0517578, 0.289062, -9.83789, 12.8.2021 17:29:8.964
543, 1.89632, 0.354168, 4.89981, -0.000976562, -0.00195312, -0.000976562, -0.121094, 0.322266, -9.84277, 12.8.2021 17:29:8.972
544, 1.89632, 0.354168, 4.89981, -0.000976562, -0.00195312, -0.000976562, -0.0224609, 0.318359, -9.79492, 12.8.2021 17:29:8.980
545, 1.89632, 0.354168, 4.89981, 0, 0.000976562, -0.00195312, -0.0292969, 0.308594, -9.79102, 12.8.2021 17:29:8.988
546, 1.89602, 0.361154, 4.89969, -0.000976562, -0.000976562, 0, -0.106445, 0.338867, -9.82129, 12.8.2021 17:29:8.996
547, 1.89602, 0.361154, 4.89969, -0.00195312, -0.000976562, 0, -0.0234375, 0.325195, -9.86621, 12.8.2021 17:29:9.004
548, 1.89602, 0.361154, 4.89969, -0.000976562, -0.000976562, 0, -0.0849609, 0.322266, -9.83203, 12.8.2021 17:29:9.012
549, 1.89602, 0.361154, 4.89969, -0.000976562, -0.000976562, 0, -0.0917969, 0.310547, -9.84863, 12.8.2021 17:29:9.020
550, 1.89602, 0.361154, 4.89969, -0.000976562, -0.000976562, 0.000976562, 0.000976562, 0.288086, -9.81543, 12.8.2021 17:29:9.028
551, 1.89602, 0.361154, 4.89969, -0.000976562, 0.000976562, 0, -0.0800781, 0.348633, -9.84277, 12.8.2021 17:29:9.036
552, 1.89602, 0.361154, 4.89969, -0.000976562, -0.000976562, 0, -0.0625, 0.328125, -9.80371, 12.8.2021 17:29:9.044
553, 1.89602, 0.361154, 4.89969, 0, -0.000976562, 0, -0.0273438, 0.319336, -9.80957, 12.8.2021 17:29:9.052
554, 1.89602, 0.361154, 4.89969, -0.000976562, -0.000976562, 0, -0.113281, 0.34082, -9.83105, 12.8.2021 17:29:9.060
555, 1.89602, 0.361154, 4.89969, -0.000976562, -0.000976562, -0.00195312, -0.0537109, 0.335938, -9.81348, 12.8.2021 17:29:9.068
556, 1.89602, 0.361154, 4.89969, -0.000976562, -0.000976562, 0, -0.0683594, 0.327148, -9.85352, 12.8.2021 17:29:9.076
557, 1.89602, 0.361154, 4.89969, -0.000976562, 0.000976562, 0, -0.0869141, 0.328125, -9.80859, 12.8.2021 17:29:9.084
558, 1.89602, 0.361154, 4.89969, -0.000976562, -0.000976562, 0, -0.0175781, 0.30957, -9.80762, 12.8.2021 17:29:9.092
559, 1.89602, 0.361154, 4.89969, 0.000976562, -0.00195312, 0.000976562, -0.0771484, 0.327148, -9.83203, 12.8.2021 17:29:9.100
560, 1.89602, 0.361154, 4.89969, 0, -0.000976562, 0, -0.0849609, 0.331055, -9.82422, 12.8.2021 17:29:9.108
561, 1.89602, 0.361154, 4.89969, -0.000976562, -0.000976562, 0, -0.0322266, 0.317383, -9.84277, 12.8.2021 17:29:9.116
562, 1.89602, 0.361154, 4.89969, -0.00195312, 0.000976562, 0, -0.101562, 0.333984, -9.82227, 12.8.2021 17:29:9.124
563, 1.89602, 0.361154, 4.89969, -0.000976562, -0.000976562, 0, -0.0566406, 0.336914, -9.8623, 12.8.2021 17:29:9.132
564, 1.89609, 0.360921, 4.88577, -0.000976562, 0.000976562, -0.000976562, -0.0605469, 0.301758, -9.80664, 12.8.2021 17:29:9.140
565, 1.89617, 0.360688, 4.87184, 0, -0.000976562, -0.000976562, -0.0966797, 0.34668, -9.84277, 12.8.2021 17:29:9.148
566, 1.89591, 0.367558, 4.86476, -0.000976562, -0.000976562, 0, -0.0341797, 0.318359, -9.79492, 12.8.2021 17:29:9.156
567, 1.89598, 0.367325, 4.85084, 0, -0.000976562, 0, -0.0820312, 0.329102, -9.84082, 12.8.2021 17:29:9.164
568, 1.88903, 0.366913, 4.84391, 0, -0.000976562, 0, -0.0771484, 0.350586, -9.82617, 12.8.2021 17:29:9.172
569, 1.88873, 0.366814, 4.83606, 0.000976562, -0.000976562, 0, -0.015625, 0.324219, -9.82617, 12.8.2021 17:29:9.180
570, 1.88876, 0.366698, 4.8291, 0, 0.000976562, 0, -0.109375, 0.334961, -9.85254, 12.8.2021 17:29:9.188
571, 1.8888, 0.366582, 4.82214, -0.000976562, -0.000976562, 0, -0.0537109, 0.332031, -9.8584, 12.8.2021 17:29:9.196
572, 1.88884, 0.366466, 4.81518, -0.000976562, -0.00195312, 0, -0.0351562, 0.286133, -9.84277, 12.8.2021 17:29:9.204
573, 1.88884, 0.366466, 4.81518, -0.000976562, -0.00195312, 0, -0.111328, 0.345703, -9.83301, 12.8.2021 17:29:9.212
574, 1.88884, 0.366466, 4.81518, 0, -0.00195312, 0, -0.0605469, 0.316406, -9.81152, 12.8.2021 17:29:9.220
575, 1.88884, 0.366466, 4.81518, -0.000976562, -0.000976562, 0, -0.0722656, 0.30957, -9.81836, 12.8.2021 17:29:9.228
576, 1.88884, 0.366466, 4.81518, 0, 0.000976562, 0, -0.105469, 0.316406, -9.8125, 12.8.2021 17:29:9.236
577, 1.88884, 0.366466, 4.81518, -0.00195312, -0.000976562, 0, -0.0253906, 0.320312, -9.84277, 12.8.2021 17:29:9.244
578, 1.88884, 0.366466, 4.81518, -0.000976562, -0.000976562, -0.000976562, -0.0800781, 0.316406, -9.81348, 12.8.2021 17:29:9.252
579, 1.88887, 0.36635, 4.80821, -0.000976562, -0.00195312, -0.000976562, -0.0800781, 0.351562, -9.85449, 12.8.2021 17:29:9.260
580, 1.88891, 0.366233, 4.80125, -0.000976562, -0.000976562, 0, -0.0341797, 0.3125, -9.81934, 12.8.2021 17:29:9.268
581, 1.88895, 0.366117, 4.79429, -0.00195312, -0.000976562, 0, -0.103516, 0.326172, -9.82227, 12.8.2021 17:29:9.276
582, 1.89593, 0.36641, 4.79425, -0.00195312, 0.000976562, 0, -0.0585938, 0.329102, -9.84375, 12.8.2021 17:29:9.284
583, 1.89593, 0.36641, 4.79425, -0.000976562, 0.000976562, 0, -0.00585938, 0.314453, -9.82422, 12.8.2021 17:29:9.292
584, 1.89597, 0.366294, 4.78729, -0.000976562, -0.000976562, -0.000976562, -0.118164, 0.320312, -9.84375, 12.8.2021 17:29:9.300
585, 1.89597, 0.366294, 4.78729, -0.00195312, 0.000976562, 0, -0.0244141, 0.333008, -9.81152, 12.8.2021 17:29:9.308
586, 1.89597, 0.366294, 4.78729, -0.000976562, 0.000976562, 0, -0.0585938, 0.317383, -9.84668, 12.8.2021 17:29:9.316
587, 1.89597, 0.366294, 4.78729, 0, -0.000976562, 0, -0.108398, 0.342773, -9.81445, 12.8.2021 17:29:9.324
588, 1.89597, 0.366294, 4.78729, 0, -0.000976562, 0, -0.0273438, 0.310547, -9.84766, 12.8.2021 17:29:9.332
589, 1.89597, 0.366294, 4.78729, 0, -0.000976562, 0.000976562, -0.0605469, 0.331055, -9.80371, 12.8.2021 17:29:9.340
590, 1.89597, 0.366294, 4.78729, 0, -0.00195312, 0.000976562, -0.0839844, 0.350586, -9.80957, 12.8.2021 17:29:9.348
591, 1.88869, 0.372988, 4.78721, 0, -0.00195312, 0, -0.0175781, 0.327148, -9.83301, 12.8.2021 17:29:9.356
592, 1.88869, 0.372988, 4.78721, -0.000976562, 0.000976562, 0, -0.09375, 0.355469, -9.81641, 12.8.2021 17:29:9.364
593, 1.88869, 0.372988, 4.78721, -0.000976562, 0.000976562, 0, -0.0800781, 0.345703, -9.83594, 12.8.2021 17:29:9.372
594, 1.88898, 0.366001, 4.78732, -0.000976562, -0.000976562, 0, -0.0517578, 0.317383, -9.83691, 12.8.2021 17:29:9.380
595, 1.88869, 0.372988, 4.78721, 0, -0.00195312, 0, -0.0947266, 0.358398, -9.83301, 12.8.2021 17:29:9.388
596, 1.89568, 0.373281, 4.78717, -0.000976562, -0.00195312, 0.000976562, -0.0419922, 0.319336, -9.83301, 12.8.2021 17:29:9.396
597, 1.89568, 0.373281, 4.78717, -0.000976562, -0.000976562, 0.000976562, -0.0771484, 0.324219, -9.82031, 12.8.2021 17:29:9.404
598, 1.89568, 0.373281, 4.78717, 0, -0.000976562, 0, -0.0771484, 0.324219, -9.81055, 12.8.2021 17:29:9.412
599, 1.89568, 0.373281, 4.78717, 0, 0, 0, -0.0195312, 0.320312, -9.77832, 12.8.2021 17:29:9.420
600, 1.89568, 0.373281, 4.78717, 0, -0.000976562, 0.000976562, -0.0751953, 0.342773, -9.8125, 12.8.2021 17:29:9.428
601, 1.88869, 0.372988, 4.78721, 0, -0.000976562, 0, -0.0771484, 0.342773, -9.79395, 12.8.2021 17:29:9.436
602, 1.88869, 0.372988, 4.78721, 0, -0.000976562, 0, -0.0576172, 0.298828, -9.77832, 12.8.2021 17:29:9.444
603, 1.88869, 0.372988, 4.78721, -0.000976562, 0, 0.000976562, -0.113281, 0.341797, -9.84277, 12.8.2021 17:29:9.452
604, 1.89568, 0.373281, 4.78717, 0, -0.000976562, 0, -0.0585938, 0.3125, -9.8418, 12.8.2021 17:29:9.460
605, 1.89568, 0.373281, 4.78717, -0.000976562, 0.000976562, -0.000976562, -0.046875, 0.308594, -9.87109, 12.8.2021 17:29:9.468
606, 1.89568, 0.373281, 4.78717, -0.000976562, 0.000976562, -0.000976562, -0.0820312, 0.333008, -9.8125, 12.8.2021 17:29:9.476
607, 1.89568, 0.373281, 4.78717, 0, -0.000976562, 0, -0.0322266, 0.323242, -9.80957, 12.8.2021 17:29:9.484
608, 1.89568, 0.373281, 4.78717, -0.000976562, -0.000976562, 0, -0.0820312, 0.328125, -9.80371, 12.8.2021 17:29:9.492
609, 1.89568, 0.373281, 4.78717, -0.000976562, 0.000976562, -0.000976562, -0.0869141, 0.329102, -9.82715, 12.8.2021 17:29:9.500
610, 1.89568, 0.373281, 4.78717, -0.000976562, -0.000976562, 0, -0.0205078, 0.295898, -9.85059, 12.8.2021 17:29:9.508
611, 1.89568, 0.373281, 4.78717, -0.00195312, -0.000976562, 0, -0.103516, 0.331055, -9.81738, 12.8.2021 17:29:9.516
612, 1.89568, 0.373281, 4.78717, -0.000976562, -0.000976562, 0, -0.0537109, 0.332031, -9.84863, 12.8.2021 17:29:9.524
613, 1.89568, 0.373281, 4.78717, 0, -0.000976562, 0, -0.0439453, 0.307617, -9.83105, 12.8.2021 17:29:9.532
614, 1.89568, 0.373281, 4.78717, -0.000976562, 0.000976562, -0.000976562, -0.125, 0.324219, -9.8125, 12.8.2021 17:29:9.540
615, 1.89597, 0.366294, 4.78729, -0.000976562, 0, 0, -0.0322266, 0.304688, -9.81934, 12.8.2021 17:29:9.548
616, 1.89597, 0.366294, 4.78729, -0.000976562, -0.000976562, 0.000976562, -0.0273438, 0.333984, -9.81836, 12.8.2021 17:29:9.556
617, 1.89597, 0.366294, 4.78729, 0, -0.000976562, 0.000976562, -0.0869141, 0.383789, -9.80176, 12.8.2021 17:29:9.564
618, 1.89568, 0.373281, 4.78717, 0, -0.000976562, 0, -0.0302734, 0.333984, -9.82812, 12.8.2021 17:29:9.572
619, 1.89597, 0.366294, 4.78729, 0, 0, 0, -0.0751953, 0.310547, -9.83203, 12.8.2021 17:29:9.580
620, 1.89597, 0.366294, 4.78729, 0, 0.00195312, 0, -0.0800781, 0.333008, -9.86523, 12.8.2021 17:29:9.588
621, 1.89597, 0.366294, 4.78729, -0.000976562, -0.000976562, 0, -0.015625, 0.321289, -9.81445, 12.8.2021 17:29:9.596
622, 1.89597, 0.366294, 4.78729, -0.000976562, -0.000976562, 0, -0.0917969, 0.321289, -9.80078, 12.8.2021 17:29:9.604
623, 1.89597, 0.366294, 4.78729, -0.000976562, -0.000976562, 0, -0.0634766, 0.333984, -9.82031, 12.8.2021 17:29:9.612
624, 1.89597, 0.366294, 4.78729, 0, 0, 0, -0.0507812, 0.27832, -9.80762, 12.8.2021 17:29:9.620
625, 1.89597, 0.366294, 4.78729, -0.000976562, -0.000976562, 0, -0.0966797, 0.31543, -9.83887, 12.8.2021 17:29:9.628
626, 1.89597, 0.366294, 4.78729, -0.000976562, -0.000976562, -0.00195312, -0.0585938, 0.324219, -9.83496, 12.8.2021 17:29:9.636
627, 1.89597, 0.366294, 4.78729, 0, 0, -0.00195312, -0.0771484, 0.313477, -9.79688, 12.8.2021 17:29:9.644
628, 1.89597, 0.366294, 4.78729, 0, 0, -0.00195312, -0.120117, 0.348633, -9.82129, 12.8.2021 17:29:9.652
629, 1.89597, 0.366294, 4.78729, -0.000976562, 0, 0, -0.0234375, 0.317383, -9.84961, 12.8.2021 17:29:9.660
630, 1.89597, 0.366294, 4.78729, -0.000976562, -0.000976562, -0.000976562, -0.0898438, 0.333984, -9.82422, 12.8.2021 17:29:9.668
631, 1.896, 0.366177, 4.78032, 0, -0.000976562, -0.000976562, -0.0683594, 0.34375, -9.83887, 12.8.2021 17:29:9.676
632, 1.89604, 0.36606, 4.77336, -0.000976562, -0.000976562, -0.000976562, -0.0205078, 0.338867, -9.83691, 12.8.2021 17:29:9.684
633, 1.89604, 0.36606, 4.77336, 0, -0.000976562, -0.000976562, -0.121094, 0.338867, -9.84277, 12.8.2021 17:29:9.692
634, 1.89608, 0.365944, 4.7664, -0.000976562, -0.000976562, -0.00195312, -0.0556641, 0.316406, -9.81836, 12.8.2021 17:29:9.700
635, 1.89611, 0.365827, 4.75943, -0.000976562, -0.000976562, -0.000976562, -0.0488281, 0.332031, -9.83203, 12.8.2021 17:29:9.708
636, 1.89615, 0.365711, 4.75247, -0.000976562, 0, 0.000976562, -0.117188, 0.352539, -9.80469, 12.8.2021 17:29:9.716
637, 1.89619, 0.365594, 4.74551, 0, -0.000976562, -0.000976562, -0.0371094, 0.327148, -9.83691, 12.8.2021 17:29:9.724
638, 1.8959, 0.372581, 4.74539, 0, -0.000976562, -0.000976562, -0.0507812, 0.286133, -9.81738, 12.8.2021 17:29:9.732
639, 1.89594, 0.372465, 4.73843, -0.000976562, -0.00195312, -0.000976562, -0.0966797, 0.321289, -9.8125, 12.8.2021 17:29:9.740
640, 1.89597, 0.372348, 4.73146, 0, -0.00195312, -0.000976562, -0.0224609, 0.327148, -9.83496, 12.8.2021 17:29:9.748
641, 1.89601, 0.372232, 4.7245, -0.000976562, -0.000976562, 0.000976562, -0.0722656, 0.348633, -9.82715, 12.8.2021 17:29:9.756
642, 1.89601, 0.372232, 4.7245, -0.000976562, -0.000976562, 0.000976562, -0.0605469, 0.302734, -9.82324, 12.8.2021 17:29:9.764
643, 1.89605, 0.372115, 4.71753, -0.00195312, -0.000976562, -0.000976562, -0.00390625, 0.314453, -9.8291, 12.8.2021 17:29:9.772
644, 1.89605, 0.372115, 4.71753, -0.000976562, -0.000976562, -0.00195312, -0.125, 0.329102, -9.82617, 12.8.2021 17:29:9.780
645, 1.89608, 0.371999, 4.71057, 0, -0.00195312, -0.00195312, -0.0488281, 0.358398, -9.83887, 12.8.2021 17:29:9.788
646, 1.89608, 0.371999, 4.71057, 0, -0.000976562, -0.000976562, -0.0283203, 0.327148, -9.86133, 12.8.2021 17:29:9.796
647, 1.89608, 0.371999, 4.71057, 0, -0.000976562, -0.000976562, -0.0751953, 0.336914, -9.83691, 12.8.2021 17:29:9.804
648, 1.89608, 0.371999, 4.71057, 0, -0.000976562, -0.000976562, -0.0078125, 0.306641, -9.81738, 12.8.2021 17:29:9.812
649, 1.89608, 0.371999, 4.71057, 0, -0.000976562, -0.000976562, -0.0585938, 0.327148, -9.83008, 12.8.2021 17:29:9.820
650, 1.89608, 0.371999, 4.71057, -0.000976562, -0.000976562, -0.000976562, -0.0664062, 0.356445, -9.86719, 12.8.2021 17:29:9.828
651, 1.89608, 0.371999, 4.71057, -0.000976562, -0.000976562, -0.000976562, -0.00390625, 0.313477, -9.86914, 12.8.2021 17:29:9.836
652, 1.89608, 0.371999, 4.71057, -0.000976562, -0.000976562, -0.000976562, -0.0830078, 0.336914, -9.84375, 12.8.2021 17:29:9.844
653, 1.89608, 0.371999, 4.71057, 0, -0.000976562, -0.000976562, -0.0654297, 0.333984, -9.81738, 12.8.2021 17:29:9.852
654, 1.89608, 0.371999, 4.71057, 0, -0.000976562, -0.000976562, -0.0566406, 0.3125, -9.84473, 12.8.2021 17:29:9.860
655, 1.89612, 0.371882, 4.7036, -0.000976562, -0.000976562, 0.000976562, -0.0966797, 0.361328, -9.85645, 12.8.2021 17:29:9.868
656, 1.89612, 0.371882, 4.7036, 0, 0, 0.000976562, -0.0302734, 0.320312, -9.86328, 12.8.2021 17:29:9.876
657, 1.89612, 0.371882, 4.7036, 0, -0.000976562, 0.000976562, -0.0419922, 0.3125, -9.83008, 12.8.2021 17:29:9.884
658, 1.89616, 0.371766, 4.69664, -0.000976562, -0.000976562, -0.000976562, -0.0869141, 0.331055, -9.81543, 12.8.2021 17:29:9.892
659, 1.89616, 0.371766, 4.69664, -0.000976562, -0.00195312, -0.000976562, -0.00878906, 0.320312, -9.84473, 12.8.2021 17:29:9.898
660, 1.89616, 0.371766, 4.69664, -0.000976562, -0.000976562, -0.000976562, -0.115234, 0.328125, -9.79102, 12.8.2021 17:29:9.906
661, 1.89619, 0.371649, 4.68967, -0.000976562, -0.000976562, -0.000976562, -0.0986328, 0.352539, -9.80469, 12.8.2021 17:29:9.914
662, 1.90318, 0.371935, 4.68964, -0.000976562, -0.000976562, -0.000976562, -0.0390625, 0.328125, -9.78516, 12.8.2021 17:29:9.922
663, 1.90322, 0.371818, 4.68267, 0, -0.00195312, -0.000976562, -0.0917969, 0.34668, -9.84961, 12.8.2021 17:29:9.930
664, 1.90322, 0.371818, 4.68267, -0.000976562, -0.000976562, -0.000976562, -0.0390625, 0.328125, -9.79688, 12.8.2021 17:29:9.938
665, 1.90322, 0.371818, 4.68267, -0.00195312, -0.000976562, -0.000976562, -0.0683594, 0.323242, -9.86523, 12.8.2021 17:29:9.946
666, 1.90322, 0.371818, 4.68267, 0, -0.000976562, 0.000976562, -0.103516, 0.347656, -9.82129, 12.8.2021 17:29:9.954
667, 1.90322, 0.371818, 4.68267, -0.000976562, -0.000976562, -0.000976562, -0.0175781, 0.329102, -9.82812, 12.8.2021 17:29:9.962
668, 1.90322, 0.371818, 4.68267, 0, -0.00195312, -0.000976562, -0.0273438, 0.30957, -9.83301, 12.8.2021 17:29:9.970
669, 1.90322, 0.371818, 4.68267, 0, -0.00195312, -0.00195312, -0.0800781, 0.362305, -9.81934, 12.8.2021 17:29:9.978
670, 1.90322, 0.371818, 4.68267, -0.000976562, -0.00195312, -0.00195312, -0.0185547, 0.330078, -9.85449, 12.8.2021 17:29:9.986
671, 1.90322, 0.371818, 4.68267, -0.000976562, -0.00195312, -0.000976562, -0.0820312, 0.329102, -9.82031, 12.8.2021 17:29:9.994
672, 1.90322, 0.371818, 4.68267, -0.000976562, -0.00195312, -0.000976562, -0.0722656, 0.349609, -9.80273, 12.8.2021 17:29:10.002
673, 1.90322, 0.371818, 4.68267, 0, -0.000976562, -0.00195312, -0.0107422, 0.293945, -9.85059, 12.8.2021 17:29:10.010
674, 1.90322, 0.371818, 4.68267, -0.000976562, 0.000976562, 0, -0.118164, 0.34375, -9.84766, 12.8.2021 17:29:10.018
675, 1.90322, 0.371818, 4.68267, -0.000976562, -0.000976562, -0.000976562, -0.0507812, 0.338867, -9.82227, 12.8.2021 17:29:10.026
676, 1.90322, 0.371818, 4.68267, -0.000976562, -0.000976562, -0.000976562, -0.0703125, 0.327148, -9.83398, 12.8.2021 17:29:10.034
677, 1.90322, 0.371818, 4.68267, -0.000976562, -0.000976562, -0.00195312, -0.0820312, 0.348633, -9.83105, 12.8.2021 17:29:10.042
678, 1.90322, 0.371818, 4.68267, -0.000976562, -0.000976562, -0.000976562, -0.0341797, 0.319336, -9.81836, 12.8.2021 17:29:10.050
679, 1.90322, 0.371818, 4.68267, 0, 0.000976562, -0.000976562, -0.0625, 0.339844, -9.78223, 12.8.2021 17:29:10.058
680, 1.90322, 0.371818, 4.68267, -0.000976562, -0.000976562, -0.000976562, -0.0830078, 0.349609, -9.87402, 12.8.2021 17:29:10.066
681, 1.90322, 0.371818, 4.68267, 0, -0.000976562, -0.000976562, -0.0234375, 0.320312, -9.84473, 12.8.2021 17:29:10.074
682, 1.90322, 0.371818, 4.68267, -0.000976562, -0.000976562, -0.000976562, -0.103516, 0.345703, -9.81445, 12.8.2021 17:29:10.082
683, 1.90322, 0.371818, 4.68267, -0.000976562, 0.000976562, 0, -0.0556641, 0.314453, -9.8252, 12.8.2021 17:29:10.090
684, 1.90322, 0.371818, 4.68267, 0, -0.000976562, -0.000976562, -0.0371094, 0.316406, -9.80664, 12.8.2021 17:29:10.098
685, 1.90322, 0.371818, 4.68267, 0, -0.000976562, -0.000976562, -0.120117, 0.344727, -9.79492, 12.8.2021 17:29:10.106
686, 1.90322, 0.371818, 4.68267, -0.000976562, -0.000976562, -0.000976562, -0.0576172, 0.30957, -9.80664, 12.8.2021 17:29:10.114
687, 1.90322, 0.371818, 4.68267, -0.000976562, -0.000976562, -0.000976562, -0.0634766, 0.322266, -9.83496, 12.8.2021 17:29:10.122
688, 1.90322, 0.371818, 4.68267, 0, 0.000976562, -0.000976562, -0.116211, 0.34375, -9.84277, 12.8.2021 17:29:10.130
689, 1.90322, 0.371818, 4.68267, 0, -0.000976562, -0.00195312, -0.0322266, 0.334961, -9.80176, 12.8.2021 17:29:10.138
690, 1.90322, 0.371818, 4.68267, 0, 0, 0, -0.0800781, 0.307617, -9.8418, 12.8.2021 17:29:10.146
691, 1.90322, 0.371818, 4.68267, -0.000976562, 0, 0.000976562, -0.0537109, 0.353516, -9.84082, 12.8.2021 17:29:10.154
692, 1.90322, 0.371818, 4.68267, 0, -0.00195312, 0.000976562, -0.0273438, 0.324219, -9.8418, 12.8.2021 17:29:10.162
693, 1.90322, 0.371818, 4.68267, 0, 0, 0, -0.110352, 0.334961, -9.79297, 12.8.2021 17:29:10.170
694, 1.90322, 0.371818, 4.68267, 0, 0, 0.000976562, -0.0390625, 0.316406, -9.80469, 12.8.2021 17:29:10.178
695, 1.90322, 0.371818, 4.68267, 0, 0, 0.000976562, -0.0400391, 0.333984, -9.84668, 12.8.2021 17:29:10.186
696, 1.90322, 0.371818, 4.68267, 0, -0.000976562, 0, -0.12793, 0.318359, -9.85742, 12.8.2021 17:29:10.194
697, 1.90322, 0.371818, 4.68267, 0.000976562, 0.000976562, 0.000976562, -0.0449219, 0.293945, -9.84277, 12.8.2021 17:29:10.202
698, 1.90322, 0.371818, 4.68267, 0, 0, 0.000976562, -0.0478516, 0.308594, -9.7832, 12.8.2021 17:29:10.210
699, 1.90322, 0.371818, 4.68267, 0, 0, 0, -0.0634766, 0.353516, -9.84277, 12.8.2021 17:29:10.218
700, 1.90322, 0.371818, 4.68267, 0, 0, 0, -0.0390625, 0.317383, -9.82324, 12.8.2021 17:29:10.226
701, 1.9035, 0.364831, 4.68279, 0, 0.00195312, -0.000976562, -0.0673828, 0.334961, -9.79883, 12.8.2021 17:29:10.234
702, 1.9035, 0.364831, 4.68279, -0.000976562, 0.000976562, 0, -0.0742188, 0.339844, -9.7793, 12.8.2021 17:29:10.242
703, 1.90354, 0.364715, 4.67582, 0, 0, 0, -0.0332031, 0.317383, -9.76465, 12.8.2021 17:29:10.250
704, 1.90354, 0.364715, 4.67582, 0, -0.000976562, 0, -0.134766, 0.363281, -9.83496, 12.8.2021 17:29:10.258
705, 1.9035, 0.364831, 4.68279, -0.000976562, 0, -0.000976562, -0.0625, 0.331055, -9.80859, 12.8.2021 17:29:10.266
706, 1.9035, 0.364831, 4.68279, 0, 0, 0, -0.0537109, 0.301758, -9.80957, 12.8.2021 17:29:10.274
707, 1.9035, 0.364831, 4.68279, -0.000976562, 0, -0.000976562, -0.120117, 0.325195, -9.78418, 12.8.2021 17:29:10.282
708, 1.9035, 0.364831, 4.68279, 0, 0, 0, -0.0419922, 0.31543, -9.83789, 12.8.2021 17:29:10.290
709, 1.9035, 0.364831, 4.68279, -0.000976562, 0.000976562, 0, -0.078125, 0.339844, -9.86426, 12.8.2021 17:29:10.298
710, 1.9035, 0.364831, 4.68279, 0, 0, 0, -0.0791016, 0.364258, -9.80273, 12.8.2021 17:29:10.306
711, 1.9035, 0.364831, 4.68279, -0.000976562, 0.000976562, 0, -0.000976562, 0.334961, -9.80176, 12.8.2021 17:29:10.314
712, 1.9035, 0.364831, 4.68279, -0.000976562, 0, 0, -0.078125, 0.327148, -9.8457, 12.8.2021 17:29:10.322
713, 1.9035, 0.364831, 4.68279, -0.000976562, -0.000976562, 0, -0.0322266, 0.30957, -9.82812, 12.8.2021 17:29:10.330
714, 1.9035, 0.364831, 4.68279, -0.000976562, -0.000976562, 0, -0.0361328, 0.326172, -9.80469, 12.8.2021 17:29:10.338
715, 1.9035, 0.364831, 4.68279, 0, 0, 0, -0.120117, 0.350586, -9.81152, 12.8.2021 17:29:10.346
716, 1.9035, 0.364831, 4.68279, 0, 0, -0.000976562, -0.046875, 0.353516, -9.8457, 12.8.2021 17:29:10.354
717, 1.9035, 0.364831, 4.68279, -0.000976562, 0, 0, -0.0527344, 0.318359, -9.79004, 12.8.2021 17:29:10.362
718, 1.9035, 0.364831, 4.68279, 0, 0, 0.000976562, -0.118164, 0.324219, -9.82617, 12.8.2021 17:29:10.370
719, 1.9035, 0.364831, 4.68279, -0.000976562, -0.000976562, 0, -0.0195312, 0.304688, -9.80762, 12.8.2021 17:29:10.378
720, 1.9035, 0.364831, 4.68279, -0.000976562, 0, 0, -0.0800781, 0.322266, -9.82715, 12.8.2021 17:29:10.386
721, 1.9035, 0.364831, 4.68279, -0.000976562, 0.000976562, 0.000976562, -0.0898438, 0.335938, -9.8291, 12.8.2021 17:29:10.394
722, 1.9035, 0.364831, 4.68279, -0.000976562, -0.000976562, 0, -0.0253906, 0.31543, -9.84961, 12.8.2021 17:29:10.402
723, 1.9035, 0.364831, 4.68279, -0.000976562, 0.000976562, -0.000976562, -0.0957031, 0.344727, -9.79102, 12.8.2021 17:29:10.410
724, 1.9035, 0.364831, 4.68279, -0.000976562, 0.000976562, -0.000976562, -0.0732422, 0.333984, -9.84375, 12.8.2021 17:29:10.418
725, 1.91049, 0.365117, 4.68275, -0.000976562, -0.000976562, -0.00195312, -0.0371094, 0.319336, -9.81641, 12.8.2021 17:29:10.426
726, 1.91049, 0.365117, 4.68275, -0.000976562, -0.000976562, -0.00195312, -0.0966797, 0.327148, -9.8457, 12.8.2021 17:29:10.434
727, 1.91049, 0.365117, 4.68275, -0.000976562, -0.000976562, -0.00195312, -0.0283203, 0.339844, -9.86816, 12.8.2021 17:29:10.442
728, 1.91049, 0.365117, 4.68275, -0.000976562, 0.000976562, -0.000976562, -0.0263672, 0.296875, -9.87402, 12.8.2021 17:29:10.450
729, 1.91049, 0.365117, 4.68275, 0, -0.000976562, 0, -0.0722656, 0.34668, -9.78906, 12.8.2021 17:29:10.458
730, 1.91049, 0.365117, 4.68275, -0.000976562, -0.000976562, -0.000976562, -0.0371094, 0.325195, -9.85156, 12.8.2021 17:29:10.466
731, 1.91049, 0.365117, 4.68275, 0, -0.000976562, -0.000976562, -0.0800781, 0.31543, -9.86328, 12.8.2021 17:29:10.474
732, 1.91049, 0.365117, 4.68275, -0.000976562, 0.000976562, -0.000976562, -0.0605469, 0.329102, -9.82715, 12.8.2021 17:29:10.482
733, 1.91049, 0.365117, 4.68275, -0.000976562, -0.000976562, -0.00195312, -0.0390625, 0.30957, -9.82324, 12.8.2021 17:29:10.490
734, 1.91045, 0.365235, 4.68972, -0.000976562, -0.000976562, -0.00195312, -0.125, 0.320312, -9.84277, 12.8.2021 17:29:10.498
735, 1.91045, 0.365235, 4.68972, -0.000976562, 0.000976562, -0.000976562, -0.0517578, 0.327148, -9.8418, 12.8.2021 17:29:10.506
736, 1.91045, 0.365235, 4.68972, 0, -0.000976562, -0.000976562, -0.0566406, 0.31543, -9.83691, 12.8.2021 17:29:10.514
737, 1.91045, 0.365235, 4.68972, 0, -0.000976562, -0.00195312, -0.106445, 0.336914, -9.83398, 12.8.2021 17:29:10.522
738, 1.91045, 0.365235, 4.68972, 0, 0.000976562, -0.000976562, -0.015625, 0.34668, -9.84668, 12.8.2021 17:29:10.530
739, 1.91045, 0.365235, 4.68972, 0, 0.000976562, -0.000976562, -0.0869141, 0.350586, -9.83301, 12.8.2021 17:29:10.538
740, 1.91045, 0.365235, 4.68972, 0, 0.000976562, -0.000976562, -0.113281, 0.319336, -9.82422, 12.8.2021 17:29:10.546
741, 1.91045, 0.365235, 4.68972, -0.000976562, -0.000976562, -0.000976562, -0.0302734, 0.327148, -9.84668, 12.8.2021 17:29:10.554
742, 1.91045, 0.365235, 4.68972, -0.000976562, -0.000976562, -0.000976562, -0.101562, 0.342773, -9.81738, 12.8.2021 17:29:10.562
743, 1.91045, 0.365235, 4.68972, -0.000976562, -0.000976562, -0.000976562, -0.0566406, 0.338867, -9.83691, 12.8.2021 17:29:10.570
744, 1.91045, 0.365235, 4.68972, 0, -0.000976562, 0, -0.0351562, 0.322266, -9.83496, 12.8.2021 17:29:10.578
745, 1.91045, 0.365235, 4.68972, 0, -0.000976562, -0.00195312, -0.0957031, 0.333008, -9.80078, 12.8.2021 17:29:10.586
746, 1.91045, 0.365235, 4.68972, -0.000976562, -0.000976562, -0.00195312, -0.0244141, 0.326172, -9.81152, 12.8.2021 17:29:10.594
747, 1.91045, 0.365235, 4.68972, 0, -0.000976562, -0.00195312, -0.0498047, 0.341797, -9.8623, 12.8.2021 17:29:10.602
748, 1.91045, 0.365235, 4.68972, 0, -0.00195312, -0.00195312, -0.0947266, 0.338867, -9.8457, 12.8.2021 17:29:10.610
749, 1.91045, 0.365235, 4.68972, 0, -0.000976562, -0.00195312, -0.0253906, 0.329102, -9.83984, 12.8.2021 17:29:10.618
750, 1.91045, 0.365235, 4.68972, -0.000976562, -0.00195312, -0.00195312, -0.0986328, 0.331055, -9.8125, 12.8.2021 17:29:10.626
751, 1.91045, 0.365235, 4.68972, 0, -0.000976562, -0.000976562, -0.0996094, 0.333008, -9.87402, 12.8.2021 17:29:10.634
752, 1.91045, 0.365235, 4.68972, -0.000976562, -0.000976562, -0.000976562, -0.0224609, 0.307617, -9.82617, 12.8.2021 17:29:10.642
753, 1.91045, 0.365235, 4.68972, 0, -0.000976562, -0.000976562, -0.119141, 0.333008, -9.88086, 12.8.2021 17:29:10.650
754, 1.91045, 0.365235, 4.68972, -0.000976562, -0.000976562, 0, -0.0488281, 0.324219, -9.82812, 12.8.2021 17:29:10.658
755, 1.91045, 0.365235, 4.68972, -0.000976562, -0.000976562, 0, -0.0419922, 0.329102, -9.8252, 12.8.2021 17:29:10.666
756, 1.91045, 0.365235, 4.68972, 0, 0, 0, -0.0947266, 0.34668, -9.84961, 12.8.2021 17:29:10.674
757, 1.91045, 0.365235, 4.68972, -0.000976562, 0, 0, -0.0439453, 0.329102, -9.81836, 12.8.2021 17:29:10.682
758, 1.91045, 0.365235, 4.68972, 0, -0.000976562, -0.000976562, -0.0449219, 0.316406, -9.875, 12.8.2021 17:29:10.690
759, 1.91045, 0.365235, 4.68972, -0.000976562, -0.000976562, 0, -0.0830078, 0.339844, -9.85742, 12.8.2021 17:29:10.698
760, 1.91045, 0.365235, 4.68972, -0.000976562, -0.000976562, 0, -0.0175781, 0.304688, -9.81738, 12.8.2021 17:29:10.706
761, 1.91045, 0.365235, 4.68972, -0.000976562, -0.000976562, 0, -0.108398, 0.333008, -9.79785, 12.8.2021 17:29:10.714
762, 1.91045, 0.365235, 4.68972, -0.000976562, -0.000976562, 0, -0.0888672, 0.347656, -9.82129, 12.8.2021 17:29:10.722
763, 1.91045, 0.365235, 4.68972, -0.000976562, 0, 0, -0.0322266, 0.305664, -9.84961, 12.8.2021 17:29:10.730
764, 1.91045, 0.365235, 4.68972, 0, 0, 0.000976562, -0.115234, 0.342773, -9.80957, 12.8.2021 17:29:10.738
765, 1.91045, 0.365235, 4.68972, 0, -0.000976562, 0, -0.0742188, 0.331055, -9.80371, 12.8.2021 17:29:10.746
766, 1.91045, 0.365235, 4.68972, -0.000976562, -0.000976562, 0.000976562, -0.0488281, 0.3125, -9.84473, 12.8.2021 17:29:10.754
767, 1.91045, 0.365235, 4.68972, -0.000976562, -0.000976562, 0, -0.0800781, 0.338867, -9.84082, 12.8.2021 17:29:10.762
768, 1.91045, 0.365235, 4.68972, -0.000976562, -0.000976562, 0, -0.0419922, 0.320312, -9.84473, 12.8.2021 17:29:10.770
769, 1.91045, 0.365235, 4.68972, 0, -0.000976562, 0, -0.0654297, 0.333984, -9.8418, 12.8.2021 17:29:10.778
770, 1.91045, 0.365235, 4.68972, -0.000976562, 0, 0, -0.0703125, 0.360352, -9.83105, 12.8.2021 17:29:10.786
771, 1.91045, 0.365235, 4.68972, -0.000976562, -0.000976562, 0.000976562, -0.015625, 0.3125, -9.82812, 12.8.2021 17:29:10.794
772, 1.91045, 0.365235, 4.68972, 0, -0.000976562, 0, -0.103516, 0.352539, -9.79492, 12.8.2021 17:29:10.802
773, 1.91045, 0.365235, 4.68972, 0, -0.000976562, 0, -0.0576172, 0.362305, -9.80566, 12.8.2021 17:29:10.810
774, 1.91045, 0.365235, 4.68972, -0.000976562, -0.00195312, 0.000976562, -0.0537109, 0.302734, -9.83789, 12.8.2021 17:29:10.818
775, 1.91049, 0.365117, 4.68275, 0, -0.000976562, 0.000976562, -0.101562, 0.338867, -9.83105, 12.8.2021 17:29:10.824
776, 1.91049, 0.365117, 4.68275, -0.000976562, -0.00292969, 0.000976562, -0.0371094, 0.322266, -9.85156, 12.8.2021 17:29:10.834
777, 1.91049, 0.365117, 4.68275, -0.000976562, -0.000976562, 0, -0.046875, 0.307617, -9.82812, 12.8.2021 17:29:10.840
778, 1.91049, 0.365117, 4.68275, 0, 0, 0, -0.0908203, 0.330078, -9.79102, 12.8.2021 17:29:10.848
779, 1.91049, 0.365117, 4.68275, 0, -0.000976562, 0, -0.000976562, 0.318359, -9.80762, 12.8.2021 17:29:10.856
780, 1.91052, 0.365, 4.67579, 0, 0, 0, -0.0703125, 0.321289, -9.80371, 12.8.2021 17:29:10.864
781, 1.91052, 0.365, 4.67579, 0, -0.000976562, 0.000976562, -0.0820312, 0.321289, -9.81055, 12.8.2021 17:29:10.872
782, 1.91052, 0.365, 4.67579, 0, 0, 0, 0.000976562, 0.329102, -9.82129, 12.8.2021 17:29:10.880
783, 1.91056, 0.364883, 4.66882, 0, -0.000976562, 0, -0.125, 0.324219, -9.81934, 12.8.2021 17:29:10.888
784, 1.91056, 0.364883, 4.66882, 0, -0.000976562, 0, -0.0732422, 0.324219, -9.83691, 12.8.2021 17:29:10.896
785, 1.91056, 0.364883, 4.66882, -0.000976562, -0.000976562, 0.000976562, -0.0537109, 0.30957, -9.82129, 12.8.2021 17:29:10.904
786, 1.91056, 0.364883, 4.66882, -0.000976562, -0.000976562, -0.000976562, -0.106445, 0.317383, -9.8291, 12.8.2021 17:29:10.912
787, 1.91056, 0.364883, 4.66882, -0.000976562, 0, -0.000976562, -0.015625, 0.325195, -9.84961, 12.8.2021 17:29:10.920
788, 1.91056, 0.364883, 4.66882, 0, 0, -0.00195312, -0.0634766, 0.319336, -9.83008, 12.8.2021 17:29:10.928
789, 1.91056, 0.364883, 4.66882, 0, -0.000976562, 0, -0.0957031, 0.333008, -9.79883, 12.8.2021 17:29:10.936
790, 1.91056, 0.364883, 4.66882, -0.000976562, -0.000976562, -0.000976562, 0.000976562, 0.286133, -9.82227, 12.8.2021 17:29:10.944
791, 1.91056, 0.364883, 4.66882, 0, -0.000976562, -0.000976562, -0.0732422, 0.338867, -9.84082, 12.8.2021 17:29:10.952
792, 1.91056, 0.364883, 4.66882, 0, 0, -0.00195312, -0.0849609, 0.329102, -9.81738, 12.8.2021 17:29:10.960
793, 1.91056, 0.364883, 4.66882, -0.000976562, -0.000976562, -0.000976562, -0.0341797, 0.316406, -9.79297, 12.8.2021 17:29:10.968
794, 1.91056, 0.364883, 4.66882, -0.000976562, -0.000976562, -0.000976562, -0.0917969, 0.345703, -9.8291, 12.8.2021 17:29:10.976
795, 1.91056, 0.364883, 4.66882, -0.000976562, -0.000976562, -0.00195312, -0.0585938, 0.317383, -9.83691, 12.8.2021 17:29:10.984
796, 1.91056, 0.364883, 4.66882, -0.000976562, 0, -0.000976562, -0.046875, 0.314453, -9.82812, 12.8.2021 17:29:10.992
797, 1.91056, 0.364883, 4.66882, -0.000976562, -0.000976562, -0.000976562, -0.113281, 0.348633, -9.83594, 12.8.2021 17:29:11.000
798, 1.91056, 0.364883, 4.66882, 0, -0.000976562, -0.000976562, -0.0322266, 0.364258, -9.81543, 12.8.2021 17:29:11.012
799, 1.91056, 0.364883, 4.66882, -0.000976562, -0.000976562, -0.000976562, -0.0751953, 0.319336, -9.82715, 12.8.2021 17:29:11.016
800, 1.91056, 0.364883, 4.66882, -0.000976562, -0.000976562, -0.000976562, -0.0771484, 0.333984, -9.83203, 12.8.2021 17:29:11.024
801, 1.91056, 0.364883, 4.66882, 0, -0.000976562, -0.000976562, -0.0322266, 0.3125, -9.84473, 12.8.2021 17:29:11.032
802, 1.91056, 0.364883, 4.66882, -0.000976562, 0, -0.000976562, -0.0683594, 0.324219, -9.83496, 12.8.2021 17:29:11.040
803, 1.91056, 0.364883, 4.66882, 0, 0, -0.00195312, -0.046875, 0.324219, -9.83496, 12.8.2021 17:29:11.048
804, 1.91056, 0.364883, 4.66882, 0, -0.000976562, -0.00195312, -0.0136719, 0.305664, -9.85254, 12.8.2021 17:29:11.056
805, 1.91056, 0.364883, 4.66882, -0.000976562, -0.000976562, -0.00195312, -0.105469, 0.337891, -9.80078, 12.8.2021 17:29:11.064
