Seq, Rot x, Rot y, Rot z, Vel x, Vel y, Vel z, Acc x, Acc y, Acc z, Time(m.d.y h:m:s.ms)
0, 1.63912, 0.121671, 153.318, 0, -0.000976562, 0, -0.0654297, 0.288086, -9.80957, 1.10.2022 20:22:15.618
1, 1.63912, 0.121671, 153.318, -0.000976562, 0, 0, 0.00585938, 0.270508, -9.80176, 1.10.2022 20:22:15.624
2, 1.63912, 0.121671, 153.318, -0.000976562, 0, 0, 0, 0.264648, -9.74512, 1.10.2022 20:22:15.632
3, 1.63912, 0.121671, 153.318, 0, 0, 0, -0.0800781, 0.266602, -9.83105, 1.10.2022 20:22:15.640
4, 1.63912, 0.121671, 153.318, 0, 0, -0.000976562, 0.0400391, 0.28418, -9.7666, 1.10.2022 20:22:15.648
5, 1.63912, 0.121671, 153.318, 0, -0.000976562, -0.000976562, -0.0439453, 0.283203, -9.81738, 1.10.2022 20:22:15.656
6, 1.63912, 0.121671, 153.318, -0.000976562, 0, 0, -0.0136719, 0.328125, -9.875, 1.10.2022 20:22:15.664
7, 1.63912, 0.121671, 153.318, -0.000976562, -0.000976562, -0.000976562, 0.0507812, 0.238281, -9.83691, 1.10.2022 20:22:15.672
8, 1.63912, 0.121671, 153.318, -0.000976562, 0, 0, -0.0537109, 0.283203, -9.80762, 1.10.2022 20:22:15.680
9, 1.63912, 0.121671, 153.318, -0.000976562, -0.000976562, 0, -0.0244141, 0.316406, -9.7998, 1.10.2022 20:22:15.688
10, 1.63912, 0.121671, 153.318, -0.000976562, 0, -0.000976562, 0.0322266, 0.254883, -9.81934, 1.10.2022 20:22:15.696
11, 1.63912, 0.121671, 153.318, -0.000976562, 0, -0.000976562, -0.0820312, 0.326172, -9.8125, 1.10.2022 20:22:15.704
12, 1.63912, 0.121671, 153.318, -0.000976562, 0, 0, -0.100586, 0.282227, -9.79297, 1.10.2022 20:22:15.712
13, 1.63912, 0.121671, 153.318, 0, 0.000976562, 0, -0.0078125, 0.265625, -9.79883, 1.10.2022 20:22:15.720
14, 1.63912, 0.121671, 153.318, 0.000976562, -0.00195312, 0, -0.0556641, 0.282227, -9.79102, 1.10.2022 20:22:15.728
15, 1.63912, 0.121671, 153.318, 0.000976562, 0, 0.000976562, 0.046875, 0.261719, -9.81641, 1.10.2022 20:22:15.736
16, 1.63912, 0.121671, 153.318, -0.000976562, 0, 0, -0.0332031, 0.253906, -9.86816, 1.10.2022 20:22:15.744
17, 1.63912, 0.121671, 153.318, 0, 0, -0.000976562, -0.0527344, 0.293945, -9.78613, 1.10.2022 20:22:15.752
18, 1.63912, 0.121671, 153.318, -0.000976562, 0.000976562, -0.000976562, 0.00585938, 0.297852, -9.82715, 1.10.2022 20:22:15.760
19, 1.63912, 0.121671, 153.318, 0, 0.000976562, -0.00195312, -0.0195312, 0.279297, -9.75391, 1.10.2022 20:22:15.768
20, 1.63912, 0.121671, 153.318, -0.000976562, 0, 0, -0.0390625, 0.301758, -9.80762, 1.10.2022 20:22:15.776
21, 1.63912, 0.121671, 153.318, 0, 0, 0, 0.00390625, 0.244141, -9.79492, 1.10.2022 20:22:15.784
22, 1.63912, 0.121671, 153.318, 0, -0.00195312, 0, -0.0576172, 0.285156, -9.79785, 1.10.2022 20:22:15.792
23, 1.63912, 0.121671, 153.318, -0.000976562, -0.000976562, -0.000976562, -0.0253906, 0.338867, -9.83691, 1.10.2022 20:22:15.800
24, 1.63912, 0.121671, 153.318, -0.000976562, 0.000976562, -0.000976562, 0.0175781, 0.286133, -9.8418, 1.10.2022 20:22:15.808
25, 1.63912, 0.121671, 153.318, 0, 0, 0, -0.0966797, 0.325195, -9.85059, 1.10.2022 20:22:15.816
26, 1.63912, 0.121671, 153.318, -0.000976562, 0, 0, 0.0136719, 0.255859, -9.77441, 1.10.2022 20:22:15.824
27, 1.64073, 0.128476, 153.318, -0.000976562, 0, 0, -0.0322266, 0.228516, -9.81934, 1.10.2022 20:22:15.832
28, 1.64073, 0.128476, 153.318, -0.000976562, -0.000976562, -0.000976562, -0.0654297, 0.244141, -9.78906, 1.10.2022 20:22:15.840
29, 1.64073, 0.128476, 153.318, -0.000976562, 0, -0.000976562, 0.0166016, 0.293945, -9.78711, 1.10.2022 20:22:15.848
30, 1.64073, 0.128476, 153.318, -0.000976562, 0, -0.000976562, -0.0537109, 0.297852, -9.81641, 1.10.2022 20:22:15.856
31, 1.64073, 0.128476, 153.318, -0.000976562, -0.00292969, 0, -0.0576172, 0.306641, -9.78125, 1.10.2022 20:22:15.864
32, 1.64073, 0.128476, 153.318, 0, 0, 0, 0.0302734, 0.250977, -9.77441, 1.10.2022 20:22:15.872
33, 1.64073, 0.128476, 153.318, -0.000976562, 0, 0, -0.0742188, 0.233398, -9.75879, 1.10.2022 20:22:15.880
34, 1.64073, 0.128476, 153.318, 0, -0.000976562, -0.000976562, -0.0439453, 0.270508, -9.78711, 1.10.2022 20:22:15.888
35, 1.64073, 0.128476, 153.318, 0, 0, -0.00195312, 0.0224609, 0.30957, -9.82422, 1.10.2022 20:22:15.896
36, 1.64235, 0.135281, 153.318, 0, 0, -0.00195312, -0.09375, 0.335938, -9.80566, 1.10.2022 20:22:15.904
37, 1.64235, 0.135281, 153.318, -0.000976562, 0, 0, -0.0175781, 0.3125, -9.82617, 1.10.2022 20:22:15.912
38, 1.64235, 0.135281, 153.318, -0.000976562, 0, 0, -0.0146484, 0.24707, -9.79492, 1.10.2022 20:22:15.920
39, 1.64235, 0.135281, 153.318, -0.000976562, -0.00195312, 0.000976562, -0.09375, 0.25, -9.80566, 1.10.2022 20:22:15.928
40, 1.64235, 0.135281, 153.318, -0.000976562, 0, -0.000976562, 0.00195312, 0.226562, -9.7627, 1.10.2022 20:22:15.936
41, 1.64235, 0.135281, 153.318, 0, 0.000976562, -0.000976562, -0.0175781, 0.273438, -9.79883, 1.10.2022 20:22:15.944
42, 1.64396, 0.142085, 153.317, 0, 0, -0.000976562, -0.0507812, 0.339844, -9.79199, 1.10.2022 20:22:15.952
43, 1.64396, 0.142085, 153.317, -0.000976562, 0.000976562, 0, 0.0224609, 0.303711, -9.86035, 1.10.2022 20:22:15.960
44, 1.64396, 0.142085, 153.317, -0.000976562, 0.000976562, 0, -0.0263672, 0.274414, -9.75586, 1.10.2022 20:22:15.968
45, 1.64396, 0.142085, 153.317, -0.000976562, 0.000976562, -0.000976562, -0.00585938, 0.263672, -9.80664, 1.10.2022 20:22:15.976
46, 1.64396, 0.142085, 153.317, -0.000976562, 0.00195312, -0.000976562, 0.0351562, 0.261719, -9.80957, 1.10.2022 20:22:15.984
47, 1.64396, 0.142085, 153.317, 0, 0.000976562, -0.00195312, -0.0820312, 0.323242, -9.79199, 1.10.2022 20:22:15.992
48, 1.64396, 0.142085, 153.317, 0, 0, -0.000976562, -0.0380859, 0.28418, -9.76953, 1.10.2022 20:22:16.000
49, 1.64396, 0.142085, 153.317, 0, 0, 0, -0.0341797, 0.268555, -9.79199, 1.10.2022 20:22:16.008
50, 1.64396, 0.142085, 153.317, 0, 0, 0, -0.0859375, 0.277344, -9.77637, 1.10.2022 20:22:16.016
51, 1.64396, 0.142085, 153.317, 0, -0.000976562, -0.000976562, -0.000976562, 0.276367, -9.81348, 1.10.2022 20:22:16.024
52, 1.64396, 0.142085, 153.317, -0.00195312, 0.000976562, 0, -0.00390625, 0.241211, -9.84766, 1.10.2022 20:22:16.032
53, 1.64396, 0.142085, 153.317, -0.000976562, 0, 0, -0.0566406, 0.325195, -9.84375, 1.10.2022 20:22:16.040
54, 1.64396, 0.142085, 153.317, -0.000976562, 0, 0, 0.00878906, 0.270508, -9.80371, 1.10.2022 20:22:16.048
55, 1.64396, 0.142085, 153.317, 0, 0.000976562, 0, -0.0488281, 0.280273, -9.79395, 1.10.2022 20:22:16.056
56, 1.64396, 0.142085, 153.317, 0, 0, 0, -0.0556641, 0.268555, -9.79395, 1.10.2022 20:22:16.064
57, 1.64396, 0.142085, 153.317, 0, 0, -0.000976562, 0.0185547, 0.234375, -9.78613, 1.10.2022 20:22:16.072
58, 1.64396, 0.142085, 153.317, 0, 0, -0.000976562, -0.0419922, 0.276367, -9.82715, 1.10.2022 20:22:16.080
59, 1.64396, 0.142085, 153.317, 0, 0, 0, -0.0292969, 0.313477, -9.77637, 1.10.2022 20:22:16.088
60, 1.63716, 0.143699, 153.317, 0, 0, 0.000976562, 0.00878906, 0.293945, -9.79199, 1.10.2022 20:22:16.096
61, 1.63716, 0.143699, 153.317, -0.000976562, 0, 0, -0.0625, 0.294922, -9.81152, 1.10.2022 20:22:16.104
62, 1.63716, 0.143699, 153.317, 0, 0, 0, 0.0273438, 0.240234, -9.81445, 1.10.2022 20:22:16.112
63, 1.63716, 0.143699, 153.317, -0.000976562, 0, 0, 0.00585938, 0.28125, -9.83008, 1.10.2022 20:22:16.120
64, 1.63716, 0.143699, 153.317, -0.000976562, -0.000976562, -0.000976562, -0.0722656, 0.285156, -9.79492, 1.10.2022 20:22:16.128
65, 1.63716, 0.143699, 153.317, 0, 0.000976562, 0, 0.00585938, 0.28125, -9.82715, 1.10.2022 20:22:16.136
66, 1.63716, 0.143699, 153.317, -0.000976562, -0.000976562, -0.000976562, -0.0419922, 0.268555, -9.81738, 1.10.2022 20:22:16.144
67, 1.63716, 0.143699, 153.317, 0, 0, 0, -0.0292969, 0.306641, -9.79785, 1.10.2022 20:22:16.152
68, 1.63716, 0.143699, 153.317, -0.000976562, -0.000976562, 0.000976562, 0.0400391, 0.287109, -9.80664, 1.10.2022 20:22:16.160
69, 1.63716, 0.143699, 153.317, 0, -0.000976562, 0.000976562, -0.0683594, 0.27832, -9.81934, 1.10.2022 20:22:16.168
70, 1.63716, 0.143699, 153.317, -0.00195312, -0.000976562, 0, -0.0390625, 0.266602, -9.8125, 1.10.2022 20:22:16.176
71, 1.63716, 0.143699, 153.317, 0, 0.000976562, 0, 0.00878906, 0.27832, -9.82324, 1.10.2022 20:22:16.184
72, 1.63716, 0.143699, 153.317, 0, 0, -0.000976562, -0.0947266, 0.295898, -9.83301, 1.10.2022 20:22:16.192
73, 1.63716, 0.143699, 153.317, -0.000976562, 0, 0, -0.0605469, 0.301758, -9.78613, 1.10.2022 20:22:16.200
74, 1.63716, 0.143699, 153.317, 0.000976562, -0.000976562, 0, -0.0644531, 0.277344, -9.77246, 1.10.2022 20:22:16.208
75, 1.63716, 0.143699, 153.317, 0, -0.000976562, 0, -0.0673828, 0.282227, -9.77637, 1.10.2022 20:22:16.216
76, 1.63716, 0.143699, 153.317, -0.000976562, -0.000976562, 0, 0.0126953, 0.28125, -9.82715, 1.10.2022 20:22:16.224
77, 1.63716, 0.143699, 153.317, -0.000976562, 0, -0.000976562, -0.00292969, 0.242188, -9.79785, 1.10.2022 20:22:16.232
78, 1.63716, 0.143699, 153.317, 0, -0.000976562, -0.000976562, -0.0498047, 0.295898, -9.74316, 1.10.2022 20:22:16.238
79, 1.63716, 0.143699, 153.317, -0.000976562, 0, 0, 0.0419922, 0.287109, -9.79199, 1.10.2022 20:22:16.246
80, 1.63716, 0.143699, 153.317, 0, -0.000976562, 0, -0.015625, 0.283203, -9.81738, 1.10.2022 20:22:16.254
81, 1.63877, 0.150503, 153.317, -0.000976562, -0.000976562, 0, -0.0224609, 0.268555, -9.79883, 1.10.2022 20:22:16.262
82, 1.63877, 0.150503, 153.317, 0, -0.000976562, 0.000976562, -0.0107422, 0.245117, -9.81641, 1.10.2022 20:22:16.270
83, 1.63877, 0.150503, 153.317, 0, -0.000976562, 0, -0.0673828, 0.287109, -9.7832, 1.10.2022 20:22:16.278
84, 1.63871, 0.150408, 153.31, -0.000976562, -0.000976562, 0.000976562, -0.0576172, 0.301758, -9.80176, 1.10.2022 20:22:16.286
85, 1.63871, 0.150408, 153.31, 0, -0.00195312, 0, 0.00390625, 0.272461, -9.79492, 1.10.2022 20:22:16.294
86, 1.639, 0.150376, 153.311, 0, -0.00195312, 0, -0.0849609, 0.295898, -9.8418, 1.10.2022 20:22:16.302
87, 1.639, 0.150376, 153.311, -0.000976562, -0.000976562, 0, 0.0205078, 0.294922, -9.79688, 1.10.2022 20:22:16.310
88, 1.639, 0.150376, 153.311, -0.000976562, 0, 0.000976562, -0.00390625, 0.279297, -9.83887, 1.10.2022 20:22:16.318
89, 1.639, 0.150376, 153.311, 0, 0, 0.000976562, -0.0722656, 0.318359, -9.79199, 1.10.2022 20:22:16.326
90, 1.639, 0.150376, 153.311, 0, -0.000976562, 0, 0.0175781, 0.246094, -9.85449, 1.10.2022 20:22:16.334
91, 1.639, 0.150376, 153.311, 0, -0.000976562, -0.000976562, -0.0175781, 0.283203, -9.83203, 1.10.2022 20:22:16.342
92, 1.639, 0.150376, 153.311, -0.000976562, -0.00195312, 0, -0.0673828, 0.298828, -9.78125, 1.10.2022 20:22:16.350
93, 1.639, 0.150376, 153.311, -0.000976562, -0.000976562, -0.000976562, 0.015625, 0.256836, -9.82129, 1.10.2022 20:22:16.358
94, 1.64581, 0.148762, 153.311, -0.000976562, -0.00195312, 0, -0.0664062, 0.277344, -9.85938, 1.10.2022 20:22:16.366
95, 1.64581, 0.148762, 153.311, -0.000976562, -0.000976562, -0.000976562, -0.03125, 0.298828, -9.77637, 1.10.2022 20:22:16.374
96, 1.64581, 0.148762, 153.311, 0, -0.00195312, 0, 0.015625, 0.295898, -9.83691, 1.10.2022 20:22:16.382
97, 1.64581, 0.148762, 153.311, 0, -0.000976562, 0.000976562, -0.0693359, 0.303711, -9.76172, 1.10.2022 20:22:16.390
98, 1.64581, 0.148762, 153.311, -0.000976562, -0.000976562, 0, -0.000976562, 0.269531, -9.83496, 1.10.2022 20:22:16.398
99, 1.64581, 0.148762, 153.311, -0.000976562, -0.00195312, 0, 0.00683594, 0.277344, -9.76855, 1.10.2022 20:22:16.406
100, 1.64581, 0.148762, 153.311, 0, -0.00195312, -0.000976562, -0.0410156, 0.285156, -9.7959, 1.10.2022 20:22:16.414
101, 1.64581, 0.148762, 153.311, 0.000976562, -0.000976562, 0, -0.000976562, 0.256836, -9.81152, 1.10.2022 20:22:16.422
102, 1.64581, 0.148762, 153.311, 0, -0.000976562, 0, -0.0078125, 0.282227, -9.78223, 1.10.2022 20:22:16.430
103, 1.64581, 0.148762, 153.311, -0.000976562, -0.000976562, 0, -0.0302734, 0.291992, -9.85449, 1.10.2022 20:22:16.438
104, 1.64581, 0.148762, 153.311, -0.00195312, 0, -0.000976562, 0.00683594, 0.263672, -9.87988, 1.10.2022 20:22:16.446
105, 1.64581, 0.148762, 153.311, -0.00195312, 0, 0, -0.0556641, 0.249023, -9.79199, 1.10.2022 20:22:16.454
106, 1.64581, 0.148762, 153.311, -0.000976562, 0.000976562, 0, -0.0341797, 0.268555, -9.8125, 1.10.2022 20:22:16.462
107, 1.64581, 0.148762, 153.311, 0, 0, -0.00195312, -0.0146484, 0.260742, -9.79492, 1.10.2022 20:22:16.470
108, 1.64581, 0.148762, 153.311, 0, 0.000976562, 0, -0.0791016, 0.293945, -9.78516, 1.10.2022 20:22:16.478
109, 1.64581, 0.148762, 153.311, -0.000976562, 0, -0.00195312, -0.0273438, 0.3125, -9.82324, 1.10.2022 20:22:16.486
110, 1.64581, 0.148762, 153.311, 0, 0, 0, 0.0117188, 0.297852, -9.75586, 1.10.2022 20:22:16.494
111, 1.64581, 0.148762, 153.311, 0, 0, 0.000976562, -0.0771484, 0.285156, -9.79492, 1.10.2022 20:22:16.502
112, 1.64581, 0.148762, 153.311, 0, 0.000976562, 0, -0.0390625, 0.271484, -9.80859, 1.10.2022 20:22:16.510
113, 1.64419, 0.141958, 153.311, 0, 0.000976562, 0, -0.0146484, 0.286133, -9.76562, 1.10.2022 20:22:16.518
114, 1.64419, 0.141958, 153.311, 0, 0.000976562, 0, -0.0732422, 0.303711, -9.84668, 1.10.2022 20:22:16.526
115, 1.64419, 0.141958, 153.311, 0, 0.000976562, 0, -0.00195312, 0.267578, -9.8584, 1.10.2022 20:22:16.534
116, 1.64419, 0.141958, 153.311, 0, 0.000976562, -0.000976562, -0.0234375, 0.271484, -9.83887, 1.10.2022 20:22:16.542
117, 1.64419, 0.141958, 153.311, -0.00195312, -0.00195312, 0, -0.0175781, 0.290039, -9.80078, 1.10.2022 20:22:16.550
118, 1.64581, 0.148762, 153.311, -0.000976562, 0, -0.00195312, 0.00195312, 0.280273, -9.79199, 1.10.2022 20:22:16.558
119, 1.64581, 0.148762, 153.311, -0.000976562, 0.000976562, 0, -0.0449219, 0.267578, -9.84863, 1.10.2022 20:22:16.566
120, 1.64581, 0.148762, 153.311, 0, 0.000976562, -0.000976562, -0.00683594, 0.292969, -9.75586, 1.10.2022 20:22:16.574
121, 1.64419, 0.141958, 153.311, 0, 0.000976562, -0.000976562, 0.0273438, 0.266602, -9.83496, 1.10.2022 20:22:16.582
122, 1.64419, 0.141958, 153.311, 0, 0, 0, -0.0771484, 0.287109, -9.78613, 1.10.2022 20:22:16.590
123, 1.64419, 0.141958, 153.311, -0.000976562, -0.00195312, 0, -0.0302734, 0.279297, -9.84863, 1.10.2022 20:22:16.598
124, 1.64419, 0.141958, 153.311, -0.000976562, -0.00195312, -0.00195312, 0.0205078, 0.306641, -9.7959, 1.10.2022 20:22:16.606
125, 1.64557, 0.14889, 153.317, -0.000976562, 0, -0.00195312, -0.0771484, 0.329102, -9.8291, 1.10.2022 20:22:16.614
126, 1.64396, 0.142085, 153.317, 0, 0.000976562, 0, 0.0185547, 0.260742, -9.7998, 1.10.2022 20:22:16.622
127, 1.65076, 0.140472, 153.317, -0.000976562, 0, 0, -0.0703125, 0.297852, -9.80957, 1.10.2022 20:22:16.630
128, 1.65076, 0.140472, 153.317, 0, 0.00195312, -0.000976562, -0.0585938, 0.304688, -9.81348, 1.10.2022 20:22:16.638
129, 1.65076, 0.140472, 153.317, 0, 0, 0, 0.0224609, 0.268555, -9.82129, 1.10.2022 20:22:16.646
130, 1.65076, 0.140472, 153.317, 0, 0, 0, -0.046875, 0.272461, -9.85547, 1.10.2022 20:22:16.654
131, 1.65076, 0.140472, 153.317, 0, 0, 0, -0.0439453, 0.302734, -9.81934, 1.10.2022 20:22:16.662
132, 1.65076, 0.140472, 153.317, -0.000976562, 0, 0, 0.0253906, 0.285156, -9.80859, 1.10.2022 20:22:16.670
133, 1.65076, 0.140472, 153.317, 0, 0, -0.00195312, -0.0820312, 0.289062, -9.83496, 1.10.2022 20:22:16.678
134, 1.65076, 0.140472, 153.317, -0.000976562, 0, 0, -0.0107422, 0.276367, -9.8418, 1.10.2022 20:22:16.686
135, 1.65076, 0.140472, 153.317, 0, 0, 0, 0.00195312, 0.273438, -9.80371, 1.10.2022 20:22:16.694
136, 1.65238, 0.147276, 153.317, -0.000976562, -0.000976562, 0, -0.0888672, 0.301758, -9.79492, 1.10.2022 20:22:16.702
137, 1.65238, 0.147276, 153.317, -0.000976562, -0.000976562, 0, 0.0136719, 0.272461, -9.78516, 1.10.2022 20:22:16.710
138, 1.65918, 0.145662, 153.317, -0.000976562, -0.00195312, 0, -0.0390625, 0.288086, -9.81738, 1.10.2022 20:22:16.718
139, 1.65918, 0.145662, 153.317, -0.000976562, 0, 0, -0.0185547, 0.274414, -9.85547, 1.10.2022 20:22:16.726
140, 1.65918, 0.145662, 153.317, 0, -0.000976562, 0, 0.0195312, 0.270508, -9.86133, 1.10.2022 20:22:16.734
141, 1.65947, 0.14563, 153.319, 0, -0.000976562, 0, -0.0585938, 0.292969, -9.81152, 1.10.2022 20:22:16.742
142, 1.65947, 0.14563, 153.319, -0.000976562, -0.000976562, 0, -0.0390625, 0.325195, -9.78809, 1.10.2022 20:22:16.750
143, 1.65947, 0.14563, 153.319, 0, -0.000976562, 0, 0.0136719, 0.282227, -9.77832, 1.10.2022 20:22:16.758
144, 1.65941, 0.145534, 153.311, -0.000976562, -0.000976562, 0, -0.0634766, 0.294922, -9.81641, 1.10.2022 20:22:16.766
145, 1.65941, 0.145534, 153.311, -0.000976562, -0.000976562, 0, -0.0361328, 0.291016, -9.76758, 1.10.2022 20:22:16.774
146, 1.65941, 0.145534, 153.311, -0.000976562, -0.00195312, -0.000976562, 0.00292969, 0.257812, -9.84961, 1.10.2022 20:22:16.782
147, 1.65947, 0.14563, 153.319, -0.000976562, -0.00195312, -0.000976562, -0.0673828, 0.30957, -9.81152, 1.10.2022 20:22:16.790
148, 1.65947, 0.14563, 153.319, 0, -0.00195312, 0, -0.0351562, 0.289062, -9.84277, 1.10.2022 20:22:16.798
149, 1.66109, 0.152435, 153.319, 0, -0.000976562, 0, 0.0273438, 0.25, -9.82422, 1.10.2022 20:22:16.806
150, 1.66789, 0.150821, 153.319, 0, -0.000976562, -0.000976562, -0.0703125, 0.276367, -9.81738, 1.10.2022 20:22:16.814
151, 1.66789, 0.150821, 153.319, -0.000976562, -0.000976562, -0.000976562, -0.00878906, 0.299805, -9.82715, 1.10.2022 20:22:16.822
152, 1.66789, 0.150821, 153.319, 0, 0, 0, -0.0107422, 0.27832, -9.81348, 1.10.2022 20:22:16.830
153, 1.66789, 0.150821, 153.319, 0, -0.000976562, 0, -0.0488281, 0.297852, -9.81445, 1.10.2022 20:22:16.838
154, 1.66789, 0.150821, 153.319, 0, -0.000976562, 0.000976562, 0.0390625, 0.276367, -9.81641, 1.10.2022 20:22:16.846
155, 1.66789, 0.150821, 153.319, 0, -0.000976562, 0, -0.0419922, 0.291016, -9.83105, 1.10.2022 20:22:16.854
156, 1.66783, 0.150724, 153.311, -0.000976562, -0.000976562, 0, -0.0439453, 0.299805, -9.81934, 1.10.2022 20:22:16.862
157, 1.66783, 0.150724, 153.311, -0.000976562, -0.000976562, 0, 0.015625, 0.243164, -9.82422, 1.10.2022 20:22:16.870
158, 1.66783, 0.150724, 153.311, -0.000976562, -0.000976562, -0.000976562, -0.0585938, 0.285156, -9.80469, 1.10.2022 20:22:16.878
159, 1.66783, 0.150724, 153.311, -0.000976562, -0.000976562, 0, -0.0273438, 0.286133, -9.81934, 1.10.2022 20:22:16.886
160, 1.66789, 0.150821, 153.319, -0.000976562, -0.000976562, -0.000976562, 0.0224609, 0.275391, -9.81152, 1.10.2022 20:22:16.894
161, 1.66789, 0.150821, 153.319, -0.000976562, -0.00195312, -0.000976562, -0.0634766, 0.291016, -9.82617, 1.10.2022 20:22:16.902
162, 1.66628, 0.144017, 153.319, -0.000976562, 0, 0, 0.0371094, 0.267578, -9.79297, 1.10.2022 20:22:16.910
163, 1.66628, 0.144017, 153.319, -0.000976562, -0.000976562, -0.000976562, 0.0205078, 0.24707, -9.82422, 1.10.2022 20:22:16.918
164, 1.66628, 0.144017, 153.319, -0.000976562, -0.00195312, -0.000976562, -0.0771484, 0.291992, -9.79785, 1.10.2022 20:22:16.926
165, 1.66598, 0.144049, 153.317, 0, -0.000976562, 0, 0.0253906, 0.239258, -9.79395, 1.10.2022 20:22:16.934
166, 1.66628, 0.144017, 153.319, 0, -0.000976562, 0, -0.0566406, 0.277344, -9.85449, 1.10.2022 20:22:16.942
167, 1.66598, 0.144049, 153.317, 0, -0.000976562, -0.000976562, -0.0351562, 0.283203, -9.74609, 1.10.2022 20:22:16.950
168, 1.66598, 0.144049, 153.317, -0.00195312, -0.000976562, 0, 0.00195312, 0.270508, -9.78027, 1.10.2022 20:22:16.958
169, 1.66437, 0.137244, 153.317, -0.000976562, 0, -0.000976562, -0.0410156, 0.270508, -9.80566, 1.10.2022 20:22:16.966
170, 1.65756, 0.138858, 153.317, -0.000976562, -0.000976562, 0.000976562, -0.0214844, 0.270508, -9.87695, 1.10.2022 20:22:16.974
171, 1.65756, 0.138858, 153.317, -0.000976562, 0, 0, 0.0234375, 0.270508, -9.79297, 1.10.2022 20:22:16.982
172, 1.65756, 0.138858, 153.317, 0, 0, -0.000976562, -0.0673828, 0.273438, -9.79297, 1.10.2022 20:22:16.990
173, 1.65756, 0.138858, 153.317, -0.000976562, 0.000976562, -0.000976562, -0.00488281, 0.289062, -9.78418, 1.10.2022 20:22:16.998
174, 1.65756, 0.138858, 153.317, 0, 0, -0.000976562, -0.0195312, 0.270508, -9.78516, 1.10.2022 20:22:17.006
175, 1.65595, 0.132053, 153.317, -0.000976562, 0, 0, -0.0693359, 0.274414, -9.7627, 1.10.2022 20:22:17.014
176, 1.64915, 0.133667, 153.317, -0.000976562, -0.00292969, 0, 0.0117188, 0.262695, -9.77637, 1.10.2022 20:22:17.022
177, 1.64915, 0.133667, 153.317, -0.000976562, 0, 0, -0.0214844, 0.274414, -9.77539, 1.10.2022 20:22:17.030
178, 1.64915, 0.133667, 153.317, -0.000976562, 0, -0.000976562, -0.0507812, 0.291016, -9.82129, 1.10.2022 20:22:17.038
179, 1.64915, 0.133667, 153.317, -0.000976562, 0, -0.00195312, 0.0400391, 0.28418, -9.77832, 1.10.2022 20:22:17.046
180, 1.64915, 0.133667, 153.317, -0.000976562, 0, -0.000976562, -0.0244141, 0.269531, -9.77344, 1.10.2022 20:22:17.054
181, 1.64915, 0.133667, 153.317, -0.000976562, 0, -0.000976562, 0.00195312, 0.305664, -9.77246, 1.10.2022 20:22:17.062
182, 1.64754, 0.126862, 153.318, -0.000976562, -0.000976562, 0.000976562, 0.00488281, 0.280273, -9.87207, 1.10.2022 20:22:17.070
183, 1.64754, 0.126862, 153.318, -0.000976562, 0, 0.000976562, -0.078125, 0.274414, -9.74121, 1.10.2022 20:22:17.078
184, 1.64754, 0.126862, 153.318, 0, -0.000976562, 0.000976562, -0.0410156, 0.270508, -9.78906, 1.10.2022 20:22:17.086
185, 1.64073, 0.128476, 153.318, -0.000976562, 0, 0, 0.0195312, 0.269531, -9.83789, 1.10.2022 20:22:17.094
186, 1.64073, 0.128476, 153.318, -0.00195312, 0, -0.000976562, -0.0839844, 0.30957, -9.80664, 1.10.2022 20:22:17.102
187, 1.64073, 0.128476, 153.318, 0, 0, -0.000976562, 0.00390625, 0.291992, -9.78223, 1.10.2022 20:22:17.110
188, 1.64073, 0.128476, 153.318, -0.000976562, 0, -0.000976562, -0.0107422, 0.293945, -9.84375, 1.10.2022 20:22:17.118
189, 1.64073, 0.128476, 153.318, -0.000976562, 0, 0, -0.0439453, 0.273438, -9.79102, 1.10.2022 20:22:17.126
190, 1.64073, 0.128476, 153.318, -0.000976562, 0.000976562, 0, 0.0302734, 0.248047, -9.77637, 1.10.2022 20:22:17.134
191, 1.64073, 0.128476, 153.318, -0.000976562, 0, -0.000976562, -0.0527344, 0.272461, -9.78613, 1.10.2022 20:22:17.142
192, 1.63912, 0.121671, 153.318, -0.000976562, 0, -0.000976562, -0.0126953, 0.313477, -9.80469, 1.10.2022 20:22:17.150
193, 1.63912, 0.121671, 153.318, -0.000976562, 0.000976562, 0, 0.0107422, 0.275391, -9.81152, 1.10.2022 20:22:17.158
194, 1.63912, 0.121671, 153.318, 0, 0, 0, -0.0517578, 0.303711, -9.84961, 1.10.2022 20:22:17.166
195, 1.63912, 0.121671, 153.318, 0, 0.000976562, 0.000976562, 0.00585938, 0.28418, -9.84375, 1.10.2022 20:22:17.174
196, 1.63912, 0.121671, 153.318, 0.000976562, 0.000976562, 0.000976562, -0.00195312, 0.243164, -9.83594, 1.10.2022 20:22:17.182
197, 1.63912, 0.121671, 153.318, -0.000976562, 0.000976562, -0.000976562, -0.09375, 0.288086, -9.80664, 1.10.2022 20:22:17.190
198, 1.63912, 0.121671, 153.318, -0.000976562, 0, -0.000976562, -0.0273438, 0.268555, -9.82031, 1.10.2022 20:22:17.198
199, 1.63912, 0.121671, 153.318, -0.000976562, -0.000976562, -0.000976562, -0.0371094, 0.305664, -9.84277, 1.10.2022 20:22:17.204
200, 1.63912, 0.121671, 153.318, -0.000976562, 0, -0.000976562, -0.0556641, 0.306641, -9.80957, 1.10.2022 20:22:17.214
201, 1.64592, 0.120058, 153.318, 0, -0.000976562, 0, 0.0292969, 0.277344, -9.85645, 1.10.2022 20:22:17.220
202, 1.63912, 0.121671, 153.318, -0.000976562, -0.000976562, 0, -0.0439453, 0.248047, -9.8252, 1.10.2022 20:22:17.228
203, 1.63912, 0.121671, 153.318, 0, -0.000976562, 0.000976562, -0.0371094, 0.269531, -9.82715, 1.10.2022 20:22:17.236
204, 1.63912, 0.121671, 153.318, -0.000976562, 0, -0.000976562, 0.0400391, 0.275391, -9.78613, 1.10.2022 20:22:17.244
205, 1.63912, 0.121671, 153.318, -0.000976562, 0, -0.000976562, -0.0683594, 0.295898, -9.83105, 1.10.2022 20:22:17.252
206, 1.63912, 0.121671, 153.318, -0.000976562, -0.000976562, 0, -0.0458984, 0.294922, -9.8125, 1.10.2022 20:22:17.260
207, 1.63912, 0.121671, 153.318, -0.000976562, -0.00195312, 0, -0.015625, 0.266602, -9.83203, 1.10.2022 20:22:17.268
208, 1.63912, 0.121671, 153.318, -0.000976562, -0.000976562, 0, -0.0683594, 0.282227, -9.71289, 1.10.2022 20:22:17.276
209, 1.63912, 0.121671, 153.318, -0.000976562, -0.000976562, 0, -0.0126953, 0.258789, -9.80859, 1.10.2022 20:22:17.284
210, 1.63912, 0.121671, 153.318, 0, -0.000976562, 0.000976562, 0.0136719, 0.222656, -9.7959, 1.10.2022 20:22:17.292
211, 1.63912, 0.121671, 153.318, -0.000976562, 0, -0.000976562, -0.0908203, 0.301758, -9.78516, 1.10.2022 20:22:17.300
212, 1.64073, 0.128476, 153.318, -0.000976562, 0.000976562, -0.000976562, 0.0302734, 0.287109, -9.77832, 1.10.2022 20:22:17.308
213, 1.64073, 0.128476, 153.318, 0, -0.000976562, 0, -0.00292969, 0.251953, -9.80664, 1.10.2022 20:22:17.316
214, 1.64073, 0.128476, 153.318, -0.000976562, -0.000976562, 0, -0.046875, 0.269531, -9.84375, 1.10.2022 20:22:17.324
215, 1.64073, 0.128476, 153.318, 0, 0.000976562, 0, 0.03125, 0.243164, -9.75586, 1.10.2022 20:22:17.332
216, 1.64073, 0.128476, 153.318, 0, 0, -0.000976562, -0.0390625, 0.273438, -9.80566, 1.10.2022 20:22:17.340
217, 1.63393, 0.13009, 153.318, -0.000976562, 0, -0.000976562, -0.0361328, 0.310547, -9.77148, 1.10.2022 20:22:17.348
218, 1.63393, 0.13009, 153.318, -0.000976562, 0, -0.000976562, 0.0224609, 0.288086, -9.81348, 1.10.2022 20:22:17.356
219, 1.63393, 0.13009, 153.318, -0.00195312, -0.00195312, -0.000976562, -0.0625, 0.301758, -9.80957, 1.10.2022 20:22:17.364
220, 1.63393, 0.13009, 153.318, -0.00195312, -0.000976562, 0, -0.0078125, 0.301758, -9.8125, 1.10.2022 20:22:17.372
221, 1.63393, 0.13009, 153.318, -0.000976562, -0.00195312, -0.000976562, 0.0224609, 0.228516, -9.82227, 1.10.2022 20:22:17.380
222, 1.63393, 0.13009, 153.318, -0.000976562, -0.00195312, -0.000976562, -0.0898438, 0.305664, -9.85547, 1.10.2022 20:22:17.388
223, 1.63393, 0.13009, 153.318, 0, -0.00195312, -0.000976562, 0.0117188, 0.320312, -9.7793, 1.10.2022 20:22:17.396
224, 1.63393, 0.13009, 153.318, 0, -0.00195312, 0, -0.0126953, 0.288086, -9.82031, 1.10.2022 20:22:17.404
225, 1.63393, 0.13009, 153.318, -0.000976562, 0.00195312, 0, -0.0664062, 0.298828, -9.76172, 1.10.2022 20:22:17.412
226, 1.63393, 0.13009, 153.318, 0, 0, -0.000976562, -0.00488281, 0.257812, -9.77344, 1.10.2022 20:22:17.420
227, 1.63393, 0.13009, 153.318, 0, -0.000976562, 0, -0.0439453, 0.254883, -9.82031, 1.10.2022 20:22:17.428
228, 1.63393, 0.13009, 153.318, -0.000976562, -0.000976562, 0, -0.0351562, 0.303711, -9.84961, 1.10.2022 20:22:17.436
229, 1.63393, 0.13009, 153.318, 0, -0.00195312, -0.000976562, 0.0371094, 0.275391, -9.79785, 1.10.2022 20:22:17.444
230, 1.63393, 0.13009, 153.318, -0.000976562, -0.000976562, 0, -0.0488281, 0.299805, -9.82129, 1.10.2022 20:22:17.452
231, 1.63393, 0.13009, 153.318, -0.000976562, -0.00195312, 0, -0.00976562, 0.272461, -9.78027, 1.10.2022 20:22:17.460
232, 1.63393, 0.13009, 153.318, -0.000976562, -0.000976562, 0, 0.0273438, 0.222656, -9.80078, 1.10.2022 20:22:17.468
233, 1.63393, 0.13009, 153.318, -0.000976562, 0, -0.000976562, -0.0683594, 0.269531, -9.81934, 1.10.2022 20:22:17.476
234, 1.63393, 0.13009, 153.318, 0.000976562, 0, -0.000976562, -0.00976562, 0.274414, -9.77539, 1.10.2022 20:22:17.484
235, 1.63232, 0.123285, 153.318, 0, 0, -0.00195312, -0.00585938, 0.299805, -9.80273, 1.10.2022 20:22:17.492
236, 1.63232, 0.123285, 153.318, 0, -0.000976562, 0, -0.0927734, 0.28418, -9.7666, 1.10.2022 20:22:17.500
237, 1.63232, 0.123285, 153.318, -0.000976562, 0.000976562, 0, 0.0332031, 0.272461, -9.78809, 1.10.2022 20:22:17.508
238, 1.63232, 0.123285, 153.318, -0.000976562, 0.000976562, 0.000976562, -0.0273438, 0.268555, -9.79199, 1.10.2022 20:22:17.516
239, 1.63232, 0.123285, 153.318, 0, 0.000976562, 0, -0.0371094, 0.25, -9.81348, 1.10.2022 20:22:17.524
240, 1.63232, 0.123285, 153.318, 0, 0.000976562, -0.00195312, 0.0390625, 0.248047, -9.85742, 1.10.2022 20:22:17.532
241, 1.63232, 0.123285, 153.318, 0, 0, -0.000976562, -0.0576172, 0.291016, -9.75488, 1.10.2022 20:22:17.540
242, 1.63232, 0.123285, 153.318, -0.000976562, 0.000976562, 0, -0.0390625, 0.297852, -9.82422, 1.10.2022 20:22:17.548
243, 1.63232, 0.123285, 153.318, 0, 0.000976562, 0, -0.00292969, 0.253906, -9.80176, 1.10.2022 20:22:17.556
244, 1.63232, 0.123285, 153.318, -0.000976562, 0.000976562, 0, -0.0693359, 0.290039, -9.79102, 1.10.2022 20:22:17.564
245, 1.63071, 0.11648, 153.318, -0.000976562, 0, 0, -0.0390625, 0.254883, -9.81836, 1.10.2022 20:22:17.572
246, 1.63071, 0.11648, 153.318, -0.000976562, 0, 0, 0.0205078, 0.227539, -9.79883, 1.10.2022 20:22:17.580
247, 1.6239, 0.118094, 153.318, -0.000976562, 0.000976562, 0, -0.0537109, 0.316406, -9.81641, 1.10.2022 20:22:17.588
248, 1.6239, 0.118094, 153.318, 0, 0, -0.000976562, -0.0136719, 0.286133, -9.8291, 1.10.2022 20:22:17.596
249, 1.6239, 0.118094, 153.318, -0.000976562, 0, 0, -0.00878906, 0.264648, -9.8252, 1.10.2022 20:22:17.604
250, 1.6239, 0.118094, 153.318, -0.000976562, 0, 0.000976562, -0.0800781, 0.30957, -9.81543, 1.10.2022 20:22:17.612
251, 1.6239, 0.118094, 153.318, -0.000976562, 0, 0, 0.0332031, 0.267578, -9.78809, 1.10.2022 20:22:17.620
252, 1.6239, 0.118094, 153.318, -0.000976562, 0, -0.000976562, -0.0292969, 0.255859, -9.79688, 1.10.2022 20:22:17.628
253, 1.6239, 0.118094, 153.318, 0.000976562, 0, -0.000976562, -0.0341797, 0.320312, -9.78516, 1.10.2022 20:22:17.636
254, 1.6239, 0.118094, 153.318, 0, -0.000976562, 0.000976562, 0.0136719, 0.289062, -9.77539, 1.10.2022 20:22:17.644
255, 1.6239, 0.118094, 153.318, 0, 0, 0, -0.0703125, 0.27832, -9.80273, 1.10.2022 20:22:17.652
256, 1.6239, 0.118094, 153.318, 0, -0.000976562, -0.000976562, -0.0244141, 0.283203, -9.80566, 1.10.2022 20:22:17.660
257, 1.62552, 0.124899, 153.318, 0.000976562, -0.000976562, -0.000976562, 0.0400391, 0.203125, -9.79688, 1.10.2022 20:22:17.668
258, 1.61871, 0.126512, 153.318, 0, 0, -0.000976562, -0.078125, 0.270508, -9.85742, 1.10.2022 20:22:17.676
259, 1.61871, 0.126512, 153.318, 0, 0, -0.000976562, 0.0185547, 0.298828, -9.79688, 1.10.2022 20:22:17.684
260, 1.6171, 0.119708, 153.318, 0, 0, 0, -0.0175781, 0.258789, -9.80371, 1.10.2022 20:22:17.692
261, 1.6171, 0.119708, 153.318, 0, 0.000976562, 0, -0.0693359, 0.310547, -9.77832, 1.10.2022 20:22:17.700
262, 1.6171, 0.119708, 153.318, -0.000976562, 0.000976562, 0, 0.0205078, 0.280273, -9.81152, 1.10.2022 20:22:17.708
263, 1.6171, 0.119708, 153.318, 0, 0, 0, -0.000976562, 0.260742, -9.79199, 1.10.2022 20:22:17.716
264, 1.6171, 0.119708, 153.318, 0, -0.000976562, 0, -0.0722656, 0.301758, -9.78125, 1.10.2022 20:22:17.724
265, 1.6171, 0.119708, 153.318, 0, -0.000976562, 0, 0.0371094, 0.264648, -9.82812, 1.10.2022 20:22:17.732
266, 1.6171, 0.119708, 153.318, -0.000976562, -0.000976562, 0, -0.0605469, 0.263672, -9.7959, 1.10.2022 20:22:17.740
267, 1.6171, 0.119708, 153.318, 0, -0.00195312, -0.000976562, -0.0292969, 0.316406, -9.7998, 1.10.2022 20:22:17.748
268, 1.6171, 0.119708, 153.318, 0, -0.00195312, 0, 0.0732422, 0.279297, -9.76465, 1.10.2022 20:22:17.756
269, 1.6171, 0.119708, 153.318, -0.000976562, -0.00195312, 0, -0.0615234, 0.293945, -9.83984, 1.10.2022 20:22:17.764
270, 1.6171, 0.119708, 153.318, -0.000976562, -0.00292969, 0, -0.0175781, 0.306641, -9.80273, 1.10.2022 20:22:17.772
271, 1.6171, 0.119708, 153.318, 0, -0.000976562, -0.000976562, 0.00195312, 0.291992, -9.78223, 1.10.2022 20:22:17.780
272, 1.6171, 0.119708, 153.318, 0, 0, -0.000976562, -0.0693359, 0.308594, -9.79199, 1.10.2022 20:22:17.788
273, 1.6239, 0.118094, 153.318, 0, -0.00195312, 0, -0.0273438, 0.3125, -9.83984, 1.10.2022 20:22:17.796
274, 1.6239, 0.118094, 153.318, -0.000976562, -0.000976562, 0, 0, 0.27832, -9.74707, 1.10.2022 20:22:17.804
275, 1.6239, 0.118094, 153.318, 0, -0.000976562, 0, -0.0800781, 0.283203, -9.82617, 1.10.2022 20:22:17.812
276, 1.6239, 0.118094, 153.318, 0, -0.000976562, 0, 0.0322266, 0.258789, -9.81934, 1.10.2022 20:22:17.820
277, 1.6239, 0.118094, 153.318, -0.000976562, -0.00195312, 0, -0.0107422, 0.283203, -9.8125, 1.10.2022 20:22:17.828
278, 1.63232, 0.123285, 153.318, -0.000976562, -0.000976562, 0, -0.046875, 0.300781, -9.83594, 1.10.2022 20:22:17.836
279, 1.63232, 0.123285, 153.318, -0.000976562, -0.00195312, 0, 0.0683594, 0.272461, -9.78418, 1.10.2022 20:22:17.844
280, 1.63232, 0.123285, 153.318, -0.000976562, -0.00195312, 0, -0.0703125, 0.299805, -9.80957, 1.10.2022 20:22:17.852
281, 1.63232, 0.123285, 153.318, 0, -0.000976562, 0, -0.0214844, 0.248047, -9.77344, 1.10.2022 20:22:17.860
282, 1.63912, 0.121671, 153.318, 0, -0.000976562, 0, 0.0205078, 0.250977, -9.78809, 1.10.2022 20:22:17.868
283, 1.63912, 0.121671, 153.318, -0.000976562, -0.00195312, 0, -0.0595703, 0.269531, -9.76758, 1.10.2022 20:22:17.876
284, 1.63906, 0.121576, 153.31, -0.000976562, -0.000976562, 0, -0.00292969, 0.301758, -9.81055, 1.10.2022 20:22:17.884
285, 1.63906, 0.121576, 153.31, -0.000976562, -0.000976562, 0, 0.015625, 0.283203, -9.83008, 1.10.2022 20:22:17.892
286, 1.63906, 0.121576, 153.31, 0, -0.000976562, 0, -0.0800781, 0.317383, -9.83008, 1.10.2022 20:22:17.900
287, 1.63906, 0.121576, 153.31, -0.000976562, -0.000976562, 0, 0.0185547, 0.282227, -9.79004, 1.10.2022 20:22:17.908
288, 1.64454, 0.113127, 153.312, -0.000976562, -0.000976562, 0, -0.0419922, 0.245117, -9.83008, 1.10.2022 20:22:17.916
289, 1.64454, 0.113127, 153.312, 0.000976562, -0.00195312, 0, -0.0488281, 0.283203, -9.80566, 1.10.2022 20:22:17.924
290, 1.64454, 0.113127, 153.312, 0, -0.00195312, -0.000976562, 0.0390625, 0.233398, -9.8291, 1.10.2022 20:22:17.932
291, 1.64454, 0.113127, 153.312, -0.000976562, -0.000976562, 0, -0.0585938, 0.301758, -9.80664, 1.10.2022 20:22:17.940
292, 1.64454, 0.113127, 153.312, 0, -0.000976562, 0.000976562, -0.0292969, 0.276367, -9.8125, 1.10.2022 20:22:17.948
293, 1.64454, 0.113127, 153.312, -0.000976562, -0.000976562, 0, 0.0595703, 0.250977, -9.86426, 1.10.2022 20:22:17.956
294, 1.64454, 0.113127, 153.312, 0, -0.00195312, -0.000976562, -0.0703125, 0.271484, -9.81445, 1.10.2022 20:22:17.964
295, 1.64454, 0.113127, 153.312, 0, -0.000976562, -0.000976562, -0.0390625, 0.301758, -9.80273, 1.10.2022 20:22:17.972
296, 1.64454, 0.113127, 153.312, -0.000976562, 0.000976562, -0.000976562, -0.00976562, 0.276367, -9.76074, 1.10.2022 20:22:17.980
297, 1.64454, 0.113127, 153.312, -0.000976562, 0, 0, -0.0986328, 0.287109, -9.7832, 1.10.2022 20:22:17.988
298, 1.64454, 0.113127, 153.312, -0.000976562, 0, 0, 0.0263672, 0.269531, -9.76855, 1.10.2022 20:22:17.996
299, 1.64454, 0.113127, 153.312, -0.000976562, -0.000976562, 0, -0.0126953, 0.260742, -9.7998, 1.10.2022 20:22:18.004
300, 1.64454, 0.113127, 153.312, -0.000976562, -0.000976562, 0, -0.0556641, 0.294922, -9.81445, 1.10.2022 20:22:18.012
301, 1.64454, 0.113127, 153.312, -0.000976562, 0, -0.000976562, 0.00195312, 0.258789, -9.78809, 1.10.2022 20:22:18.020
302, 1.64425, 0.113157, 153.31, 0, 0, 0, -0.0361328, 0.264648, -9.76074, 1.10.2022 20:22:18.028
303, 1.64454, 0.113127, 153.312, -0.000976562, -0.000976562, 0, -0.015625, 0.311523, -9.80957, 1.10.2022 20:22:18.036
304, 1.64425, 0.113157, 153.31, -0.000976562, 0, -0.000976562, 0.0253906, 0.272461, -9.79004, 1.10.2022 20:22:18.044
305, 1.64425, 0.113157, 153.31, -0.000976562, -0.000976562, -0.000976562, -0.0625, 0.297852, -9.81152, 1.10.2022 20:22:18.052
306, 1.63751, 0.114867, 153.318, 0, 0, -0.000976562, -0.0410156, 0.285156, -9.80273, 1.10.2022 20:22:18.060
307, 1.63751, 0.114867, 153.318, -0.000976562, 0, -0.000976562, 0.0224609, 0.268555, -9.80957, 1.10.2022 20:22:18.068
308, 1.63751, 0.114867, 153.318, 0, 0.000976562, -0.000976562, -0.0654297, 0.301758, -9.7998, 1.10.2022 20:22:18.076
309, 1.63751, 0.114867, 153.318, 0, 0, -0.000976562, -0.0283203, 0.279297, -9.8457, 1.10.2022 20:22:18.084
310, 1.63751, 0.114867, 153.318, 0, 0, 0, 0.00195312, 0.275391, -9.78516, 1.10.2022 20:22:18.092
311, 1.63751, 0.114867, 153.318, 0, -0.000976562, -0.000976562, -0.0908203, 0.296875, -9.78516, 1.10.2022 20:22:18.100
312, 1.63751, 0.114867, 153.318, 0, 0, -0.000976562, 0.0449219, 0.300781, -9.76855, 1.10.2022 20:22:18.108
313, 1.63751, 0.114867, 153.318, 0.000976562, 0, -0.000976562, -0.046875, 0.279297, -9.83887, 1.10.2022 20:22:18.116
314, 1.63751, 0.114867, 153.318, -0.000976562, 0, 0, -0.0126953, 0.303711, -9.79102, 1.10.2022 20:22:18.124
315, 1.63912, 0.121671, 153.318, -0.000976562, 0, 0, 0.0332031, 0.274414, -9.76172, 1.10.2022 20:22:18.132
316, 1.64431, 0.113253, 153.318, -0.000976562, 0.000976562, -0.000976562, -0.0537109, 0.238281, -9.83496, 1.10.2022 20:22:18.140
317, 1.64431, 0.113253, 153.318, -0.00195312, 0, 0, -0.0390625, 0.27832, -9.7959, 1.10.2022 20:22:18.148
318, 1.64431, 0.113253, 153.318, -0.000976562, 0, 0, 0.00878906, 0.244141, -9.78613, 1.10.2022 20:22:18.156
319, 1.64431, 0.113253, 153.318, -0.000976562, 0.000976562, 0, -0.0625, 0.306641, -9.78809, 1.10.2022 20:22:18.164
320, 1.64431, 0.113253, 153.318, 0, 0, 0, -0.00488281, 0.289062, -9.78418, 1.10.2022 20:22:18.172
321, 1.64431, 0.113253, 153.318, 0, 0, 0, -0.0078125, 0.277344, -9.78027, 1.10.2022 20:22:18.178
322, 1.64431, 0.113253, 153.318, 0, 0, -0.000976562, -0.0673828, 0.316406, -9.80664, 1.10.2022 20:22:18.186
323, 1.64431, 0.113253, 153.318, -0.000976562, 0, 0, 0.00878906, 0.277344, -9.77344, 1.10.2022 20:22:18.194
324, 1.64431, 0.113253, 153.318, -0.000976562, -0.000976562, -0.000976562, -0.015625, 0.291992, -9.85742, 1.10.2022 20:22:18.202
325, 1.64592, 0.120058, 153.318, -0.000976562, 0, 0, -0.0439453, 0.276367, -9.8125, 1.10.2022 20:22:18.210
326, 1.64592, 0.120058, 153.318, -0.000976562, -0.000976562, -0.000976562, 0.00390625, 0.274414, -9.83008, 1.10.2022 20:22:18.218
327, 1.64592, 0.120058, 153.318, 0, 0, -0.000976562, -0.0126953, 0.272461, -9.77344, 1.10.2022 20:22:18.226
328, 1.64592, 0.120058, 153.318, -0.000976562, 0, 0, -0.0390625, 0.268555, -9.80078, 1.10.2022 20:22:18.234
329, 1.64592, 0.120058, 153.318, 0, 0.000976562, 0, 0.0439453, 0.271484, -9.83789, 1.10.2022 20:22:18.242
330, 1.64431, 0.113253, 153.318, 0, 0.000976562, -0.000976562, -0.0732422, 0.295898, -9.83496, 1.10.2022 20:22:18.250
331, 1.64431, 0.113253, 153.318, -0.000976562, 0, -0.000976562, -0.0390625, 0.292969, -9.81445, 1.10.2022 20:22:18.258
332, 1.64431, 0.113253, 153.318, 0, 0, 0, 0.0302734, 0.246094, -9.79297, 1.10.2022 20:22:18.266
333, 1.64431, 0.113253, 153.318, -0.000976562, 0, 0, -0.0625, 0.231445, -9.77148, 1.10.2022 20:22:18.274
334, 1.64431, 0.113253, 153.318, 0, 0.000976562, 0, -0.0341797, 0.263672, -9.79883, 1.10.2022 20:22:18.282
335, 1.64431, 0.113253, 153.318, -0.000976562, 0, 0, -0.0195312, 0.260742, -9.77051, 1.10.2022 20:22:18.290
336, 1.64431, 0.113253, 153.318, -0.000976562, -0.000976562, -0.000976562, -0.0722656, 0.276367, -9.81641, 1.10.2022 20:22:18.298
337, 1.64431, 0.113253, 153.318, 0, -0.000976562, -0.000976562, 0.0136719, 0.250977, -9.79102, 1.10.2022 20:22:18.306
338, 1.63751, 0.114867, 153.318, 0, 0, 0, 0.00390625, 0.24707, -9.80957, 1.10.2022 20:22:18.314
339, 1.63751, 0.114867, 153.318, 0, 0, 0, -0.0429688, 0.305664, -9.77637, 1.10.2022 20:22:18.322
340, 1.63751, 0.114867, 153.318, 0, 0, -0.000976562, 0.0185547, 0.275391, -9.79492, 1.10.2022 20:22:18.330
341, 1.63751, 0.114867, 153.318, 0, 0, -0.000976562, -0.0654297, 0.280273, -9.78809, 1.10.2022 20:22:18.338
342, 1.63751, 0.114867, 153.318, 0, 0, 0, -0.0507812, 0.28418, -9.77637, 1.10.2022 20:22:18.346
343, 1.63071, 0.11648, 153.318, 0, 0, -0.000976562, 0.0244141, 0.262695, -9.83789, 1.10.2022 20:22:18.354
344, 1.63071, 0.11648, 153.318, 0, 0, -0.000976562, -0.0585938, 0.28125, -9.81738, 1.10.2022 20:22:18.362
345, 1.63071, 0.11648, 153.318, 0, 0.000976562, -0.000976562, -0.00390625, 0.279297, -9.83203, 1.10.2022 20:22:18.370
346, 1.63071, 0.11648, 153.318, -0.000976562, 0, 0, -0.00585938, 0.263672, -9.80176, 1.10.2022 20:22:18.378
347, 1.63071, 0.11648, 153.318, -0.000976562, 0.000976562, 0, -0.0683594, 0.302734, -9.82812, 1.10.2022 20:22:18.386
348, 1.63071, 0.11648, 153.318, -0.000976562, 0.00195312, -0.000976562, 0.0107422, 0.283203, -9.83008, 1.10.2022 20:22:18.394
349, 1.6239, 0.118094, 153.318, -0.00195312, 0.000976562, -0.000976562, -0.0078125, 0.288086, -9.82031, 1.10.2022 20:22:18.402
350, 1.6239, 0.118094, 153.318, -0.000976562, 0.000976562, 0, -0.0556641, 0.280273, -9.80273, 1.10.2022 20:22:18.410
351, 1.6239, 0.118094, 153.318, 0, 0, 0, -0.00585938, 0.277344, -9.79688, 1.10.2022 20:22:18.418
352, 1.6239, 0.118094, 153.318, -0.000976562, 0, 0, -0.0390625, 0.266602, -9.81738, 1.10.2022 20:22:18.426
353, 1.6239, 0.118094, 153.318, 0, 0, 0, -0.0195312, 0.287109, -9.78223, 1.10.2022 20:22:18.434
354, 1.6239, 0.118094, 153.318, 0, 0, -0.000976562, 0.0185547, 0.263672, -9.79785, 1.10.2022 20:22:18.442
355, 1.6239, 0.118094, 153.318, -0.000976562, 0.000976562, -0.00195312, -0.0488281, 0.274414, -9.8291, 1.10.2022 20:22:18.450
356, 1.6239, 0.118094, 153.318, 0, 0, -0.000976562, -0.0371094, 0.268555, -9.81738, 1.10.2022 20:22:18.458
357, 1.6239, 0.118094, 153.318, -0.000976562, 0.000976562, -0.000976562, 0.00195312, 0.270508, -9.80371, 1.10.2022 20:22:18.466
358, 1.6239, 0.118094, 153.318, 0, 0, 0, -0.0654297, 0.330078, -9.84668, 1.10.2022 20:22:18.474
359, 1.6239, 0.118094, 153.318, 0, 0.000976562, 0, 0.000976562, 0.271484, -9.83691, 1.10.2022 20:22:18.482
360, 1.6239, 0.118094, 153.318, -0.000976562, 0, 0, -0.0498047, 0.263672, -9.87695, 1.10.2022 20:22:18.490
361, 1.6239, 0.118094, 153.318, 0, -0.00195312, 0, -0.0625, 0.301758, -9.7832, 1.10.2022 20:22:18.498
362, 1.6239, 0.118094, 153.318, 0, -0.000976562, 0, 0.0205078, 0.275391, -9.80176, 1.10.2022 20:22:18.506
363, 1.6239, 0.118094, 153.318, -0.000976562, -0.000976562, 0, -0.0302734, 0.266602, -9.83398, 1.10.2022 20:22:18.514
364, 1.6239, 0.118094, 153.318, -0.000976562, -0.000976562, 0, -0.0556641, 0.290039, -9.81641, 1.10.2022 20:22:18.522
365, 1.6239, 0.118094, 153.318, -0.000976562, -0.000976562, 0, 0.015625, 0.240234, -9.8291, 1.10.2022 20:22:18.530
366, 1.62552, 0.124899, 153.318, -0.000976562, -0.00195312, 0, -0.0244141, 0.277344, -9.76367, 1.10.2022 20:22:18.538
367, 1.62552, 0.124899, 153.318, 0, -0.00195312, 0, -0.0107422, 0.291016, -9.83398, 1.10.2022 20:22:18.546
368, 1.62552, 0.124899, 153.318, -0.000976562, -0.00195312, -0.000976562, 0.0253906, 0.294922, -9.80371, 1.10.2022 20:22:18.554
369, 1.62552, 0.124899, 153.318, -0.000976562, -0.000976562, 0, -0.0673828, 0.301758, -9.79688, 1.10.2022 20:22:18.562
370, 1.62552, 0.124899, 153.318, -0.000976562, -0.000976562, 0, 0.0166016, 0.300781, -9.75391, 1.10.2022 20:22:18.570
371, 1.62552, 0.124899, 153.318, -0.000976562, -0.000976562, 0, -0.0126953, 0.25, -9.81348, 1.10.2022 20:22:18.578
372, 1.62552, 0.124899, 153.318, -0.00195312, -0.000976562, 0, -0.0605469, 0.31543, -9.83691, 1.10.2022 20:22:18.586
373, 1.62552, 0.124899, 153.318, -0.000976562, -0.000976562, -0.000976562, 0.0507812, 0.271484, -9.82812, 1.10.2022 20:22:18.594
374, 1.63232, 0.123285, 153.318, 0, -0.000976562, -0.000976562, -0.00390625, 0.291992, -9.86035, 1.10.2022 20:22:18.602
375, 1.63232, 0.123285, 153.318, 0, -0.000976562, 0, -0.046875, 0.297852, -9.82422, 1.10.2022 20:22:18.610
376, 1.63232, 0.123285, 153.318, 0, 0, -0.000976562, 0.0654297, 0.258789, -9.81445, 1.10.2022 20:22:18.618
377, 1.63232, 0.123285, 153.318, 0.000976562, -0.00195312, -0.000976562, -0.0849609, 0.270508, -9.85254, 1.10.2022 20:22:18.626
378, 1.63232, 0.123285, 153.318, 0, -0.000976562, 0, -0.03125, 0.260742, -9.77051, 1.10.2022 20:22:18.634
379, 1.63232, 0.123285, 153.318, 0, -0.000976562, 0, -0.00390625, 0.228516, -9.82129, 1.10.2022 20:22:18.642
380, 1.63232, 0.123285, 153.318, 0, 0, 0, -0.0820312, 0.285156, -9.79297, 1.10.2022 20:22:18.650
381, 1.63071, 0.11648, 153.318, -0.000976562, 0, 0, -0.0214844, 0.307617, -9.7627, 1.10.2022 20:22:18.658
382, 1.63071, 0.11648, 153.318, -0.000976562, 0, -0.000976562, 0.00488281, 0.271484, -9.73535, 1.10.2022 20:22:18.666
383, 1.63071, 0.11648, 153.318, -0.00195312, -0.000976562, 0, -0.0527344, 0.28418, -9.7627, 1.10.2022 20:22:18.674
384, 1.63071, 0.11648, 153.318, 0, -0.000976562, 0, 0.015625, 0.259766, -9.83984, 1.10.2022 20:22:18.682
385, 1.63071, 0.11648, 153.318, 0, -0.000976562, 0, 0.00292969, 0.264648, -9.85352, 1.10.2022 20:22:18.690
386, 1.63071, 0.11648, 153.318, 0, 0, 0, -0.0458984, 0.28418, -9.76953, 1.10.2022 20:22:18.698
387, 1.63071, 0.11648, 153.318, 0, -0.000976562, -0.000976562, 0.046875, 0.287109, -9.77637, 1.10.2022 20:22:18.706
388, 1.63071, 0.11648, 153.318, -0.000976562, -0.00195312, -0.000976562, -0.0273438, 0.28125, -9.82422, 1.10.2022 20:22:18.714
389, 1.63071, 0.11648, 153.318, 0, 0, 0, -0.0244141, 0.303711, -9.76465, 1.10.2022 20:22:18.722
390, 1.63071, 0.11648, 153.318, 0, -0.000976562, 0, 0.0224609, 0.277344, -9.8584, 1.10.2022 20:22:18.730
391, 1.63071, 0.11648, 153.318, 0, -0.000976562, 0, -0.0439453, 0.268555, -9.80371, 1.10.2022 20:22:18.738
392, 1.63071, 0.11648, 153.318, 0, -0.000976562, 0.000976562, -0.0224609, 0.268555, -9.80176, 1.10.2022 20:22:18.746
393, 1.62903, 0.109581, 153.31, 0.000976562, 0.000976562, 0.000976562, 0.0253906, 0.258789, -9.79785, 1.10.2022 20:22:18.754
394, 1.62903, 0.109581, 153.31, 0, -0.000976562, 0, -0.0722656, 0.280273, -9.80762, 1.10.2022 20:22:18.762
395, 1.62903, 0.109581, 153.31, 0, 0, -0.000976562, -0.000976562, 0.303711, -9.79102, 1.10.2022 20:22:18.770
396, 1.62909, 0.109676, 153.318, 0, -0.00195312, -0.00292969, -0.0224609, 0.30957, -9.82422, 1.10.2022 20:22:18.778
397, 1.62909, 0.109676, 153.318, 0, -0.000976562, 0, -0.0410156, 0.311523, -9.80469, 1.10.2022 20:22:18.786
398, 1.62909, 0.109676, 153.318, 0, -0.00195312, 0, 0.00390625, 0.253906, -9.81445, 1.10.2022 20:22:18.794
399, 1.62903, 0.109581, 153.31, -0.000976562, -0.000976562, 0.000976562, -0.0224609, 0.261719, -9.82324, 1.10.2022 20:22:18.802
400, 1.62903, 0.109581, 153.31, -0.000976562, 0.000976562, 0, -0.0361328, 0.28125, -9.76074, 1.10.2022 20:22:18.810
401, 1.62742, 0.102776, 153.311, -0.000976562, 0, -0.000976562, 0.0419922, 0.25293, -9.7793, 1.10.2022 20:22:18.818
402, 1.62748, 0.102871, 153.318, -0.000976562, 0, -0.00195312, -0.0224609, 0.292969, -9.82227, 1.10.2022 20:22:18.826
403, 1.63428, 0.101258, 153.318, -0.000976562, 0, -0.000976562, -0.0478516, 0.303711, -9.7832, 1.10.2022 20:22:18.834
404, 1.63428, 0.101258, 153.318, -0.000976562, 0.000976562, -0.000976562, 0.0419922, 0.225586, -9.81738, 1.10.2022 20:22:18.842
405, 1.63428, 0.101258, 153.318, -0.000976562, -0.000976562, 0, -0.100586, 0.296875, -9.79199, 1.10.2022 20:22:18.850
406, 1.63428, 0.101258, 153.318, 0, -0.00195312, 0.000976562, -0.015625, 0.263672, -9.80371, 1.10.2022 20:22:18.858
407, 1.63428, 0.101258, 153.318, 0, -0.000976562, 0, -0.000976562, 0.271484, -9.81543, 1.10.2022 20:22:18.866
408, 1.63428, 0.101258, 153.318, 0, -0.000976562, 0, -0.0771484, 0.285156, -9.79785, 1.10.2022 20:22:18.874
409, 1.63428, 0.101258, 153.318, 0, -0.00195312, 0, -0.00488281, 0.274414, -9.77539, 1.10.2022 20:22:18.882
410, 1.63428, 0.101258, 153.318, 0, -0.00195312, -0.000976562, -0.0273438, 0.264648, -9.84375, 1.10.2022 20:22:18.890
411, 1.62748, 0.102871, 153.318, 0, -0.000976562, 0, -0.0585938, 0.286133, -9.8291, 1.10.2022 20:22:18.898
412, 1.62748, 0.102871, 153.318, 0, 0.000976562, 0, 0.0283203, 0.269531, -9.77148, 1.10.2022 20:22:18.906
413, 1.62748, 0.102871, 153.318, 0, 0.000976562, -0.000976562, -0.0488281, 0.268555, -9.80762, 1.10.2022 20:22:18.914
414, 1.62748, 0.102871, 153.318, 0, 0, -0.000976562, -0.0410156, 0.311523, -9.79785, 1.10.2022 20:22:18.922
415, 1.62748, 0.102871, 153.318, -0.000976562, 0.000976562, 0, 0.0751953, 0.271484, -9.82422, 1.10.2022 20:22:18.930
416, 1.62748, 0.102871, 153.318, 0, 0, -0.000976562, -0.0673828, 0.253906, -9.80078, 1.10.2022 20:22:18.938
417, 1.62748, 0.102871, 153.318, 0, 0, -0.000976562, -0.0175781, 0.267578, -9.77832, 1.10.2022 20:22:18.946
418, 1.62748, 0.102871, 153.318, 0, 0, -0.000976562, -0.00585938, 0.286133, -9.8291, 1.10.2022 20:22:18.954
419, 1.62748, 0.102871, 153.318, -0.000976562, 0.000976562, 0, -0.0683594, 0.307617, -9.83008, 1.10.2022 20:22:18.962
420, 1.62748, 0.102871, 153.318, -0.000976562, -0.000976562, 0, 0.00390625, 0.280273, -9.80176, 1.10.2022 20:22:18.970
421, 1.62748, 0.102871, 153.318, 0, 0.000976562, 0, -0.00585938, 0.276367, -9.83887, 1.10.2022 20:22:18.978
422, 1.62748, 0.102871, 153.318, 0, 0.000976562, 0, -0.0683594, 0.28125, -9.83301, 1.10.2022 20:22:18.986
423, 1.62748, 0.102871, 153.318, -0.000976562, 0, -0.000976562, 0.0361328, 0.292969, -9.74707, 1.10.2022 20:22:18.994
424, 1.62748, 0.102871, 153.318, 0.000976562, 0, -0.000976562, -0.03125, 0.253906, -9.78516, 1.10.2022 20:22:19.002
425, 1.62748, 0.102871, 153.318, 0, 0, 0, -0.0791016, 0.291016, -9.76465, 1.10.2022 20:22:19.010
426, 1.62748, 0.102871, 153.318, -0.000976562, -0.000976562, 0, 0.00585938, 0.25293, -9.83496, 1.10.2022 20:22:19.018
427, 1.62748, 0.102871, 153.318, 0, 0, 0, -0.0292969, 0.251953, -9.79492, 1.10.2022 20:22:19.026
428, 1.62748, 0.102871, 153.318, 0, -0.000976562, 0, -0.0332031, 0.307617, -9.76465, 1.10.2022 20:22:19.034
429, 1.62748, 0.102871, 153.318, 0, -0.000976562, -0.000976562, 0.0419922, 0.266602, -9.82129, 1.10.2022 20:22:19.042
430, 1.62909, 0.109676, 153.318, 0, -0.00195312, -0.000976562, -0.0595703, 0.318359, -9.87305, 1.10.2022 20:22:19.050
431, 1.62909, 0.109676, 153.318, 0, -0.000976562, -0.000976562, -0.00585938, 0.308594, -9.80078, 1.10.2022 20:22:19.058
432, 1.62909, 0.109676, 153.318, 0, -0.000976562, 0, -0.00585938, 0.259766, -9.82031, 1.10.2022 20:22:19.066
433, 1.62909, 0.109676, 153.318, 0.000976562, 0, 0, -0.0712891, 0.266602, -9.74902, 1.10.2022 20:22:19.074
434, 1.62909, 0.109676, 153.318, -0.000976562, 0, 0, 0.0214844, 0.283203, -9.7334, 1.10.2022 20:22:19.082
435, 1.62909, 0.109676, 153.318, -0.000976562, -0.000976562, 0, -0.00292969, 0.253906, -9.80664, 1.10.2022 20:22:19.090
436, 1.62909, 0.109676, 153.318, 0, -0.00195312, -0.000976562, -0.0683594, 0.297852, -9.82812, 1.10.2022 20:22:19.098
437, 1.62909, 0.109676, 153.318, -0.000976562, -0.000976562, 0, 0.0449219, 0.293945, -9.78711, 1.10.2022 20:22:19.106
438, 1.62909, 0.109676, 153.318, 0, -0.000976562, 0.000976562, -0.0253906, 0.273438, -9.81738, 1.10.2022 20:22:19.114
439, 1.62909, 0.109676, 153.318, -0.000976562, -0.000976562, 0, -0.0664062, 0.291992, -9.86426, 1.10.2022 20:22:19.122
440, 1.62909, 0.109676, 153.318, 0, -0.000976562, -0.000976562, 0.0341797, 0.25, -9.82129, 1.10.2022 20:22:19.130
441, 1.62909, 0.109676, 153.318, -0.000976562, -0.000976562, -0.000976562, -0.0722656, 0.285156, -9.80957, 1.10.2022 20:22:19.138
442, 1.62909, 0.109676, 153.318, -0.000976562, 0, -0.000976562, -0.0107422, 0.294922, -9.81055, 1.10.2022 20:22:19.146
443, 1.62909, 0.109676, 153.318, -0.000976562, 0, -0.000976562, -0.0244141, 0.287109, -9.7959, 1.10.2022 20:22:19.154
444, 1.63589, 0.108062, 153.318, -0.000976562, 0, 0.000976562, -0.0605469, 0.288086, -9.8125, 1.10.2022 20:22:19.160
445, 1.63589, 0.108062, 153.318, 0, -0.000976562, 0.000976562, 0.00292969, 0.283203, -9.83203, 1.10.2022 20:22:19.168
446, 1.63589, 0.108062, 153.318, 0, -0.000976562, -0.000976562, -0.0175781, 0.246094, -9.78809, 1.10.2022 20:22:19.176
447, 1.63589, 0.108062, 153.318, 0, -0.000976562, -0.000976562, -0.046875, 0.307617, -9.83789, 1.10.2022 20:22:19.184
448, 1.63589, 0.108062, 153.318, -0.000976562, -0.000976562, -0.000976562, 0.0400391, 0.296875, -9.81055, 1.10.2022 20:22:19.192
449, 1.63589, 0.108062, 153.318, -0.000976562, 0, 0, -0.046875, 0.257812, -9.8418, 1.10.2022 20:22:19.200
450, 1.63589, 0.108062, 153.318, 0, -0.000976562, 0, -0.0449219, 0.283203, -9.74902, 1.10.2022 20:22:19.208
451, 1.63589, 0.108062, 153.318, -0.000976562, -0.000976562, 0, 0.0263672, 0.235352, -9.73926, 1.10.2022 20:22:19.216
452, 1.63589, 0.108062, 153.318, -0.000976562, -0.000976562, 0, -0.0341797, 0.239258, -9.78516, 1.10.2022 20:22:19.224
453, 1.63589, 0.108062, 153.318, 0, 0, -0.000976562, -0.0263672, 0.269531, -9.76855, 1.10.2022 20:22:19.232
454, 1.63589, 0.108062, 153.318, 0.000976562, -0.000976562, -0.00195312, 0.0478516, 0.255859, -9.85938, 1.10.2022 20:22:19.240
455, 1.63589, 0.108062, 153.318, 0, -0.000976562, -0.000976562, -0.0585938, 0.331055, -9.81543, 1.10.2022 20:22:19.248
456, 1.63589, 0.108062, 153.318, 0, 0, -0.000976562, -0.0351562, 0.28418, -9.83398, 1.10.2022 20:22:19.256
457, 1.63589, 0.108062, 153.318, 0, -0.000976562, 0, -0.0185547, 0.248047, -9.83301, 1.10.2022 20:22:19.264
458, 1.63589, 0.108062, 153.318, 0, -0.000976562, 0, -0.09375, 0.282227, -9.79297, 1.10.2022 20:22:19.272
459, 1.62909, 0.109676, 153.318, 0, -0.000976562, 0, 0.0302734, 0.253906, -9.78613, 1.10.2022 20:22:19.280
460, 1.62909, 0.109676, 153.318, -0.000976562, -0.000976562, 0, -0.0605469, 0.24707, -9.80566, 1.10.2022 20:22:19.288
461, 1.62909, 0.109676, 153.318, -0.000976562, -0.000976562, 0, -0.0751953, 0.269531, -9.83594, 1.10.2022 20:22:19.296
462, 1.62909, 0.109676, 153.318, -0.000976562, -0.000976562, -0.000976562, 0.0234375, 0.258789, -9.79102, 1.10.2022 20:22:19.304
463, 1.62909, 0.109676, 153.318, -0.000976562, -0.000976562, -0.000976562, -0.0556641, 0.244141, -9.77344, 1.10.2022 20:22:19.312
464, 1.63071, 0.11648, 153.318, 0, -0.000976562, 0, -0.0439453, 0.261719, -9.82031, 1.10.2022 20:22:19.320
465, 1.6239, 0.118094, 153.318, 0, -0.000976562, 0, 0.0205078, 0.285156, -9.79688, 1.10.2022 20:22:19.328
466, 1.6239, 0.118094, 153.318, -0.000976562, -0.000976562, 0, -0.0820312, 0.294922, -9.81641, 1.10.2022 20:22:19.336
467, 1.6239, 0.118094, 153.318, -0.000976562, -0.000976562, -0.000976562, -0.0224609, 0.349609, -9.79199, 1.10.2022 20:22:19.344
468, 1.6239, 0.118094, 153.318, -0.000976562, 0, 0, 0.0419922, 0.266602, -9.82129, 1.10.2022 20:22:19.352
469, 1.6239, 0.118094, 153.318, 0, 0, 0, -0.106445, 0.276367, -9.83301, 1.10.2022 20:22:19.360
470, 1.6239, 0.118094, 153.318, 0.000976562, 0, 0, 0.0302734, 0.276367, -9.82129, 1.10.2022 20:22:19.368
471, 1.6171, 0.119708, 153.318, -0.000976562, -0.000976562, 0, -0.0205078, 0.268555, -9.80859, 1.10.2022 20:22:19.376
472, 1.6171, 0.119708, 153.318, -0.000976562, -0.000976562, 0, -0.0654297, 0.308594, -9.79688, 1.10.2022 20:22:19.384
473, 1.61871, 0.126512, 153.318, 0, 0, 0, 0.0537109, 0.261719, -9.8125, 1.10.2022 20:22:19.392
474, 1.61871, 0.126512, 153.318, -0.000976562, -0.000976562, 0, -0.0273438, 0.271484, -9.81055, 1.10.2022 20:22:19.400
475, 1.61871, 0.126512, 153.318, 0, 0, 0, -0.0400391, 0.286133, -9.74121, 1.10.2022 20:22:19.408
476, 1.61871, 0.126512, 153.318, 0, -0.000976562, 0, 0.015625, 0.230469, -9.8125, 1.10.2022 20:22:19.416
477, 1.61871, 0.126512, 153.318, -0.000976562, 0, -0.000976562, -0.0224609, 0.291992, -9.78418, 1.10.2022 20:22:19.424
478, 1.61871, 0.126512, 153.318, -0.000976562, -0.000976562, 0, -0.0537109, 0.288086, -9.80957, 1.10.2022 20:22:19.432
479, 1.61871, 0.126512, 153.318, -0.000976562, -0.000976562, 0, -0.00292969, 0.259766, -9.76172, 1.10.2022 20:22:19.440
480, 1.61871, 0.126512, 153.318, 0, -0.000976562, 0, -0.0908203, 0.308594, -9.78711, 1.10.2022 20:22:19.448
481, 1.61871, 0.126512, 153.318, 0, -0.000976562, -0.000976562, -0.0244141, 0.296875, -9.80078, 1.10.2022 20:22:19.456
482, 1.61871, 0.126512, 153.318, 0, -0.000976562, -0.000976562, -0.0205078, 0.274414, -9.84863, 1.10.2022 20:22:19.464
483, 1.61871, 0.126512, 153.318, -0.000976562, -0.000976562, 0, -0.0537109, 0.27832, -9.81738, 1.10.2022 20:22:19.472
484, 1.61871, 0.126512, 153.318, 0, -0.000976562, 0, 0.0371094, 0.294922, -9.79883, 1.10.2022 20:22:19.480
485, 1.61871, 0.126512, 153.318, -0.000976562, -0.000976562, 0, -0.0078125, 0.245117, -9.80957, 1.10.2022 20:22:19.488
486, 1.61871, 0.126512, 153.318, 0, -0.00195312, 0, -0.0283203, 0.286133, -9.74414, 1.10.2022 20:22:19.496
487, 1.61871, 0.126512, 153.318, 0, -0.000976562, -0.000976562, 0.0351562, 0.234375, -9.79395, 1.10.2022 20:22:19.504
488, 1.61871, 0.126512, 153.318, -0.000976562, -0.000976562, -0.000976562, -0.0410156, 0.270508, -9.78418, 1.10.2022 20:22:19.512
489, 1.61871, 0.126512, 153.318, -0.000976562, 0, 0.000976562, -0.0488281, 0.301758, -9.79492, 1.10.2022 20:22:19.520
490, 1.61871, 0.126512, 153.318, 0, -0.000976562, 0, 0.0322266, 0.270508, -9.80469, 1.10.2022 20:22:19.528
491, 1.61871, 0.126512, 153.318, 0, -0.000976562, -0.000976562, -0.0654297, 0.294922, -9.79785, 1.10.2022 20:22:19.536
492, 1.61871, 0.126512, 153.318, 0, 0, 0, -0.0390625, 0.267578, -9.78223, 1.10.2022 20:22:19.544
493, 1.61871, 0.126512, 153.318, 0, 0.00195312, 0, 0, 0.279297, -9.76855, 1.10.2022 20:22:19.552
494, 1.61871, 0.126512, 153.318, 0, 0, -0.000976562, -0.0703125, 0.261719, -9.82422, 1.10.2022 20:22:19.560
495, 1.61871, 0.126512, 153.318, -0.000976562, 0, 0, -0.0107422, 0.261719, -9.81152, 1.10.2022 20:22:19.568
496, 1.61871, 0.126512, 153.318, -0.000976562, -0.000976562, 0, -0.0195312, 0.263672, -9.79688, 1.10.2022 20:22:19.576
497, 1.61871, 0.126512, 153.318, -0.000976562, -0.000976562, 0, -0.0800781, 0.292969, -9.80957, 1.10.2022 20:22:19.584
498, 1.61865, 0.126418, 153.31, -0.000976562, -0.000976562, 0, 0.0400391, 0.224609, -9.78223, 1.10.2022 20:22:19.592
499, 1.61865, 0.126418, 153.31, 0, -0.000976562, 0, -0.0205078, 0.283203, -9.82031, 1.10.2022 20:22:19.600
500, 1.61865, 0.126418, 153.31, 0, -0.000976562, -0.000976562, -0.0556641, 0.290039, -9.80469, 1.10.2022 20:22:19.608
501, 1.61871, 0.126512, 153.318, 0, -0.000976562, -0.000976562, 0.0546875, 0.250977, -9.76758, 1.10.2022 20:22:19.616
502, 1.61871, 0.126512, 153.318, -0.000976562, -0.000976562, 0, -0.0292969, 0.296875, -9.80762, 1.10.2022 20:22:19.624
503, 1.61871, 0.126512, 153.318, -0.000976562, -0.000976562, -0.000976562, -0.00292969, 0.268555, -9.79492, 1.10.2022 20:22:19.632
504, 1.61871, 0.126512, 153.318, -0.00195312, 0, 0, 0.0175781, 0.263672, -9.81836, 1.10.2022 20:22:19.640
505, 1.61871, 0.126512, 153.318, -0.00195312, -0.000976562, -0.000976562, -0.0634766, 0.287109, -9.84961, 1.10.2022 20:22:19.648
506, 1.6171, 0.119708, 153.318, -0.000976562, -0.000976562, -0.000976562, 0.015625, 0.270508, -9.79004, 1.10.2022 20:22:19.656
507, 1.6171, 0.119708, 153.318, 0, -0.000976562, 0, -0.00292969, 0.267578, -9.79004, 1.10.2022 20:22:19.664
508, 1.6171, 0.119708, 153.318, -0.000976562, -0.000976562, -0.000976562, -0.0839844, 0.285156, -9.80469, 1.10.2022 20:22:19.672
509, 1.6171, 0.119708, 153.318, -0.000976562, -0.000976562, 0, 0.0322266, 0.244141, -9.80078, 1.10.2022 20:22:19.680
510, 1.6171, 0.119708, 153.318, 0, -0.000976562, 0, -0.0126953, 0.296875, -9.80078, 1.10.2022 20:22:19.688
511, 1.6171, 0.119708, 153.318, 0, -0.000976562, 0, -0.0195312, 0.303711, -9.77637, 1.10.2022 20:22:19.696
512, 1.6171, 0.119708, 153.318, -0.000976562, -0.000976562, -0.000976562, 0.0351562, 0.249023, -9.80957, 1.10.2022 20:22:19.704
513, 1.6171, 0.119708, 153.318, -0.000976562, -0.000976562, 0, -0.0419922, 0.273438, -9.82422, 1.10.2022 20:22:19.712
514, 1.61549, 0.112903, 153.318, -0.000976562, -0.00195312, 0, -0.0546875, 0.269531, -9.76758, 1.10.2022 20:22:19.720
515, 1.61549, 0.112903, 153.318, -0.000976562, -0.00195312, 0.000976562, 0.0185547, 0.265625, -9.79785, 1.10.2022 20:22:19.728
516, 1.61549, 0.112903, 153.318, 0, -0.000976562, 0, -0.0566406, 0.27832, -9.74121, 1.10.2022 20:22:19.736
517, 1.61549, 0.112903, 153.318, -0.000976562, -0.000976562, -0.000976562, -0.015625, 0.269531, -9.84668, 1.10.2022 20:22:19.744
518, 1.61549, 0.112903, 153.318, -0.000976562, -0.000976562, -0.000976562, 0.015625, 0.314453, -9.81055, 1.10.2022 20:22:19.752
519, 1.61549, 0.112903, 153.318, -0.000976562, -0.000976562, -0.000976562, -0.0576172, 0.301758, -9.80469, 1.10.2022 20:22:19.760
520, 1.61549, 0.112903, 153.318, 0, -0.000976562, 0, -0.00976562, 0.268555, -9.79199, 1.10.2022 20:22:19.768
521, 1.61549, 0.112903, 153.318, -0.000976562, -0.000976562, 0.000976562, -0.0253906, 0.266602, -9.81543, 1.10.2022 20:22:19.776
522, 1.61549, 0.112903, 153.318, -0.000976562, 0, 0.000976562, -0.0673828, 0.292969, -9.80664, 1.10.2022 20:22:19.784
523, 1.61549, 0.112903, 153.318, 0, -0.000976562, 0, 0.0322266, 0.291992, -9.80176, 1.10.2022 20:22:19.792
524, 1.61381, 0.106004, 153.311, -0.000976562, -0.000976562, 0, -0.0283203, 0.28418, -9.85059, 1.10.2022 20:22:19.800
525, 1.61381, 0.106004, 153.311, 0, -0.000976562, 0, -0.0507812, 0.283203, -9.79785, 1.10.2022 20:22:19.808
526, 1.61381, 0.106004, 153.311, -0.00195312, -0.00195312, 0.000976562, 0.0566406, 0.250977, -9.79102, 1.10.2022 20:22:19.816
527, 1.61543, 0.112809, 153.311, -0.00195312, -0.000976562, 0, -0.0361328, 0.296875, -9.79102, 1.10.2022 20:22:19.824
528, 1.62061, 0.10439, 153.311, -0.000976562, -0.000976562, 0, -0.00195312, 0.270508, -9.87012, 1.10.2022 20:22:19.832
529, 1.62061, 0.10439, 153.311, 0, 0, 0, 0.00195312, 0.265625, -9.77344, 1.10.2022 20:22:19.840
530, 1.62061, 0.10439, 153.311, 0, 0, 0, -0.0791016, 0.320312, -9.75684, 1.10.2022 20:22:19.848
531, 1.62061, 0.10439, 153.311, -0.000976562, -0.000976562, 0, -0.0175781, 0.299805, -9.82617, 1.10.2022 20:22:19.856
532, 1.62061, 0.10439, 153.311, -0.000976562, -0.000976562, 0, -0.00390625, 0.259766, -9.8418, 1.10.2022 20:22:19.864
533, 1.6209, 0.104361, 153.312, 0, -0.000976562, 0, -0.0546875, 0.282227, -9.77246, 1.10.2022 20:22:19.872
534, 1.6209, 0.104361, 153.312, -0.000976562, 0, -0.000976562, 0.00585938, 0.245117, -9.81152, 1.10.2022 20:22:19.880
535, 1.62061, 0.10439, 153.311, 0, -0.000976562, 0, -0.0273438, 0.249023, -9.79492, 1.10.2022 20:22:19.888
536, 1.62061, 0.10439, 153.311, 0, -0.00195312, -0.000976562, -0.0615234, 0.295898, -9.84277, 1.10.2022 20:22:19.896
537, 1.62061, 0.10439, 153.311, 0, -0.00195312, -0.000976562, 0.0283203, 0.285156, -9.79004, 1.10.2022 20:22:19.904
538, 1.62061, 0.10439, 153.311, -0.000976562, -0.000976562, 0, -0.0556641, 0.301758, -9.78809, 1.10.2022 20:22:19.912
539, 1.62061, 0.10439, 153.311, -0.000976562, -0.00195312, 0.000976562, -0.0244141, 0.270508, -9.79199, 1.10.2022 20:22:19.920
540, 1.62932, 0.109551, 153.312, -0.00195312, -0.00195312, -0.000976562, -0.00292969, 0.232422, -9.79297, 1.10.2022 20:22:19.928
541, 1.62903, 0.109581, 153.31, -0.000976562, -0.000976562, -0.000976562, -0.0585938, 0.277344, -9.84277, 1.10.2022 20:22:19.936
542, 1.62903, 0.109581, 153.31, -0.000976562, 0, 0, -0.00488281, 0.289062, -9.78027, 1.10.2022 20:22:19.944
543, 1.62903, 0.109581, 153.31, 0, -0.000976562, 0, -0.0371094, 0.273438, -9.81543, 1.10.2022 20:22:19.952
544, 1.62903, 0.109581, 153.31, -0.000976562, -0.000976562, 0, -0.0507812, 0.290039, -9.79297, 1.10.2022 20:22:19.960
545, 1.62932, 0.109551, 153.312, -0.000976562, -0.00195312, 0, 0.0107422, 0.276367, -9.82812, 1.10.2022 20:22:19.968
546, 1.62932, 0.109551, 153.312, -0.000976562, -0.00292969, -0.000976562, -0.0117188, 0.253906, -9.88672, 1.10.2022 20:22:19.976
547, 1.62223, 0.111195, 153.311, -0.000976562, -0.00292969, 0, -0.0605469, 0.308594, -9.78516, 1.10.2022 20:22:19.984
548, 1.62413, 0.117969, 153.312, 0, -0.000976562, 0.000976562, 0.0400391, 0.283203, -9.80664, 1.10.2022 20:22:19.992
549, 1.62413, 0.117969, 153.312, -0.000976562, -0.000976562, 0, -0.0673828, 0.303711, -9.78125, 1.10.2022 20:22:20.000
550, 1.62413, 0.117969, 153.312, 0, 0, 0.000976562, -0.0625, 0.255859, -9.78027, 1.10.2022 20:22:20.008
551, 1.62413, 0.117969, 153.312, 0, 0, 0.000976562, 0.0078125, 0.226562, -9.8291, 1.10.2022 20:22:20.016
552, 1.62413, 0.117969, 153.312, 0, 0, -0.000976562, -0.0625, 0.277344, -9.7627, 1.10.2022 20:22:20.024
553, 1.62413, 0.117969, 153.312, 0, 0, -0.00195312, -0.0322266, 0.27832, -9.81055, 1.10.2022 20:22:20.032
554, 1.62413, 0.117969, 153.312, -0.000976562, -0.000976562, -0.00195312, 0.00390625, 0.272461, -9.78516, 1.10.2022 20:22:20.040
555, 1.62413, 0.117969, 153.312, 0, 0, -0.00195312, -0.0361328, 0.313477, -9.79297, 1.10.2022 20:22:20.048
556, 1.62413, 0.117969, 153.312, 0, -0.00195312, 0.000976562, 0.046875, 0.273438, -9.81445, 1.10.2022 20:22:20.056
557, 1.62413, 0.117969, 153.312, 0, -0.000976562, -0.000976562, 0.0078125, 0.245117, -9.83594, 1.10.2022 20:22:20.064
558, 1.62575, 0.124774, 153.312, 0, 0, -0.00195312, -0.0458984, 0.280273, -9.79785, 1.10.2022 20:22:20.072
559, 1.62384, 0.117999, 153.31, 0, 0, -0.00292969, 0.0166016, 0.297852, -9.76367, 1.10.2022 20:22:20.080
560, 1.62384, 0.117999, 153.31, -0.000976562, 0.000976562, -0.00292969, -0.0380859, 0.295898, -9.77441, 1.10.2022 20:22:20.088
561, 1.6239, 0.118094, 153.318, -0.000976562, 0, -0.000976562, -0.0703125, 0.297852, -9.81836, 1.10.2022 20:22:20.096
562, 1.6239, 0.118094, 153.318, -0.000976562, 0, -0.000976562, 0.0449219, 0.226562, -9.77734, 1.10.2022 20:22:20.104
563, 1.6239, 0.118094, 153.318, -0.000976562, 0, -0.000976562, -0.0537109, 0.263672, -9.81543, 1.10.2022 20:22:20.112
564, 1.6239, 0.118094, 153.318, -0.000976562, -0.000976562, -0.00292969, -0.0390625, 0.280273, -9.79395, 1.10.2022 20:22:20.120
565, 1.6239, 0.118094, 153.318, -0.000976562, -0.000976562, -0.00292969, 0.00976562, 0.282227, -9.86328, 1.10.2022 20:22:20.126
566, 1.6239, 0.118094, 153.318, 0, 0, -0.000976562, -0.0585938, 0.302734, -9.82617, 1.10.2022 20:22:20.136
567, 1.6239, 0.118094, 153.318, 0, 0, -0.000976562, 0.00390625, 0.282227, -9.80176, 1.10.2022 20:22:20.142
568, 1.6239, 0.118094, 153.318, -0.000976562, 0.000976562, 0.000976562, 0.00585938, 0.24707, -9.82324, 1.10.2022 20:22:20.150
569, 1.6239, 0.118094, 153.318, -0.00195312, 0, -0.000976562, -0.0537109, 0.266602, -9.83203, 1.10.2022 20:22:20.158
570, 1.6239, 0.118094, 153.318, -0.00195312, 0, -0.000976562, 0.0205078, 0.257812, -9.77832, 1.10.2022 20:22:20.166
571, 1.6239, 0.118094, 153.318, -0.000976562, -0.000976562, -0.00195312, -0.0537109, 0.299805, -9.80273, 1.10.2022 20:22:20.174
572, 1.6239, 0.118094, 153.318, 0, 0, -0.00195312, -0.0644531, 0.303711, -9.77344, 1.10.2022 20:22:20.182
573, 1.6239, 0.118094, 153.318, 0, 0, 0.000976562, 0.00976562, 0.291016, -9.75879, 1.10.2022 20:22:20.190
574, 1.6239, 0.118094, 153.318, -0.000976562, 0, 0.000976562, -0.0673828, 0.272461, -9.7793, 1.10.2022 20:22:20.198
575, 1.6239, 0.118094, 153.318, 0, 0, -0.000976562, -0.00292969, 0.27832, -9.80371, 1.10.2022 20:22:20.206
576, 1.6239, 0.118094, 153.318, 0, 0, -0.00195312, 0.015625, 0.25, -9.81934, 1.10.2022 20:22:20.214
577, 1.6239, 0.118094, 153.318, 0, 0.000976562, -0.00195312, -0.0849609, 0.302734, -9.83496, 1.10.2022 20:22:20.222
578, 1.6239, 0.118094, 153.318, -0.000976562, 0, -0.00195312, -0.0107422, 0.275391, -9.80176, 1.10.2022 20:22:20.230
579, 1.6239, 0.118094, 153.318, -0.000976562, 0.00195312, -0.00195312, 0.00390625, 0.288086, -9.81738, 1.10.2022 20:22:20.238
580, 1.6239, 0.118094, 153.318, -0.000976562, 0, -0.00195312, -0.103516, 0.266602, -9.81641, 1.10.2022 20:22:20.246
581, 1.6239, 0.118094, 153.318, -0.000976562, 0, -0.000976562, 0.0351562, 0.249023, -9.79102, 1.10.2022 20:22:20.254
582, 1.6239, 0.118094, 153.318, 0, -0.000976562, -0.000976562, -0.0322266, 0.216797, -9.84277, 1.10.2022 20:22:20.262
583, 1.6239, 0.118094, 153.318, -0.000976562, -0.000976562, -0.000976562, -0.0839844, 0.293945, -9.7832, 1.10.2022 20:22:20.270
584, 1.6239, 0.118094, 153.318, -0.000976562, 0, -0.000976562, 0.0302734, 0.273438, -9.81641, 1.10.2022 20:22:20.278
585, 1.62552, 0.124899, 153.318, -0.000976562, 0, -0.000976562, -0.0253906, 0.297852, -9.81934, 1.10.2022 20:22:20.286
586, 1.62552, 0.124899, 153.318, -0.000976562, 0, 0, -0.0527344, 0.290039, -9.7959, 1.10.2022 20:22:20.294
587, 1.62552, 0.124899, 153.318, -0.000976562, 0.000976562, 0, 0.0361328, 0.246094, -9.85938, 1.10.2022 20:22:20.302
588, 1.62552, 0.124899, 153.318, -0.000976562, 0.00195312, 0, -0.0546875, 0.288086, -9.74121, 1.10.2022 20:22:20.310
589, 1.62552, 0.124899, 153.318, -0.000976562, 0.000976562, -0.000976562, -0.0185547, 0.285156, -9.87207, 1.10.2022 20:22:20.318
590, 1.6239, 0.118094, 153.318, 0, 0.000976562, -0.000976562, 0.0117188, 0.270508, -9.77832, 1.10.2022 20:22:20.326
591, 1.61871, 0.126512, 153.318, 0, -0.000976562, -0.000976562, -0.103516, 0.34082, -9.81738, 1.10.2022 20:22:20.334
592, 1.61871, 0.126512, 153.318, 0, -0.000976562, -0.000976562, 0.00683594, 0.272461, -9.79004, 1.10.2022 20:22:20.342
593, 1.61871, 0.126512, 153.318, 0, -0.000976562, -0.000976562, -0.0107422, 0.288086, -9.81738, 1.10.2022 20:22:20.350
594, 1.61871, 0.126512, 153.318, 0, 0.000976562, -0.000976562, -0.0371094, 0.261719, -9.83008, 1.10.2022 20:22:20.358
595, 1.61871, 0.126512, 153.318, 0, 0, -0.000976562, 0.0175781, 0.258789, -9.81445, 1.10.2022 20:22:20.366
596, 1.61871, 0.126512, 153.318, -0.000976562, 0, -0.000976562, -0.0371094, 0.273438, -9.8125, 1.10.2022 20:22:20.374
597, 1.61871, 0.126512, 153.318, 0, 0.000976562, -0.000976562, -0.0771484, 0.297852, -9.82324, 1.10.2022 20:22:20.382
598, 1.61871, 0.126512, 153.318, 0, 0.000976562, -0.000976562, 0.0478516, 0.277344, -9.76953, 1.10.2022 20:22:20.390
599, 1.61871, 0.126512, 153.318, -0.000976562, 0, 0, -0.0849609, 0.267578, -9.84961, 1.10.2022 20:22:20.398
600, 1.61871, 0.126512, 153.318, -0.000976562, 0, -0.000976562, -0.000976562, 0.280273, -9.79883, 1.10.2022 20:22:20.406
601, 1.61871, 0.126512, 153.318, -0.000976562, 0, 0, 0.0166016, 0.241211, -9.77246, 1.10.2022 20:22:20.414
602, 1.61871, 0.126512, 153.318, 0, 0, 0, -0.0673828, 0.30957, -9.80176, 1.10.2022 20:22:20.422
603, 1.61871, 0.126512, 153.318, -0.000976562, -0.000976562, 0, -0.00292969, 0.303711, -9.78223, 1.10.2022 20:22:20.430
604, 1.62552, 0.124899, 153.318, 0, -0.000976562, -0.000976562, -0.000976562, 0.265625, -9.79688, 1.10.2022 20:22:20.438
605, 1.62552, 0.124899, 153.318, -0.000976562, 0, 0, -0.0888672, 0.291016, -9.76465, 1.10.2022 20:22:20.446
606, 1.62552, 0.124899, 153.318, -0.000976562, 0.000976562, 0, 0.00683594, 0.298828, -9.77051, 1.10.2022 20:22:20.454
607, 1.62552, 0.124899, 153.318, 0, 0, 0, -0.0078125, 0.272461, -9.78711, 1.10.2022 20:22:20.462
608, 1.62552, 0.124899, 153.318, -0.000976562, 0, 0, -0.0654297, 0.321289, -9.80176, 1.10.2022 20:22:20.470
609, 1.62552, 0.124899, 153.318, -0.000976562, 0, 0, 0.0498047, 0.264648, -9.7627, 1.10.2022 20:22:20.478
610, 1.62552, 0.124899, 153.318, -0.000976562, 0, 0, -0.0537109, 0.269531, -9.82227, 1.10.2022 20:22:20.486
611, 1.62552, 0.124899, 153.318, -0.000976562, 0, 0, -0.0341797, 0.274414, -9.77539, 1.10.2022 20:22:20.494
612, 1.62552, 0.124899, 153.318, 0, -0.00195312, 0, -0.0126953, 0.261719, -9.82031, 1.10.2022 20:22:20.502
613, 1.62552, 0.124899, 153.318, 0, 0, 0, -0.0673828, 0.268555, -9.7959, 1.10.2022 20:22:20.510
614, 1.62552, 0.124899, 153.318, -0.000976562, 0, 0, -0.000976562, 0.308594, -9.7959, 1.10.2022 20:22:20.518
615, 1.63393, 0.13009, 153.318, -0.000976562, 0, 0, -0.00585938, 0.301758, -9.7959, 1.10.2022 20:22:20.526
616, 1.63393, 0.13009, 153.318, 0, -0.000976562, -0.000976562, -0.0888672, 0.310547, -9.76855, 1.10.2022 20:22:20.534
617, 1.63393, 0.13009, 153.318, -0.000976562, 0.000976562, -0.000976562, -0.00585938, 0.285156, -9.81738, 1.10.2022 20:22:20.542
618, 1.63393, 0.13009, 153.318, -0.000976562, 0.000976562, -0.000976562, -0.015625, 0.258789, -9.7998, 1.10.2022 20:22:20.550
619, 1.63393, 0.13009, 153.318, -0.000976562, -0.00195312, -0.000976562, -0.0927734, 0.289062, -9.75, 1.10.2022 20:22:20.558
620, 1.63393, 0.13009, 153.318, -0.000976562, -0.00195312, -0.000976562, 0.0253906, 0.249023, -9.80078, 1.10.2022 20:22:20.566
621, 1.63393, 0.13009, 153.318, 0, -0.000976562, 0, -0.00390625, 0.264648, -9.84863, 1.10.2022 20:22:20.574
622, 1.63393, 0.13009, 153.318, 0, -0.000976562, 0, -0.00488281, 0.303711, -9.77441, 1.10.2022 20:22:20.582
623, 1.63393, 0.13009, 153.318, 0, 0, -0.000976562, 0.0410156, 0.267578, -9.87109, 1.10.2022 20:22:20.590
624, 1.63393, 0.13009, 153.318, -0.000976562, -0.000976562, 0, -0.0556641, 0.275391, -9.79785, 1.10.2022 20:22:20.598
625, 1.64073, 0.128476, 153.318, 0, -0.000976562, 0, -0.0585938, 0.270508, -9.85742, 1.10.2022 20:22:20.606
626, 1.64073, 0.128476, 153.318, -0.000976562, -0.000976562, -0.000976562, -0.00292969, 0.255859, -9.79492, 1.10.2022 20:22:20.614
627, 1.64073, 0.128476, 153.318, 0, -0.000976562, 0, -0.0585938, 0.297852, -9.80664, 1.10.2022 20:22:20.622
628, 1.64073, 0.128476, 153.318, 0, -0.00195312, 0, -0.03125, 0.274414, -9.74414, 1.10.2022 20:22:20.630
629, 1.63393, 0.13009, 153.318, 0, -0.000976562, -0.000976562, -0.00292969, 0.269531, -9.75879, 1.10.2022 20:22:20.638
630, 1.63393, 0.13009, 153.318, 0.000976562, -0.000976562, -0.000976562, -0.0683594, 0.333984, -9.83203, 1.10.2022 20:22:20.646
631, 1.63393, 0.13009, 153.318, 0, -0.000976562, 0, 0.0673828, 0.291016, -9.83008, 1.10.2022 20:22:20.654
632, 1.63393, 0.13009, 153.318, 0, -0.00195312, 0, 0.0107422, 0.292969, -9.83887, 1.10.2022 20:22:20.662
633, 1.63393, 0.13009, 153.318, -0.000976562, -0.000976562, -0.000976562, -0.0341797, 0.271484, -9.80859, 1.10.2022 20:22:20.670
634, 1.64073, 0.128476, 153.318, -0.000976562, 0, 0, 0.0585938, 0.275391, -9.80469, 1.10.2022 20:22:20.678
635, 1.64073, 0.128476, 153.318, -0.000976562, 0.000976562, -0.000976562, -0.0507812, 0.24707, -9.80176, 1.10.2022 20:22:20.686
636, 1.64073, 0.128476, 153.318, 0.000976562, 0, 0, -0.0263672, 0.293945, -9.75781, 1.10.2022 20:22:20.694
637, 1.64073, 0.128476, 153.318, 0, -0.000976562, 0, -0.000976562, 0.256836, -9.82324, 1.10.2022 20:22:20.702
638, 1.64073, 0.128476, 153.318, 0, -0.00195312, -0.000976562, -0.0820312, 0.314453, -9.80176, 1.10.2022 20:22:20.710
639, 1.63912, 0.121671, 153.318, 0, -0.000976562, -0.000976562, -0.0322266, 0.273438, -9.80566, 1.10.2022 20:22:20.718
640, 1.63912, 0.121671, 153.318, 0, -0.000976562, 0, -0.00390625, 0.290039, -9.81738, 1.10.2022 20:22:20.726
641, 1.63912, 0.121671, 153.318, 0, -0.000976562, 0, -0.0654297, 0.290039, -9.80273, 1.10.2022 20:22:20.734
642, 1.63912, 0.121671, 153.318, -0.000976562, -0.000976562, 0, 0.0185547, 0.244141, -9.78809, 1.10.2022 20:22:20.742
643, 1.63912, 0.121671, 153.318, -0.000976562, -0.000976562, -0.000976562, 0.00976562, 0.274414, -9.76367, 1.10.2022 20:22:20.750
644, 1.63912, 0.121671, 153.318, -0.000976562, -0.000976562, 0, -0.0800781, 0.286133, -9.82129, 1.10.2022 20:22:20.758
645, 1.63912, 0.121671, 153.318, -0.000976562, 0, 0, 0.0302734, 0.280273, -9.7998, 1.10.2022 20:22:20.766
646, 1.63912, 0.121671, 153.318, -0.000976562, -0.000976562, 0, -0.0458984, 0.282227, -9.78418, 1.10.2022 20:22:20.774
647, 1.63912, 0.121671, 153.318, -0.000976562, -0.000976562, -0.000976562, -0.0517578, 0.276367, -9.72949, 1.10.2022 20:22:20.782
648, 1.63912, 0.121671, 153.318, 0, -0.00195312, 0, 0.00878906, 0.262695, -9.78125, 1.10.2022 20:22:20.790
649, 1.63912, 0.121671, 153.318, 0.000976562, -0.000976562, -0.000976562, -0.0439453, 0.251953, -9.80859, 1.10.2022 20:22:20.798
650, 1.63912, 0.121671, 153.318, -0.000976562, 0.000976562, 0, -0.00195312, 0.286133, -9.84863, 1.10.2022 20:22:20.806
651, 1.63912, 0.121671, 153.318, -0.000976562, -0.000976562, 0, 0.0371094, 0.283203, -9.81641, 1.10.2022 20:22:20.814
652, 1.63912, 0.121671, 153.318, -0.000976562, -0.000976562, 0, -0.0556641, 0.291992, -9.79785, 1.10.2022 20:22:20.822
653, 1.63912, 0.121671, 153.318, -0.000976562, -0.00195312, 0, 0.0283203, 0.293945, -9.79199, 1.10.2022 20:22:20.830
654, 1.63751, 0.114867, 153.318, -0.000976562, -0.000976562, -0.000976562, -0.000976562, 0.280273, -9.80566, 1.10.2022 20:22:20.838
655, 1.63751, 0.114867, 153.318, 0, -0.000976562, 0, -0.0771484, 0.288086, -9.81836, 1.10.2022 20:22:20.846
656, 1.63751, 0.114867, 153.318, 0, -0.000976562, -0.000976562, 0.0205078, 0.230469, -9.83105, 1.10.2022 20:22:20.854
657, 1.63751, 0.114867, 153.318, 0, -0.000976562, 0, -0.0302734, 0.266602, -9.82031, 1.10.2022 20:22:20.862
658, 1.63751, 0.114867, 153.318, 0, -0.000976562, -0.000976562, -0.0195312, 0.270508, -9.78906, 1.10.2022 20:22:20.870
659, 1.63751, 0.114867, 153.318, 0, -0.000976562, 0, 0.0224609, 0.276367, -9.82812, 1.10.2022 20:22:20.878
660, 1.63751, 0.114867, 153.318, 0.000976562, 0.000976562, 0, -0.0458984, 0.27832, -9.80078, 1.10.2022 20:22:20.886
661, 1.63589, 0.108062, 153.318, 0, -0.000976562, 0.000976562, -0.046875, 0.288086, -9.8291, 1.10.2022 20:22:20.894
662, 1.63589, 0.108062, 153.318, 0, 0.000976562, -0.000976562, 0.0439453, 0.259766, -9.84766, 1.10.2022 20:22:20.902
663, 1.63589, 0.108062, 153.318, -0.000976562, -0.000976562, 0, -0.0654297, 0.291016, -9.83105, 1.10.2022 20:22:20.910
664, 1.63589, 0.108062, 153.318, -0.000976562, 0.000976562, -0.000976562, -0.0166016, 0.277344, -9.87012, 1.10.2022 20:22:20.918
665, 1.63589, 0.108062, 153.318, -0.00195312, 0.000976562, 0.000976562, -0.00292969, 0.275391, -9.79688, 1.10.2022 20:22:20.926
666, 1.63589, 0.108062, 153.318, -0.000976562, -0.000976562, 0, -0.0966797, 0.273438, -9.81152, 1.10.2022 20:22:20.934
667, 1.63589, 0.108062, 153.318, 0, -0.000976562, 0, -0.000976562, 0.260742, -9.78516, 1.10.2022 20:22:20.942
668, 1.62909, 0.109676, 153.318, -0.000976562, -0.000976562, -0.000976562, -0.00585938, 0.264648, -9.82324, 1.10.2022 20:22:20.950
669, 1.62909, 0.109676, 153.318, -0.00195312, -0.00195312, -0.000976562, -0.0673828, 0.267578, -9.7793, 1.10.2022 20:22:20.958
670, 1.62909, 0.109676, 153.318, -0.000976562, -0.000976562, 0, 0.0449219, 0.270508, -9.79102, 1.10.2022 20:22:20.966
671, 1.62909, 0.109676, 153.318, -0.000976562, -0.000976562, 0, -0.0537109, 0.268555, -9.81738, 1.10.2022 20:22:20.974
672, 1.62909, 0.109676, 153.318, 0, -0.000976562, 0, -0.0390625, 0.297852, -9.82129, 1.10.2022 20:22:20.982
673, 1.62909, 0.109676, 153.318, -0.000976562, -0.00195312, -0.000976562, 0.0449219, 0.272461, -9.78809, 1.10.2022 20:22:20.990
674, 1.62909, 0.109676, 153.318, -0.000976562, -0.000976562, -0.000976562, -0.0742188, 0.313477, -9.78516, 1.10.2022 20:22:20.998
675, 1.62909, 0.109676, 153.318, -0.000976562, -0.000976562, 0, -0.0078125, 0.286133, -9.77051, 1.10.2022 20:22:21.006
676, 1.62909, 0.109676, 153.318, -0.00195312, -0.000976562, -0.000976562, 0.0185547, 0.274414, -9.75977, 1.10.2022 20:22:21.012
677, 1.62909, 0.109676, 153.318, -0.000976562, -0.000976562, -0.000976562, -0.0693359, 0.287109, -9.79102, 1.10.2022 20:22:21.022
678, 1.62909, 0.109676, 153.318, 0, -0.000976562, 0, 0.0175781, 0.271484, -9.81836, 1.10.2022 20:22:21.030
679, 1.62909, 0.109676, 153.318, -0.000976562, -0.000976562, 0, 0.0078125, 0.255859, -9.85156, 1.10.2022 20:22:21.038
680, 1.62909, 0.109676, 153.318, -0.000976562, 0, 0, -0.0605469, 0.275391, -9.79785, 1.10.2022 20:22:21.046
681, 1.62909, 0.109676, 153.318, 0.000976562, -0.000976562, 0, 0.0439453, 0.259766, -9.84473, 1.10.2022 20:22:21.054
682, 1.62909, 0.109676, 153.318, 0, -0.000976562, 0, -0.0341797, 0.313477, -9.77832, 1.10.2022 20:22:21.062
683, 1.62909, 0.109676, 153.318, 0, -0.000976562, 0, -0.0478516, 0.306641, -9.79297, 1.10.2022 20:22:21.070
684, 1.62748, 0.102871, 153.318, 0, -0.000976562, -0.000976562, 0.0507812, 0.271484, -9.82324, 1.10.2022 20:22:21.078
685, 1.62748, 0.102871, 153.318, 0, -0.000976562, 0, -0.0820312, 0.261719, -9.80566, 1.10.2022 20:22:21.086
686, 1.62748, 0.102871, 153.318, 0, -0.000976562, 0, -0.0244141, 0.279297, -9.77051, 1.10.2022 20:22:21.094
687, 1.62748, 0.102871, 153.318, 0, -0.00195312, -0.000976562, 0.0107422, 0.304688, -9.82422, 1.10.2022 20:22:21.100
688, 1.62748, 0.102871, 153.318, -0.000976562, -0.000976562, 0.000976562, -0.0566406, 0.300781, -9.84473, 1.10.2022 20:22:21.108
689, 1.62748, 0.102871, 153.318, -0.000976562, -0.00195312, 0.000976562, -0.0078125, 0.27832, -9.80176, 1.10.2022 20:22:21.116
690, 1.62742, 0.102776, 153.311, -0.000976562, -0.000976562, 0.000976562, 0.00390625, 0.244141, -9.78809, 1.10.2022 20:22:21.124
691, 1.62742, 0.102776, 153.311, 0, 0, 0, -0.0625, 0.30957, -9.80176, 1.10.2022 20:22:21.132
692, 1.62742, 0.102776, 153.311, 0, 0, 0, 0.00195312, 0.265625, -9.77344, 1.10.2022 20:22:21.140
693, 1.62742, 0.102776, 153.311, -0.000976562, 0, 0, 0.00390625, 0.265625, -9.7998, 1.10.2022 20:22:21.148
694, 1.62742, 0.102776, 153.311, -0.000976562, -0.000976562, -0.000976562, -0.0742188, 0.272461, -9.77246, 1.10.2022 20:22:21.156
695, 1.62742, 0.102776, 153.311, -0.000976562, -0.00195312, -0.000976562, 0.0458984, 0.254883, -9.83398, 1.10.2022 20:22:21.164
696, 1.62742, 0.102776, 153.311, -0.00195312, -0.00195312, -0.000976562, -0.0527344, 0.250977, -9.78906, 1.10.2022 20:22:21.172
697, 1.62748, 0.102871, 153.318, -0.000976562, -0.000976562, -0.000976562, -0.0234375, 0.28418, -9.86426, 1.10.2022 20:22:21.180
698, 1.62748, 0.102871, 153.318, 0, -0.000976562, -0.000976562, 0.0634766, 0.253906, -9.8125, 1.10.2022 20:22:21.188
699, 1.62748, 0.102871, 153.318, 0, -0.000976562, 0, -0.0205078, 0.302734, -9.84277, 1.10.2022 20:22:21.196
700, 1.62748, 0.102871, 153.318, 0, -0.000976562, -0.000976562, -0.0146484, 0.317383, -9.7627, 1.10.2022 20:22:21.204
701, 1.62748, 0.102871, 153.318, -0.000976562, 0.000976562, -0.000976562, 0.00195312, 0.287109, -9.80078, 1.10.2022 20:22:21.212
702, 1.62748, 0.102871, 153.318, 0, 0, 0, -0.0820312, 0.303711, -9.79199, 1.10.2022 20:22:21.220
703, 1.62748, 0.102871, 153.318, 0, -0.000976562, 0.000976562, -0.0341797, 0.280273, -9.81055, 1.10.2022 20:22:21.228
704, 1.62748, 0.102871, 153.318, 0, -0.000976562, 0, 0.00390625, 0.24707, -9.81445, 1.10.2022 20:22:21.236
705, 1.62748, 0.102871, 153.318, 0, 0.000976562, -0.000976562, -0.0820312, 0.319336, -9.80566, 1.10.2022 20:22:21.244
706, 1.62748, 0.102871, 153.318, 0, 0.000976562, -0.000976562, 0.0537109, 0.268555, -9.80273, 1.10.2022 20:22:21.252
707, 1.62748, 0.102871, 153.318, 0, -0.000976562, 0, -0.0146484, 0.293945, -9.79102, 1.10.2022 20:22:21.260
708, 1.62587, 0.0960667, 153.318, 0, 0, 0, -0.0390625, 0.298828, -9.78418, 1.10.2022 20:22:21.268
709, 1.63267, 0.094453, 153.318, -0.000976562, 0, 0, 0.0205078, 0.266602, -9.81836, 1.10.2022 20:22:21.276
710, 1.63267, 0.094453, 153.318, 0, -0.000976562, 0, -0.0273438, 0.27832, -9.79883, 1.10.2022 20:22:21.284
711, 1.63267, 0.094453, 153.318, 0, -0.000976562, -0.000976562, -0.046875, 0.287109, -9.87109, 1.10.2022 20:22:21.292
712, 1.63267, 0.094453, 153.318, -0.000976562, -0.000976562, -0.000976562, -0.0166016, 0.313477, -9.77441, 1.10.2022 20:22:21.300
713, 1.63267, 0.094453, 153.318, 0, -0.000976562, 0, -0.101562, 0.30957, -9.82031, 1.10.2022 20:22:21.308
714, 1.63428, 0.101258, 153.318, 0, -0.00195312, 0.000976562, -0.0205078, 0.290039, -9.81738, 1.10.2022 20:22:21.316
715, 1.63428, 0.101258, 153.318, 0.000976562, 0, 0.000976562, 0.0410156, 0.239258, -9.8623, 1.10.2022 20:22:21.324
716, 1.63422, 0.101162, 153.311, 0.000976562, -0.000976562, 0, -0.0830078, 0.282227, -9.85449, 1.10.2022 20:22:21.332
717, 1.63422, 0.101162, 153.311, 0, 0, -0.000976562, 0.0117188, 0.28418, -9.77832, 1.10.2022 20:22:21.340
718, 1.63422, 0.101162, 153.311, -0.000976562, -0.00195312, 0, -0.0605469, 0.292969, -9.81641, 1.10.2022 20:22:21.348
719, 1.64108, 0.099644, 153.318, 0, -0.000976562, -0.000976562, -0.0644531, 0.305664, -9.77637, 1.10.2022 20:22:21.356
720, 1.64108, 0.099644, 153.318, 0, -0.000976562, -0.000976562, 0.0195312, 0.285156, -9.72168, 1.10.2022 20:22:21.364
721, 1.6427, 0.106449, 153.318, 0, -0.000976562, -0.000976562, -0.0322266, 0.280273, -9.7959, 1.10.2022 20:22:21.372
722, 1.6427, 0.106449, 153.318, 0.000976562, -0.000976562, 0, -0.0634766, 0.293945, -9.84277, 1.10.2022 20:22:21.380
723, 1.6427, 0.106449, 153.318, 0, -0.000976562, -0.000976562, 0.0478516, 0.248047, -9.76562, 1.10.2022 20:22:21.388
724, 1.6427, 0.106449, 153.318, -0.000976562, -0.000976562, 0, -0.0556641, 0.296875, -9.78125, 1.10.2022 20:22:21.396
725, 1.6427, 0.106449, 153.318, 0, -0.00195312, 0, -0.00195312, 0.286133, -9.75586, 1.10.2022 20:22:21.404
726, 1.64431, 0.113253, 153.318, 0, -0.000976562, 0.000976562, 0.00292969, 0.267578, -9.84863, 1.10.2022 20:22:21.412
727, 1.64431, 0.113253, 153.318, -0.000976562, -0.000976562, 0, -0.0800781, 0.253906, -9.80273, 1.10.2022 20:22:21.420
728, 1.64431, 0.113253, 153.318, -0.000976562, -0.000976562, 0, -0.0117188, 0.288086, -9.73926, 1.10.2022 20:22:21.428
729, 1.64431, 0.113253, 153.318, 0, -0.000976562, 0, -0.0175781, 0.275391, -9.78516, 1.10.2022 20:22:21.436
730, 1.64425, 0.113157, 153.31, 0.000976562, 0, 0, -0.0673828, 0.304688, -9.80957, 1.10.2022 20:22:21.444
731, 1.64425, 0.113157, 153.31, 0, 0, 0, 0.0351562, 0.263672, -9.79492, 1.10.2022 20:22:21.452
732, 1.64425, 0.113157, 153.31, 0, -0.000976562, 0, -0.0390625, 0.297852, -9.83105, 1.10.2022 20:22:21.460
733, 1.64425, 0.113157, 153.31, 0, 0, -0.000976562, -0.0078125, 0.305664, -9.77734, 1.10.2022 20:22:21.468
734, 1.64431, 0.113253, 153.318, 0, 0, -0.000976562, 0.0175781, 0.279297, -9.84863, 1.10.2022 20:22:21.476
735, 1.64431, 0.113253, 153.318, -0.000976562, 0, 0.000976562, -0.0507812, 0.298828, -9.76953, 1.10.2022 20:22:21.484
736, 1.65296, 0.118317, 153.312, -0.000976562, -0.000976562, 0, -0.0361328, 0.285156, -9.79785, 1.10.2022 20:22:21.492
737, 1.65296, 0.118317, 153.312, -0.000976562, -0.000976562, 0, -0.000976562, 0.275391, -9.78516, 1.10.2022 20:22:21.500
738, 1.65296, 0.118317, 153.312, -0.000976562, -0.00195312, 0, -0.0742188, 0.287109, -9.79785, 1.10.2022 20:22:21.508
739, 1.65296, 0.118317, 153.312, -0.000976562, -0.000976562, -0.000976562, -0.0195312, 0.292969, -9.75781, 1.10.2022 20:22:21.516
740, 1.65296, 0.118317, 153.312, 0, -0.000976562, 0, -0.00585938, 0.238281, -9.83984, 1.10.2022 20:22:21.524
741, 1.65296, 0.118317, 153.312, 0, -0.000976562, -0.000976562, -0.0625, 0.293945, -9.7666, 1.10.2022 20:22:21.532
742, 1.65273, 0.118444, 153.318, 0, -0.000976562, -0.000976562, 0.0234375, 0.264648, -9.76465, 1.10.2022 20:22:21.540
743, 1.65273, 0.118444, 153.318, 0.000976562, -0.000976562, -0.000976562, -0.015625, 0.280273, -9.80566, 1.10.2022 20:22:21.548
744, 1.65273, 0.118444, 153.318, 0, -0.000976562, 0, -0.0458984, 0.303711, -9.77441, 1.10.2022 20:22:21.556
745, 1.65273, 0.118444, 153.318, 0, -0.000976562, 0.000976562, 0.00585938, 0.268555, -9.81348, 1.10.2022 20:22:21.564
746, 1.65296, 0.118317, 153.312, 0, 0, 0.000976562, -0.0195312, 0.272461, -9.79199, 1.10.2022 20:22:21.572
747, 1.65296, 0.118317, 153.312, 0, -0.000976562, 0, -0.0273438, 0.28125, -9.8291, 1.10.2022 20:22:21.580
748, 1.65457, 0.125121, 153.311, -0.000976562, -0.00195312, 0, 0.015625, 0.260742, -9.7998, 1.10.2022 20:22:21.588
749, 1.65457, 0.125121, 153.311, -0.000976562, -0.000976562, -0.000976562, -0.0693359, 0.282227, -9.76758, 1.10.2022 20:22:21.596
750, 1.65457, 0.125121, 153.311, -0.000976562, -0.000976562, 0, -0.0566406, 0.292969, -9.83301, 1.10.2022 20:22:21.604
751, 1.65457, 0.125121, 153.311, -0.000976562, -0.000976562, 0, -0.00390625, 0.256836, -9.82129, 1.10.2022 20:22:21.612
752, 1.65457, 0.125121, 153.311, -0.000976562, -0.000976562, 0, -0.0957031, 0.288086, -9.7998, 1.10.2022 20:22:21.620
753, 1.65457, 0.125121, 153.311, 0, -0.000976562, -0.000976562, 0.0107422, 0.263672, -9.81836, 1.10.2022 20:22:21.628
754, 1.65457, 0.125121, 153.311, -0.000976562, -0.00195312, 0, -0.0263672, 0.280273, -9.87891, 1.10.2022 20:22:21.636
755, 1.65457, 0.125121, 153.311, -0.000976562, -0.00195312, -0.000976562, -0.0625, 0.297852, -9.80664, 1.10.2022 20:22:21.644
756, 1.65457, 0.125121, 153.311, 0, 0, 0, 0.0205078, 0.303711, -9.7959, 1.10.2022 20:22:21.652
757, 1.65463, 0.125218, 153.319, 0, -0.000976562, -0.000976562, -0.0253906, 0.266602, -9.83691, 1.10.2022 20:22:21.660
758, 1.65434, 0.125249, 153.318, -0.000976562, -0.000976562, 0, -0.0185547, 0.291016, -9.84375, 1.10.2022 20:22:21.668
759, 1.65457, 0.125121, 153.311, -0.000976562, -0.000976562, 0.000976562, 0.0390625, 0.288086, -9.81348, 1.10.2022 20:22:21.676
760, 1.65619, 0.131926, 153.311, 0, -0.00195312, 0, -0.0585938, 0.299805, -9.81836, 1.10.2022 20:22:21.684
761, 1.65619, 0.131926, 153.311, 0, -0.00195312, -0.000976562, -0.0078125, 0.263672, -9.81152, 1.10.2022 20:22:21.692
762, 1.65625, 0.132022, 153.319, -0.000976562, -0.00195312, -0.000976562, -0.0205078, 0.271484, -9.82031, 1.10.2022 20:22:21.700
763, 1.65595, 0.132053, 153.317, -0.000976562, -0.000976562, -0.000976562, -0.09375, 0.287109, -9.79004, 1.10.2022 20:22:21.708
764, 1.65595, 0.132053, 153.317, 0, -0.000976562, 0, 0.000976562, 0.285156, -9.81055, 1.10.2022 20:22:21.716
765, 1.65595, 0.132053, 153.317, 0, -0.000976562, 0, 0.0107422, 0.258789, -9.79785, 1.10.2022 20:22:21.724
766, 1.65595, 0.132053, 153.317, -0.000976562, -0.000976562, -0.000976562, -0.0751953, 0.293945, -9.83984, 1.10.2022 20:22:21.732
767, 1.65595, 0.132053, 153.317, 0.000976562, -0.000976562, 0, 0.0185547, 0.311523, -9.80566, 1.10.2022 20:22:21.740
768, 1.65595, 0.132053, 153.317, 0, 0.000976562, -0.000976562, -0.00878906, 0.279297, -9.83398, 1.10.2022 20:22:21.748
769, 1.65595, 0.132053, 153.317, -0.000976562, -0.000976562, -0.000976562, -0.0332031, 0.314453, -9.75488, 1.10.2022 20:22:21.756
770, 1.65595, 0.132053, 153.317, -0.000976562, -0.000976562, -0.000976562, 0.046875, 0.275391, -9.79004, 1.10.2022 20:22:21.764
771, 1.65595, 0.132053, 153.317, -0.000976562, 0.000976562, -0.000976562, -0.0693359, 0.287109, -9.7666, 1.10.2022 20:22:21.772
772, 1.65595, 0.132053, 153.317, -0.000976562, -0.000976562, -0.000976562, -0.0390625, 0.291992, -9.7793, 1.10.2022 20:22:21.780
773, 1.65595, 0.132053, 153.317, -0.000976562, -0.000976562, -0.000976562, 0.0380859, 0.301758, -9.78516, 1.10.2022 20:22:21.788
774, 1.65595, 0.132053, 153.317, 0, -0.00195312, 0, -0.0605469, 0.307617, -9.83301, 1.10.2022 20:22:21.796
775, 1.65595, 0.132053, 153.317, 0, -0.000976562, 0, -0.0195312, 0.294922, -9.80762, 1.10.2022 20:22:21.804
776, 1.66275, 0.13044, 153.317, 0, 0, 0, -0.00390625, 0.257812, -9.83496, 1.10.2022 20:22:21.812
777, 1.66275, 0.13044, 153.317, 0, -0.000976562, -0.000976562, -0.0751953, 0.28125, -9.82617, 1.10.2022 20:22:21.820
778, 1.66275, 0.13044, 153.317, -0.000976562, 0, -0.000976562, -0.0078125, 0.275391, -9.80371, 1.10.2022 20:22:21.828
779, 1.66275, 0.13044, 153.317, 0, 0, 0, -0.0146484, 0.303711, -9.77734, 1.10.2022 20:22:21.836
780, 1.66275, 0.13044, 153.317, -0.000976562, 0, 0.000976562, -0.0869141, 0.283203, -9.81641, 1.10.2022 20:22:21.844
781, 1.66275, 0.13044, 153.317, -0.000976562, 0.000976562, 0, 0.0332031, 0.25293, -9.78125, 1.10.2022 20:22:21.852
782, 1.66275, 0.13044, 153.317, 0, -0.000976562, -0.000976562, -0.0527344, 0.285156, -9.78906, 1.10.2022 20:22:21.860
783, 1.66275, 0.13044, 153.317, 0.000976562, 0.000976562, -0.000976562, -0.0507812, 0.282227, -9.78125, 1.10.2022 20:22:21.868
784, 1.66275, 0.13044, 153.317, 0, -0.000976562, 0, 0.0302734, 0.24707, -9.81934, 1.10.2022 20:22:21.876
785, 1.66275, 0.13044, 153.317, 0, 0, 0, -0.0361328, 0.289062, -9.76953, 1.10.2022 20:22:21.884
786, 1.66275, 0.13044, 153.317, 0, 0, 0.000976562, -0.0244141, 0.308594, -9.78613, 1.10.2022 20:22:21.892
787, 1.66275, 0.13044, 153.317, 0, 0.000976562, 0, 0.00683594, 0.241211, -9.7832, 1.10.2022 20:22:21.900
788, 1.66275, 0.13044, 153.317, 0, 0, 0, -0.0361328, 0.272461, -9.76074, 1.10.2022 20:22:21.908
789, 1.66275, 0.13044, 153.317, -0.000976562, -0.000976562, -0.000976562, -0.000976562, 0.275391, -9.79199, 1.10.2022 20:22:21.916
790, 1.66275, 0.13044, 153.317, -0.000976562, 0, -0.00195312, 0.0146484, 0.269531, -9.75977, 1.10.2022 20:22:21.924
791, 1.66275, 0.13044, 153.317, 0, 0, -0.000976562, -0.113281, 0.273438, -9.7998, 1.10.2022 20:22:21.932
792, 1.66275, 0.13044, 153.317, 0, -0.000976562, 0, 0.0380859, 0.25293, -9.7793, 1.10.2022 20:22:21.940
793, 1.65595, 0.132053, 153.317, 0, -0.000976562, 0, -0.0322266, 0.269531, -9.8457, 1.10.2022 20:22:21.948
794, 1.65595, 0.132053, 153.317, -0.000976562, -0.00195312, 0.000976562, -0.0439453, 0.276367, -9.8291, 1.10.2022 20:22:21.956
795, 1.65434, 0.125249, 153.318, -0.000976562, -0.000976562, 0, 0.0322266, 0.260742, -9.7998, 1.10.2022 20:22:21.964
796, 1.65434, 0.125249, 153.318, -0.000976562, -0.000976562, 0, -0.0644531, 0.280273, -9.7793, 1.10.2022 20:22:21.972
797, 1.65434, 0.125249, 153.318, -0.000976562, -0.000976562, -0.000976562, -0.0556641, 0.321289, -9.79492, 1.10.2022 20:22:21.980
798, 1.65434, 0.125249, 153.318, 0, 0, 0, -0.000976562, 0.263672, -9.79004, 1.10.2022 20:22:21.988
799, 1.65434, 0.125249, 153.318, -0.000976562, -0.000976562, -0.000976562, -0.0585938, 0.310547, -9.85156, 1.10.2022 20:22:21.996
800, 1.64754, 0.126862, 153.318, 0, 0, 0, -0.00292969, 0.270508, -9.80371, 1.10.2022 20:22:22.004
801, 1.64754, 0.126862, 153.318, 0, 0, 0, -0.00585938, 0.266602, -9.80859, 1.10.2022 20:22:22.012
802, 1.64754, 0.126862, 153.318, -0.000976562, 0.000976562, -0.000976562, -0.0722656, 0.299805, -9.79688, 1.10.2022 20:22:22.020
803, 1.64754, 0.126862, 153.318, 0, 0, -0.000976562, 0.0332031, 0.236328, -9.77051, 1.10.2022 20:22:22.028
804, 1.64754, 0.126862, 153.318, 0.000976562, -0.00195312, 0.000976562, -0.00292969, 0.299805, -9.80273, 1.10.2022 20:22:22.036
805, 1.64754, 0.126862, 153.318, -0.000976562, 0.000976562, 0.000976562, -0.03125, 0.277344, -9.77734, 1.10.2022 20:22:22.044
806, 1.64754, 0.126862, 153.318, 0, 0.000976562, 0, 0.0136719, 0.256836, -9.80664, 1.10.2022 20:22:22.052
807, 1.64754, 0.126862, 153.318, -0.000976562, 0, -0.000976562, -0.0439453, 0.249023, -9.80371, 1.10.2022 20:22:22.060
808, 1.64073, 0.128476, 153.318, -0.000976562, 0.000976562, 0, -0.0332031, 0.261719, -9.74707, 1.10.2022 20:22:22.068
809, 1.64073, 0.128476, 153.318, 0, -0.000976562, -0.000976562, 0.0214844, 0.262695, -9.7666, 1.10.2022 20:22:22.074
810, 1.64073, 0.128476, 153.318, 0, 0, -0.000976562, -0.0556641, 0.263672, -9.79883, 1.10.2022 20:22:22.084
811, 1.64073, 0.128476, 153.318, -0.000976562, 0, 0, 0.000976562, 0.299805, -9.8291, 1.10.2022 20:22:22.090
812, 1.63912, 0.121671, 153.318, 0, 0, 0, 0.0195312, 0.260742, -9.85938, 1.10.2022 20:22:22.098
813, 1.63912, 0.121671, 153.318, -0.000976562, 0, 0, -0.0537109, 0.286133, -9.82129, 1.10.2022 20:22:22.106
814, 1.63912, 0.121671, 153.318, -0.000976562, -0.000976562, -0.000976562, -0.00390625, 0.269531, -9.85352, 1.10.2022 20:22:22.114
815, 1.63232, 0.123285, 153.318, 0, -0.000976562, -0.000976562, -0.0195312, 0.236328, -9.76465, 1.10.2022 20:22:22.122
816, 1.63232, 0.123285, 153.318, -0.000976562, 0, 0, -0.0742188, 0.303711, -9.78027, 1.10.2022 20:22:22.130
817, 1.63232, 0.123285, 153.318, -0.000976562, 0, 0, 0.000976562, 0.25, -9.81836, 1.10.2022 20:22:22.138
818, 1.63232, 0.123285, 153.318, -0.000976562, 0, 0, -0.0244141, 0.280273, -9.80566, 1.10.2022 20:22:22.146
819, 1.63232, 0.123285, 153.318, -0.000976562, 0, 0, -0.0292969, 0.304688, -9.80957, 1.10.2022 20:22:22.154
820, 1.63232, 0.123285, 153.318, -0.000976562, 0, 0, 0.046875, 0.244141, -9.80273, 1.10.2022 20:22:22.162
821, 1.63071, 0.11648, 153.318, 0, -0.000976562, 0, -0.0634766, 0.271484, -9.81934, 1.10.2022 20:22:22.170
822, 1.6239, 0.118094, 153.318, 0, 0, 0, -0.0253906, 0.322266, -9.82812, 1.10.2022 20:22:22.178
823, 1.6239, 0.118094, 153.318, -0.000976562, 0, -0.000976562, 0.0322266, 0.288086, -9.83203, 1.10.2022 20:22:22.186
824, 1.6239, 0.118094, 153.318, -0.00195312, 0, 0, -0.0820312, 0.288086, -9.81641, 1.10.2022 20:22:22.194
825, 1.6239, 0.118094, 153.318, -0.00195312, 0, 0, -0.0126953, 0.287109, -9.7959, 1.10.2022 20:22:22.202
826, 1.6239, 0.118094, 153.318, 0, 0.000976562, 0, 0.00976562, 0.265625, -9.86328, 1.10.2022 20:22:22.210
827, 1.6239, 0.118094, 153.318, 0, 0, -0.000976562, -0.0820312, 0.290039, -9.81445, 1.10.2022 20:22:22.218
828, 1.6239, 0.118094, 153.318, 0, 0, -0.000976562, 0.0302734, 0.294922, -9.81836, 1.10.2022 20:22:22.226
829, 1.6239, 0.118094, 153.318, 0, -0.000976562, 0, 0.00195312, 0.275391, -9.80371, 1.10.2022 20:22:22.234
830, 1.6239, 0.118094, 153.318, 0.000976562, 0, -0.000976562, -0.0556641, 0.304688, -9.81836, 1.10.2022 20:22:22.242
831, 1.6239, 0.118094, 153.318, 0, -0.00195312, -0.000976562, 0.0380859, 0.308594, -9.77539, 1.10.2022 20:22:22.250
832, 1.6239, 0.118094, 153.318, -0.000976562, 0, -0.000976562, -0.0449219, 0.243164, -9.84375, 1.10.2022 20:22:22.258
833, 1.63071, 0.11648, 153.318, -0.000976562, 0, -0.000976562, -0.0585938, 0.301758, -9.80664, 1.10.2022 20:22:22.266
834, 1.63071, 0.11648, 153.318, -0.000976562, 0.000976562, 0, 0.0175781, 0.266602, -9.81152, 1.10.2022 20:22:22.274
835, 1.63071, 0.11648, 153.318, -0.000976562, 0, 0, -0.0722656, 0.270508, -9.79102, 1.10.2022 20:22:22.282
836, 1.63071, 0.11648, 153.318, -0.000976562, -0.000976562, -0.000976562, -0.0576172, 0.249023, -9.78516, 1.10.2022 20:22:22.290
837, 1.63071, 0.11648, 153.318, -0.000976562, 0, 0, -0.0273438, 0.248047, -9.83496, 1.10.2022 20:22:22.298
838, 1.63071, 0.11648, 153.318, -0.000976562, -0.00292969, 0, -0.0673828, 0.28418, -9.77148, 1.10.2022 20:22:22.306
839, 1.63071, 0.11648, 153.318, 0, -0.000976562, 0, 0.0566406, 0.255859, -9.77246, 1.10.2022 20:22:22.314
840, 1.63071, 0.11648, 153.318, -0.000976562, 0, 0.000976562, -0.000976562, 0.237305, -9.80469, 1.10.2022 20:22:22.322
841, 1.63071, 0.11648, 153.318, -0.000976562, 0, 0.000976562, -0.0449219, 0.293945, -9.84473, 1.10.2022 20:22:22.330
842, 1.63071, 0.11648, 153.318, -0.000976562, 0, 0, 0.0371094, 0.299805, -9.83008, 1.10.2022 20:22:22.338
843, 1.63071, 0.11648, 153.318, 0, 0, -0.000976562, -0.0556641, 0.3125, -9.8252, 1.10.2022 20:22:22.346
844, 1.63071, 0.11648, 153.318, -0.000976562, 0, 0, -0.0380859, 0.295898, -9.76465, 1.10.2022 20:22:22.354
845, 1.63071, 0.11648, 153.318, 0, 0.000976562, 0, 0.0273438, 0.258789, -9.81641, 1.10.2022 20:22:22.362
846, 1.63071, 0.11648, 153.318, 0, -0.000976562, 0, -0.0654297, 0.276367, -9.83594, 1.10.2022 20:22:22.370
847, 1.63071, 0.11648, 153.318, 0, 0, -0.000976562, -0.0292969, 0.250977, -9.77832, 1.10.2022 20:22:22.378
848, 1.63071, 0.11648, 153.318, -0.000976562, 0, -0.000976562, 0.00488281, 0.262695, -9.76465, 1.10.2022 20:22:22.386
849, 1.6239, 0.118094, 153.318, 0, -0.00195312, 0, -0.103516, 0.290039, -9.81348, 1.10.2022 20:22:22.394
850, 1.6239, 0.118094, 153.318, 0, 0, -0.000976562, 0.0126953, 0.251953, -9.81641, 1.10.2022 20:22:22.402
851, 1.6239, 0.118094, 153.318, -0.000976562, 0, -0.000976562, -0.0302734, 0.28418, -9.85059, 1.10.2022 20:22:22.410
852, 1.6239, 0.118094, 153.318, -0.000976562, 0, 0, -0.0839844, 0.283203, -9.79492, 1.10.2022 20:22:22.418
853, 1.6239, 0.118094, 153.318, 0, 0.000976562, 0, 0.0341797, 0.28418, -9.83984, 1.10.2022 20:22:22.426
854, 1.6239, 0.118094, 153.318, 0, 0, -0.000976562, -0.0332031, 0.28418, -9.76758, 1.10.2022 20:22:22.434
855, 1.6239, 0.118094, 153.318, -0.000976562, 0, -0.000976562, -0.0576172, 0.306641, -9.78809, 1.10.2022 20:22:22.442
856, 1.6239, 0.118094, 153.318, 0, -0.000976562, 0, 0.0371094, 0.275391, -9.81348, 1.10.2022 20:22:22.450
857, 1.6239, 0.118094, 153.318, 0, 0, 0.000976562, -0.03125, 0.280273, -9.78906, 1.10.2022 20:22:22.458
858, 1.6239, 0.118094, 153.318, 0.000976562, -0.000976562, -0.000976562, -0.0439453, 0.268555, -9.81055, 1.10.2022 20:22:22.466
859, 1.6239, 0.118094, 153.318, 0.000976562, 0, -0.000976562, 0.0234375, 0.270508, -9.80176, 1.10.2022 20:22:22.474
860, 1.6239, 0.118094, 153.318, 0, 0.000976562, 0, -0.0537109, 0.271484, -9.82422, 1.10.2022 20:22:22.482
861, 1.6239, 0.118094, 153.318, 0, 0, -0.000976562, -0.0126953, 0.292969, -9.82227, 1.10.2022 20:22:22.490
862, 1.6239, 0.118094, 153.318, 0, 0.000976562, -0.00195312, -0.00488281, 0.265625, -9.77539, 1.10.2022 20:22:22.498
863, 1.6239, 0.118094, 153.318, -0.000976562, 0, 0, -0.0810547, 0.293945, -9.78125, 1.10.2022 20:22:22.506
864, 1.6239, 0.118094, 153.318, 0, 0.000976562, 0, 0.00390625, 0.262695, -9.77637, 1.10.2022 20:22:22.514
865, 1.6239, 0.118094, 153.318, 0, 0, 0, -0.0439453, 0.265625, -9.78711, 1.10.2022 20:22:22.522
866, 1.62552, 0.124899, 153.318, 0, -0.000976562, 0, -0.0341797, 0.280273, -9.78906, 1.10.2022 20:22:22.530
867, 1.61871, 0.126512, 153.318, 0, -0.000976562, -0.000976562, -0.000976562, 0.268555, -9.80664, 1.10.2022 20:22:22.538
868, 1.61871, 0.126512, 153.318, 0, -0.000976562, -0.000976562, -0.0205078, 0.254883, -9.81348, 1.10.2022 20:22:22.546
869, 1.61871, 0.126512, 153.318, -0.000976562, 0, 0, -0.0214844, 0.287109, -9.78223, 1.10.2022 20:22:22.554
870, 1.61871, 0.126512, 153.318, 0, 0, -0.000976562, 0.0205078, 0.245117, -9.8125, 1.10.2022 20:22:22.562
871, 1.61871, 0.126512, 153.318, -0.000976562, 0, 0, -0.0605469, 0.274414, -9.83398, 1.10.2022 20:22:22.570
872, 1.61871, 0.126512, 153.318, -0.000976562, 0, -0.000976562, -0.0410156, 0.285156, -9.79785, 1.10.2022 20:22:22.578
873, 1.61871, 0.126512, 153.318, -0.000976562, 0.000976562, -0.00195312, -0.00390625, 0.291016, -9.82715, 1.10.2022 20:22:22.586
874, 1.61871, 0.126512, 153.318, -0.000976562, 0, -0.000976562, -0.0839844, 0.305664, -9.7666, 1.10.2022 20:22:22.594
875, 1.61871, 0.126512, 153.318, 0, -0.000976562, 0, -0.0205078, 0.297852, -9.83105, 1.10.2022 20:22:22.602
876, 1.61871, 0.126512, 153.318, 0, -0.000976562, 0, -0.00488281, 0.265625, -9.77344, 1.10.2022 20:22:22.610
877, 1.61871, 0.126512, 153.318, 0, 0, 0, -0.0458984, 0.274414, -9.77441, 1.10.2022 20:22:22.618
878, 1.61871, 0.126512, 153.318, -0.000976562, 0, -0.000976562, 0.0185547, 0.263672, -9.80176, 1.10.2022 20:22:22.626
879, 1.61871, 0.126512, 153.318, 0, 0, -0.000976562, -0.0410156, 0.287109, -9.80078, 1.10.2022 20:22:22.634
880, 1.61871, 0.126512, 153.318, -0.000976562, 0, -0.000976562, -0.0175781, 0.302734, -9.82617, 1.10.2022 20:22:22.642
881, 1.61871, 0.126512, 153.318, -0.00195312, 0, 0, 0.0273438, 0.251953, -9.81445, 1.10.2022 20:22:22.650
882, 1.61871, 0.126512, 153.318, -0.000976562, 0.000976562, 0, -0.0390625, 0.270508, -9.77734, 1.10.2022 20:22:22.658
883, 1.61871, 0.126512, 153.318, 0, 0, 0, -0.0439453, 0.270508, -9.78418, 1.10.2022 20:22:22.666
884, 1.61871, 0.126512, 153.318, 0, 0, -0.000976562, -0.00390625, 0.279297, -9.83691, 1.10.2022 20:22:22.674
885, 1.62552, 0.124899, 153.318, -0.000976562, 0, -0.000976562, -0.0986328, 0.324219, -9.80762, 1.10.2022 20:22:22.682
886, 1.62552, 0.124899, 153.318, 0, 0, 0, -0.0195312, 0.280273, -9.80566, 1.10.2022 20:22:22.690
887, 1.62713, 0.131703, 153.318, 0, -0.000976562, 0, 0.00195312, 0.282227, -9.78223, 1.10.2022 20:22:22.698
888, 1.62713, 0.131703, 153.318, -0.000976562, -0.000976562, 0, -0.108398, 0.27832, -9.81348, 1.10.2022 20:22:22.706
889, 1.62713, 0.131703, 153.318, 0, 0.000976562, 0.000976562, 0.0302734, 0.268555, -9.80957, 1.10.2022 20:22:22.714
890, 1.62713, 0.131703, 153.318, 0, 0.000976562, 0, 0.00195312, 0.287109, -9.78711, 1.10.2022 20:22:22.722
891, 1.62713, 0.131703, 153.318, -0.000976562, 0.000976562, 0, -0.0888672, 0.311523, -9.80176, 1.10.2022 20:22:22.730
892, 1.62713, 0.131703, 153.318, -0.00195312, 0.000976562, 0, 0.0205078, 0.275391, -9.78809, 1.10.2022 20:22:22.738
893, 1.62713, 0.131703, 153.318, -0.000976562, 0, 0, -0.0644531, 0.277344, -9.78125, 1.10.2022 20:22:22.746
894, 1.62713, 0.131703, 153.318, 0, 0, 0, -0.0585938, 0.3125, -9.84473, 1.10.2022 20:22:22.754
895, 1.62713, 0.131703, 153.318, 0, 0, 0, 0.0195312, 0.274414, -9.84863, 1.10.2022 20:22:22.762
896, 1.63554, 0.136894, 153.318, -0.000976562, -0.00195312, 0.000976562, -0.078125, 0.302734, -9.83301, 1.10.2022 20:22:22.770
897, 1.63554, 0.136894, 153.318, -0.000976562, 0, 0, -0.0605469, 0.318359, -9.7832, 1.10.2022 20:22:22.778
898, 1.63554, 0.136894, 153.318, -0.000976562, 0, 0, -0.000976562, 0.250977, -9.78125, 1.10.2022 20:22:22.786
899, 1.63554, 0.136894, 153.318, -0.000976562, 0, 0, -0.113281, 0.292969, -9.80664, 1.10.2022 20:22:22.794
900, 1.63716, 0.143699, 153.317, -0.000976562, 0.000976562, -0.000976562, 0.0185547, 0.280273, -9.78516, 1.10.2022 20:22:22.802
901, 1.63716, 0.143699, 153.317, 0, 0.000976562, -0.000976562, -0.0361328, 0.283203, -9.80078, 1.10.2022 20:22:22.810
902, 1.64396, 0.142085, 153.317, 0.000976562, 0.000976562, -0.000976562, -0.0556641, 0.293945, -9.7832, 1.10.2022 20:22:22.818
903, 1.64396, 0.142085, 153.317, 0, 0, 0, 0.0371094, 0.273438, -9.81836, 1.10.2022 20:22:22.826
904, 1.64396, 0.142085, 153.317, 0, -0.00195312, 0, -0.0205078, 0.251953, -9.82031, 1.10.2022 20:22:22.834
905, 1.64557, 0.14889, 153.317, 0, -0.000976562, 0, -0.0458984, 0.293945, -9.78418, 1.10.2022 20:22:22.842
906, 1.64557, 0.14889, 153.317, 0, -0.00195312, -0.000976562, 0.0419922, 0.253906, -9.79785, 1.10.2022 20:22:22.850
907, 1.64557, 0.14889, 153.317, -0.000976562, -0.00195312, 0, -0.0458984, 0.272461, -9.78223, 1.10.2022 20:22:22.858
908, 1.64557, 0.14889, 153.317, -0.000976562, -0.00195312, -0.000976562, -0.0361328, 0.289062, -9.7793, 1.10.2022 20:22:22.866
909, 1.64557, 0.14889, 153.317, 0, 0.000976562, -0.000976562, -0.0273438, 0.255859, -9.79492, 1.10.2022 20:22:22.874
910, 1.64557, 0.14889, 153.317, 0, -0.000976562, 0, -0.0683594, 0.295898, -9.83105, 1.10.2022 20:22:22.882
911, 1.64557, 0.14889, 153.317, 0, 0.000976562, -0.000976562, 0.0117188, 0.265625, -9.78809, 1.10.2022 20:22:22.890
912, 1.64557, 0.14889, 153.317, 0, -0.000976562, 0, -0.00585938, 0.226562, -9.83594, 1.10.2022 20:22:22.898
913, 1.64557, 0.14889, 153.317, 0, -0.000976562, 0, -0.0576172, 0.280273, -9.78125, 1.10.2022 20:22:22.906
914, 1.64557, 0.14889, 153.317, 0, -0.00195312, 0, 0.015625, 0.285156, -9.79883, 1.10.2022 20:22:22.914
915, 1.64557, 0.14889, 153.317, -0.000976562, -0.000976562, 0, -0.0078125, 0.263672, -9.79688, 1.10.2022 20:22:22.922
916, 1.64557, 0.14889, 153.317, -0.000976562, -0.000976562, -0.000976562, -0.0869141, 0.288086, -9.81152, 1.10.2022 20:22:22.930
917, 1.63877, 0.150503, 153.317, 0, 0.000976562, -0.000976562, 0.0214844, 0.266602, -9.73145, 1.10.2022 20:22:22.938
918, 1.63877, 0.150503, 153.317, 0, -0.00195312, 0, -0.0644531, 0.282227, -9.78418, 1.10.2022 20:22:22.946
919, 1.63877, 0.150503, 153.317, -0.000976562, -0.00195312, -0.000976562, -0.0390625, 0.300781, -9.82812, 1.10.2022 20:22:22.954
920, 1.63877, 0.150503, 153.317, -0.000976562, -0.000976562, 0, 0.0136719, 0.250977, -9.76953, 1.10.2022 20:22:22.962
921, 1.63877, 0.150503, 153.317, -0.000976562, -0.000976562, 0, -0.0458984, 0.316406, -9.81152, 1.10.2022 20:22:22.970
922, 1.63877, 0.150503, 153.317, -0.000976562, -0.000976562, -0.000976562, -0.0263672, 0.276367, -9.74219, 1.10.2022 20:22:22.978
923, 1.63877, 0.150503, 153.317, -0.000976562, 0, 0.000976562, -0.00976562, 0.265625, -9.77539, 1.10.2022 20:22:22.986
924, 1.63877, 0.150503, 153.317, -0.000976562, -0.000976562, 0, -0.0625, 0.271484, -9.75293, 1.10.2022 20:22:22.994
925, 1.63877, 0.150503, 153.317, -0.000976562, -0.00195312, -0.000976562, 0.00585938, 0.253906, -9.80469, 1.10.2022 20:22:23.002
926, 1.63877, 0.150503, 153.317, -0.000976562, -0.000976562, -0.000976562, 0.0146484, 0.288086, -9.72559, 1.10.2022 20:22:23.010
927, 1.63877, 0.150503, 153.317, -0.00195312, -0.000976562, 0, -0.0458984, 0.311523, -9.80664, 1.10.2022 20:22:23.018
928, 1.63877, 0.150503, 153.317, -0.000976562, 0, 0.000976562, 0.0439453, 0.268555, -9.82129, 1.10.2022 20:22:23.026
929, 1.63877, 0.150503, 153.317, -0.000976562, -0.000976562, 0, -0.0322266, 0.263672, -9.81738, 1.10.2022 20:22:23.034
930, 1.63877, 0.150503, 153.317, 0, -0.000976562, 0, -0.0527344, 0.234375, -9.7666, 1.10.2022 20:22:23.042
931, 1.63877, 0.150503, 153.317, 0, -0.000976562, -0.000976562, 0.0136719, 0.292969, -9.81543, 1.10.2022 20:22:23.048
932, 1.63716, 0.143699, 153.317, 0, -0.000976562, -0.000976562, -0.0458984, 0.285156, -9.80078, 1.10.2022 20:22:23.056
933, 1.63716, 0.143699, 153.317, 0, -0.000976562, 0, -0.0400391, 0.298828, -9.84473, 1.10.2022 20:22:23.064
934, 1.63716, 0.143699, 153.317, 0, -0.000976562, 0.000976562, 0.0214844, 0.250977, -9.76758, 1.10.2022 20:22:23.072
935, 1.63036, 0.145312, 153.317, 0, -0.00195312, 0, -0.0488281, 0.270508, -9.7959, 1.10.2022 20:22:23.080
936, 1.63036, 0.145312, 153.317, 0, 0.000976562, 0, -0.00585938, 0.286133, -9.8291, 1.10.2022 20:22:23.090
937, 1.63036, 0.145312, 153.317, -0.000976562, 0, 0, -0.0322266, 0.291992, -9.80566, 1.10.2022 20:22:23.096
938, 1.62874, 0.138508, 153.318, 0, -0.00195312, -0.000976562, -0.0625, 0.325195, -9.78516, 1.10.2022 20:22:23.104
939, 1.62874, 0.138508, 153.318, -0.000976562, -0.00195312, 0, 0.00585938, 0.266602, -9.80859, 1.10.2022 20:22:23.112
940, 1.62874, 0.138508, 153.318, 0, 0, 0.000976562, -0.0390625, 0.248047, -9.8252, 1.10.2022 20:22:23.120
941, 1.62874, 0.138508, 153.318, 0, 0, 0.000976562, -0.0439453, 0.237305, -9.7832, 1.10.2022 20:22:23.128
942, 1.62874, 0.138508, 153.318, 0.000976562, 0, -0.000976562, -0.000976562, 0.253906, -9.80664, 1.10.2022 20:22:23.136
943, 1.62874, 0.138508, 153.318, -0.000976562, 0.000976562, 0, -0.046875, 0.268555, -9.82031, 1.10.2022 20:22:23.144
944, 1.62874, 0.138508, 153.318, 0, 0, 0, -0.0566406, 0.271484, -9.8291, 1.10.2022 20:22:23.152
945, 1.62874, 0.138508, 153.318, 0, 0.000976562, -0.000976562, -0.000976562, 0.271484, -9.81348, 1.10.2022 20:22:23.160
946, 1.62874, 0.138508, 153.318, 0, 0, 0, -0.0800781, 0.305664, -9.82812, 1.10.2022 20:22:23.168
947, 1.62874, 0.138508, 153.318, 0, 0, 0, -0.0078125, 0.245117, -9.80664, 1.10.2022 20:22:23.176
948, 1.62194, 0.140121, 153.318, 0, 0, 0, 0.0390625, 0.251953, -9.81738, 1.10.2022 20:22:23.184
949, 1.62194, 0.140121, 153.318, 0, -0.00195312, 0, -0.0371094, 0.294922, -9.80957, 1.10.2022 20:22:23.192
950, 1.62194, 0.140121, 153.318, 0, 0, 0, -0.0107422, 0.30957, -9.80469, 1.10.2022 20:22:23.200
951, 1.62194, 0.140121, 153.318, 0, 0, 0, -0.015625, 0.267578, -9.85156, 1.10.2022 20:22:23.208
952, 1.62194, 0.140121, 153.318, 0, 0.00195312, 0.000976562, -0.0361328, 0.301758, -9.7998, 1.10.2022 20:22:23.216
953, 1.62027, 0.133223, 153.31, -0.000976562, 0, 0, 0.0273438, 0.237305, -9.80273, 1.10.2022 20:22:23.224
954, 1.62027, 0.133223, 153.31, -0.000976562, 0.000976562, 0, -0.0341797, 0.261719, -9.80371, 1.10.2022 20:22:23.232
955, 1.62027, 0.133223, 153.31, 0, 0, 0, -0.0341797, 0.294922, -9.80469, 1.10.2022 20:22:23.240
956, 1.62027, 0.133223, 153.31, 0, 0, -0.000976562, 0.00878906, 0.306641, -9.80762, 1.10.2022 20:22:23.248
957, 1.62027, 0.133223, 153.31, -0.000976562, 0.000976562, -0.000976562, -0.0644531, 0.303711, -9.78516, 1.10.2022 20:22:23.256
958, 1.62027, 0.133223, 153.31, -0.000976562, 0, 0, -0.0371094, 0.30957, -9.82129, 1.10.2022 20:22:23.264
959, 1.62027, 0.133223, 153.31, -0.000976562, -0.00195312, 0.000976562, 0.0107422, 0.248047, -9.84277, 1.10.2022 20:22:23.272
960, 1.62027, 0.133223, 153.31, 0, 0.000976562, 0, -0.0507812, 0.267578, -9.78711, 1.10.2022 20:22:23.280
961, 1.62027, 0.133223, 153.31, 0, 0, 0, -0.0126953, 0.293945, -9.77734, 1.10.2022 20:22:23.288
962, 1.62027, 0.133223, 153.31, -0.000976562, 0, 0, -0.00878906, 0.300781, -9.83887, 1.10.2022 20:22:23.296
963, 1.62027, 0.133223, 153.31, -0.000976562, -0.00195312, 0, -0.0820312, 0.266602, -9.81934, 1.10.2022 20:22:23.304
964, 1.62027, 0.133223, 153.31, -0.000976562, 0, 0, 0.015625, 0.270508, -9.79688, 1.10.2022 20:22:23.312
965, 1.62027, 0.133223, 153.31, -0.000976562, 0.000976562, 0, -0.0244141, 0.249023, -9.80664, 1.10.2022 20:22:23.320
966, 1.61865, 0.126418, 153.31, -0.000976562, 0.000976562, 0, -0.0390625, 0.268555, -9.80078, 1.10.2022 20:22:23.328
967, 1.61865, 0.126418, 153.31, 0, 0.000976562, -0.000976562, 0.00878906, 0.27832, -9.81543, 1.10.2022 20:22:23.336
968, 1.61865, 0.126418, 153.31, 0, -0.000976562, -0.00195312, -0.0664062, 0.293945, -9.75977, 1.10.2022 20:22:23.344
969, 1.61865, 0.126418, 153.31, 0, -0.000976562, -0.00195312, -0.0195312, 0.277344, -9.78418, 1.10.2022 20:22:23.352
970, 1.61865, 0.126418, 153.31, 0, 0, 0, 0.0136719, 0.264648, -9.76465, 1.10.2022 20:22:23.360
971, 1.61865, 0.126418, 153.31, 0, -0.000976562, 0, -0.0507812, 0.268555, -9.81738, 1.10.2022 20:22:23.368
972, 1.61865, 0.126418, 153.31, 0, 0, 0, 0.0136719, 0.262695, -9.7666, 1.10.2022 20:22:23.376
973, 1.61865, 0.126418, 153.31, -0.000976562, -0.000976562, -0.000976562, -0.0263672, 0.289062, -9.77246, 1.10.2022 20:22:23.384
974, 1.61865, 0.126418, 153.31, 0, -0.000976562, -0.00195312, -0.0644531, 0.307617, -9.75684, 1.10.2022 20:22:23.392
975, 1.61871, 0.126512, 153.318, 0, 0, 0, 0.00488281, 0.290039, -9.7373, 1.10.2022 20:22:23.400
976, 1.61871, 0.126512, 153.318, 0, -0.000976562, 0, -0.0166016, 0.257812, -9.76172, 1.10.2022 20:22:23.408
977, 1.62545, 0.124804, 153.31, -0.000976562, -0.000976562, 0.000976562, -0.0371094, 0.285156, -9.80566, 1.10.2022 20:22:23.416
978, 1.62545, 0.124804, 153.31, 0, 0, 0, 0.0302734, 0.231445, -9.76562, 1.10.2022 20:22:23.424
979, 1.62545, 0.124804, 153.31, -0.000976562, -0.00195312, -0.00195312, -0.0605469, 0.311523, -9.80469, 1.10.2022 20:22:23.432
980, 1.62545, 0.124804, 153.31, -0.000976562, 0, 0, -0.0175781, 0.326172, -9.82812, 1.10.2022 20:22:23.440
981, 1.62545, 0.124804, 153.31, -0.000976562, -0.000976562, 0.000976562, 0.0253906, 0.267578, -9.7832, 1.10.2022 20:22:23.448
982, 1.62545, 0.124804, 153.31, -0.000976562, -0.000976562, 0, -0.0742188, 0.287109, -9.78809, 1.10.2022 20:22:23.456
983, 1.62545, 0.124804, 153.31, -0.000976562, -0.000976562, 0, -0.00976562, 0.262695, -9.77832, 1.10.2022 20:22:23.464
984, 1.62545, 0.124804, 153.31, -0.000976562, -0.00195312, -0.00195312, -0.0175781, 0.288086, -9.82422, 1.10.2022 20:22:23.472
985, 1.62545, 0.124804, 153.31, -0.000976562, -0.000976562, -0.000976562, -0.0654297, 0.265625, -9.79395, 1.10.2022 20:22:23.480
986, 1.62552, 0.124899, 153.318, -0.000976562, -0.00195312, 0, -0.00390625, 0.27832, -9.81543, 1.10.2022 20:22:23.488
987, 1.63232, 0.123285, 153.318, 0, 0, 0, -0.0214844, 0.265625, -9.77539, 1.10.2022 20:22:23.496
988, 1.63232, 0.123285, 153.318, 0.000976562, -0.000976562, 0, -0.0322266, 0.269531, -9.82227, 1.10.2022 20:22:23.504
989, 1.62545, 0.124804, 153.31, 0, -0.000976562, 0, 0.0449219, 0.22168, -9.77539, 1.10.2022 20:22:23.512
990, 1.62545, 0.124804, 153.31, 0, -0.000976562, 0, -0.0224609, 0.25, -9.83496, 1.10.2022 20:22:23.520
991, 1.62552, 0.124899, 153.318, 0, -0.000976562, -0.00195312, -0.0273438, 0.30957, -9.80762, 1.10.2022 20:22:23.528
992, 1.62552, 0.124899, 153.318, -0.000976562, -0.000976562, -0.000976562, 0.0136719, 0.27832, -9.80371, 1.10.2022 20:22:23.536
993, 1.62552, 0.124899, 153.318, -0.000976562, -0.000976562, 0.000976562, -0.0869141, 0.307617, -9.83203, 1.10.2022 20:22:23.544
994, 1.62545, 0.124804, 153.31, -0.000976562, 0, 0.000976562, -0.0126953, 0.291992, -9.78223, 1.10.2022 20:22:23.552
995, 1.62545, 0.124804, 153.31, 0, -0.000976562, 0.000976562, -0.015625, 0.242188, -9.81836, 1.10.2022 20:22:23.560
996, 1.62545, 0.124804, 153.31, 0, 0, 0, -0.0507812, 0.285156, -9.80078, 1.10.2022 20:22:23.568
997, 1.62545, 0.124804, 153.31, -0.000976562, 0, 0, -0.0136719, 0.279297, -9.83203, 1.10.2022 20:22:23.576
998, 1.62545, 0.124804, 153.31, -0.000976562, 0, 0, 0.00390625, 0.270508, -9.80176, 1.10.2022 20:22:23.584
999, 1.62545, 0.124804, 153.31, 0, -0.00195312, 0, -0.111328, 0.298828, -9.84863, 1.10.2022 20:22:23.592
1000, 1.62545, 0.124804, 153.31, 0, 0, 0, 0.0478516, 0.262695, -9.7627, 1.10.2022 20:22:23.600
1001, 1.62545, 0.124804, 153.31, 0, -0.000976562, 0, -0.0390625, 0.265625, -9.78418, 1.10.2022 20:22:23.608
1002, 1.62545, 0.124804, 153.31, -0.000976562, -0.00195312, 0, -0.0146484, 0.28418, -9.77051, 1.10.2022 20:22:23.616
1003, 1.62545, 0.124804, 153.31, -0.000976562, -0.000976562, -0.000976562, 0.0253906, 0.262695, -9.7832, 1.10.2022 20:22:23.624
1004, 1.62545, 0.124804, 153.31, -0.000976562, -0.000976562, 0, -0.0400391, 0.269531, -9.83398, 1.10.2022 20:22:23.632
1005, 1.62545, 0.124804, 153.31, -0.00195312, 0, 0.000976562, -0.0341797, 0.290039, -9.80957, 1.10.2022 20:22:23.640
1006, 1.62545, 0.124804, 153.31, -0.000976562, -0.000976562, 0, 0.0175781, 0.268555, -9.82129, 1.10.2022 20:22:23.648
1007, 1.62384, 0.117999, 153.31, 0, -0.000976562, -0.00195312, -0.0576172, 0.271484, -9.75391, 1.10.2022 20:22:23.656
1008, 1.62384, 0.117999, 153.31, 0, -0.00195312, -0.00195312, -0.0273438, 0.268555, -9.80566, 1.10.2022 20:22:23.664
1009, 1.62545, 0.124804, 153.31, 0, -0.00195312, -0.00195312, -0.0126953, 0.283203, -9.80859, 1.10.2022 20:22:23.672
1010, 1.62545, 0.124804, 153.31, 0, -0.000976562, 0, -0.0742188, 0.295898, -9.75684, 1.10.2022 20:22:23.680
1011, 1.62545, 0.124804, 153.31, 0, 0, 0, 0.0253906, 0.237305, -9.79102, 1.10.2022 20:22:23.688
1012, 1.62545, 0.124804, 153.31, 0, -0.00195312, 0.000976562, -0.0390625, 0.287109, -9.79395, 1.10.2022 20:22:23.696
1013, 1.62545, 0.124804, 153.31, 0, 0, -0.000976562, -0.0478516, 0.289062, -9.75977, 1.10.2022 20:22:23.704
1014, 1.62384, 0.117999, 153.31, 0, -0.000976562, 0, 0.0351562, 0.294922, -9.81055, 1.10.2022 20:22:23.712
1015, 1.62384, 0.117999, 153.31, 0, -0.000976562, 0, -0.0205078, 0.256836, -9.80859, 1.10.2022 20:22:23.720
1016, 1.62384, 0.117999, 153.31, -0.000976562, 0, -0.000976562, -0.0224609, 0.311523, -9.78809, 1.10.2022 20:22:23.728
1017, 1.6239, 0.118094, 153.318, 0, -0.000976562, 0, 0.0273438, 0.271484, -9.82324, 1.10.2022 20:22:23.736
1018, 1.6239, 0.118094, 153.318, -0.000976562, -0.000976562, 0, -0.0400391, 0.288086, -9.73438, 1.10.2022 20:22:23.744
1019, 1.6239, 0.118094, 153.318, -0.000976562, -0.00195312, 0, 0.00195312, 0.265625, -9.79199, 1.10.2022 20:22:23.752
1020, 1.62384, 0.117999, 153.31, -0.000976562, -0.00195312, 0.000976562, 0.0273438, 0.235352, -9.82422, 1.10.2022 20:22:23.760
1021, 1.62384, 0.117999, 153.31, 0, -0.00195312, 0, -0.0585938, 0.293945, -9.83984, 1.10.2022 20:22:23.768
1022, 1.62384, 0.117999, 153.31, 0, -0.000976562, -0.00195312, -0.00292969, 0.282227, -9.79199, 1.10.2022 20:22:23.776
1023, 1.6239, 0.118094, 153.318, -0.000976562, 0, -0.000976562, -0.0166016, 0.302734, -9.7627, 1.10.2022 20:22:23.784
1024, 1.6239, 0.118094, 153.318, 0, -0.000976562, 0, -0.0537109, 0.258789, -9.81055, 1.10.2022 20:22:23.792
1025, 1.6239, 0.118094, 153.318, -0.000976562, -0.000976562, -0.000976562, -0.0341797, 0.27832, -9.79883, 1.10.2022 20:22:23.800
1026, 1.6239, 0.118094, 153.318, -0.000976562, 0, 0, -0.0117188, 0.271484, -9.74902, 1.10.2022 20:22:23.808
1027, 1.6239, 0.118094, 153.318, -0.000976562, -0.000976562, 0, -0.0507812, 0.283203, -9.8125, 1.10.2022 20:22:23.816
1028, 1.6239, 0.118094, 153.318, -0.000976562, -0.000976562, -0.000976562, 0.0322266, 0.25293, -9.83789, 1.10.2022 20:22:23.824
1029, 1.62229, 0.111289, 153.318, -0.000976562, 0, -0.000976562, -0.0605469, 0.296875, -9.80469, 1.10.2022 20:22:23.832
1030, 1.62229, 0.111289, 153.318, 0, -0.000976562, 0, -0.0107422, 0.301758, -9.81055, 1.10.2022 20:22:23.840
1031, 1.62229, 0.111289, 153.318, 0, -0.000976562, 0, -0.0224609, 0.263672, -9.80664, 1.10.2022 20:22:23.848
1032, 1.62229, 0.111289, 153.318, 0, -0.000976562, 0, -0.0957031, 0.283203, -9.7998, 1.10.2022 20:22:23.856
1033, 1.62229, 0.111289, 153.318, 0, -0.000976562, 0, -0.00292969, 0.277344, -9.78223, 1.10.2022 20:22:23.864
1034, 1.62229, 0.111289, 153.318, -0.000976562, -0.00195312, 0, -0.0498047, 0.279297, -9.85742, 1.10.2022 20:22:23.872
1035, 1.6239, 0.118094, 153.318, 0, 0, -0.000976562, -0.0820312, 0.291992, -9.79004, 1.10.2022 20:22:23.880
1036, 1.6239, 0.118094, 153.318, -0.000976562, -0.000976562, 0, 0.0273438, 0.285156, -9.80859, 1.10.2022 20:22:23.888
1037, 1.6239, 0.118094, 153.318, 0, 0.000976562, 0, -0.03125, 0.244141, -9.78809, 1.10.2022 20:22:23.896
1038, 1.6239, 0.118094, 153.318, 0, -0.000976562, 0, -0.0722656, 0.273438, -9.80273, 1.10.2022 20:22:23.904
1039, 1.6239, 0.118094, 153.318, -0.000976562, -0.000976562, 0, 0.0371094, 0.237305, -9.79395, 1.10.2022 20:22:23.912
1040, 1.6239, 0.118094, 153.318, -0.000976562, -0.000976562, 0, -0.0634766, 0.264648, -9.84375, 1.10.2022 20:22:23.920
1041, 1.62552, 0.124899, 153.318, -0.000976562, -0.00195312, 0, -0.0507812, 0.310547, -9.77344, 1.10.2022 20:22:23.928
1042, 1.62552, 0.124899, 153.318, -0.000976562, -0.000976562, 0, 0.0341797, 0.276367, -9.82324, 1.10.2022 20:22:23.936
1043, 1.62552, 0.124899, 153.318, 0, -0.000976562, 0, -0.0722656, 0.268555, -9.80273, 1.10.2022 20:22:23.944
1044, 1.62552, 0.124899, 153.318, 0, -0.000976562, 0, -0.00878906, 0.263672, -9.81836, 1.10.2022 20:22:23.952
1045, 1.62552, 0.124899, 153.318, 0, 0.000976562, 0, 0.0302734, 0.249023, -9.7959, 1.10.2022 20:22:23.960
1046, 1.62552, 0.124899, 153.318, 0, -0.000976562, 0, -0.0683594, 0.288086, -9.83105, 1.10.2022 20:22:23.968
1047, 1.61871, 0.126512, 153.318, 0, 0, -0.000976562, 0.046875, 0.275391, -9.7998, 1.10.2022 20:22:23.976
1048, 1.61871, 0.126512, 153.318, 0, -0.000976562, 0, 0.00585938, 0.292969, -9.82031, 1.10.2022 20:22:23.984
1049, 1.61871, 0.126512, 153.318, 0, -0.000976562, 0, -0.0507812, 0.288086, -9.80469, 1.10.2022 20:22:23.992
1050, 1.61871, 0.126512, 153.318, 0, -0.000976562, 0, 0.0253906, 0.275391, -9.78516, 1.10.2022 20:22:24.000
1051, 1.61871, 0.126512, 153.318, -0.000976562, -0.00195312, 0, -0.0390625, 0.285156, -9.79395, 1.10.2022 20:22:24.008
1052, 1.61871, 0.126512, 153.318, 0, -0.000976562, 0, -0.0126953, 0.289062, -9.78711, 1.10.2022 20:22:24.016
1053, 1.61865, 0.126418, 153.31, 0, -0.000976562, 0, 0.0605469, 0.27832, -9.81152, 1.10.2022 20:22:24.024
1054, 1.61871, 0.126512, 153.318, 0, 0, -0.000976562, -0.0400391, 0.272461, -9.86426, 1.10.2022 20:22:24.032
