Seq, Rot x, Rot y, Rot z, Vel x, Vel y, Vel z, Acc x, Acc y, Acc z, Time(m.d.y h:m:s.ms)
0, 1.89595, 0.0957414, 216.108, -0.000976562, -0.000976562, -0.00195312, 0.0214844, 0.319336, -9.74414, 1.12.2022 20:49:44.868
1, 1.89595, 0.0957414, 216.108, -0.000976562, -0.000976562, -0.000976562, -0.0224609, 0.336914, -9.68652, 1.12.2022 20:49:44.874
2, 1.89595, 0.0957414, 216.108, -0.000976562, -0.000976562, 0, -0.03125, 0.327148, -9.77148, 1.12.2022 20:49:44.882
3, 1.89595, 0.0957414, 216.108, -0.000976562, -0.000976562, 0, -0.00292969, 0.280273, -9.80566, 1.12.2022 20:49:44.890
4, 1.89595, 0.0957414, 216.108, 0, 0, 0, -0.0644531, 0.297852, -9.7334, 1.12.2022 20:49:44.898
5, 1.89595, 0.0957414, 216.108, 0, 0, -0.000976562, 0.0361328, 0.324219, -9.74609, 1.12.2022 20:49:44.906
6, 1.89595, 0.0957414, 216.108, -0.000976562, 0, -0.000976562, -0.0458984, 0.298828, -9.78613, 1.12.2022 20:49:44.914
7, 1.89595, 0.0957414, 216.108, -0.000976562, -0.000976562, 0, -0.0507812, 0.342773, -9.79395, 1.12.2022 20:49:44.922
8, 1.89595, 0.0957414, 216.108, -0.000976562, -0.000976562, 0, 0.0380859, 0.333984, -9.75586, 1.12.2022 20:49:44.930
9, 1.89595, 0.0957414, 216.108, -0.00195312, 0, 0.000976562, -0.0615234, 0.307617, -9.73828, 1.12.2022 20:49:44.938
10, 1.89595, 0.0957414, 216.108, -0.00195312, -0.000976562, 0, -0.0244141, 0.322266, -9.76953, 1.12.2022 20:49:44.946
11, 1.89595, 0.0957414, 216.108, -0.000976562, -0.000976562, -0.000976562, 0.0488281, 0.306641, -9.80664, 1.12.2022 20:49:44.954
12, 1.89595, 0.0957414, 216.108, -0.000976562, -0.000976562, -0.00195312, -0.0410156, 0.336914, -9.77344, 1.12.2022 20:49:44.962
13, 1.89595, 0.0957414, 216.108, -0.000976562, 0, -0.000976562, 0.0234375, 0.327148, -9.78125, 1.12.2022 20:49:44.970
14, 1.89595, 0.0957414, 216.108, -0.00195312, 0, 0, -0.0117188, 0.307617, -9.76758, 1.12.2022 20:49:44.978
15, 1.89595, 0.0957414, 216.108, -0.000976562, 0.000976562, 0, -0.0732422, 0.324219, -9.74512, 1.12.2022 20:49:44.986
16, 1.89811, 0.0890922, 216.109, 0, 0.000976562, -0.000976562, 0.0478516, 0.337891, -9.72754, 1.12.2022 20:49:44.994
17, 1.89811, 0.0890922, 216.109, -0.000976562, -0.000976562, -0.000976562, -0.0410156, 0.332031, -9.77832, 1.12.2022 20:49:45.002
18, 1.89811, 0.0890922, 216.109, 0, -0.000976562, 0, -0.0488281, 0.34082, -9.81348, 1.12.2022 20:49:45.010
19, 1.89811, 0.0890922, 216.109, -0.000976562, 0, 0, 0.00195312, 0.351562, -9.76855, 1.12.2022 20:49:45.018
20, 1.89811, 0.0890922, 216.109, -0.000976562, 0, 0, -0.0654297, 0.374023, -9.7959, 1.12.2022 20:49:45.026
21, 1.89811, 0.0890922, 216.109, -0.000976562, 0, 0, 0.0185547, 0.351562, -9.77637, 1.12.2022 20:49:45.034
22, 1.89823, 0.0889803, 216.101, -0.000976562, 0, 0, 0.00488281, 0.288086, -9.75195, 1.12.2022 20:49:45.042
23, 1.89823, 0.0889803, 216.101, 0, -0.000976562, -0.000976562, -0.100586, 0.344727, -9.77637, 1.12.2022 20:49:45.050
24, 1.89811, 0.0890922, 216.109, 0, -0.000976562, -0.000976562, 0.0527344, 0.30957, -9.72852, 1.12.2022 20:49:45.058
25, 1.89811, 0.0890922, 216.109, -0.000976562, -0.000976562, -0.000976562, -0.0507812, 0.34668, -9.77246, 1.12.2022 20:49:45.066
26, 1.89811, 0.0890922, 216.109, -0.000976562, -0.000976562, 0, -0.0253906, 0.344727, -9.7002, 1.12.2022 20:49:45.074
27, 1.89823, 0.0889803, 216.101, -0.000976562, 0, 0, 0.00683594, 0.329102, -9.74805, 1.12.2022 20:49:45.082
28, 1.90487, 0.0911472, 216.101, 0, -0.000976562, 0, -0.0166016, 0.307617, -9.75098, 1.12.2022 20:49:45.090
29, 1.90487, 0.0911472, 216.101, -0.000976562, -0.000976562, -0.000976562, 0.00683594, 0.332031, -9.76953, 1.12.2022 20:49:45.098
30, 1.90487, 0.0911472, 216.101, -0.000976562, 0, -0.000976562, 0.00488281, 0.332031, -9.76465, 1.12.2022 20:49:45.106
31, 1.90487, 0.0911472, 216.101, -0.000976562, -0.000976562, -0.000976562, -0.0732422, 0.365234, -9.74805, 1.12.2022 20:49:45.114
32, 1.90487, 0.0911472, 216.101, -0.000976562, -0.000976562, -0.000976562, 0.0556641, 0.306641, -9.7334, 1.12.2022 20:49:45.122
33, 1.90487, 0.0911472, 216.101, -0.00195312, -0.000976562, 0, -0.0126953, 0.354492, -9.80859, 1.12.2022 20:49:45.130
34, 1.91152, 0.0933141, 216.101, -0.000976562, 0, 0, -0.0332031, 0.321289, -9.7334, 1.12.2022 20:49:45.138
35, 1.91152, 0.0933141, 216.101, 0, -0.000976562, -0.000976562, 0.00878906, 0.306641, -9.7959, 1.12.2022 20:49:45.146
36, 1.91152, 0.0933141, 216.101, -0.000976562, 0, -0.000976562, -0.0585938, 0.308594, -9.70996, 1.12.2022 20:49:45.154
37, 1.91152, 0.0933141, 216.101, -0.000976562, -0.000976562, -0.000976562, -0.0185547, 0.297852, -9.74609, 1.12.2022 20:49:45.162
38, 1.91152, 0.0933141, 216.101, -0.000976562, -0.000976562, -0.000976562, 0.00683594, 0.300781, -9.75586, 1.12.2022 20:49:45.170
39, 1.91152, 0.0933141, 216.101, -0.000976562, 0, 0, -0.0576172, 0.333008, -9.80566, 1.12.2022 20:49:45.178
40, 1.91152, 0.0933141, 216.101, -0.000976562, 0, -0.000976562, 0.0498047, 0.304688, -9.74707, 1.12.2022 20:49:45.186
41, 1.91152, 0.0933141, 216.101, -0.000976562, -0.000976562, 0, -0.0224609, 0.337891, -9.79004, 1.12.2022 20:49:45.194
42, 1.91152, 0.0933141, 216.101, 0.000976562, -0.000976562, 0, -0.0351562, 0.356445, -9.71582, 1.12.2022 20:49:45.202
43, 1.91152, 0.0933141, 216.101, -0.000976562, 0, -0.000976562, -0.0117188, 0.324219, -9.75, 1.12.2022 20:49:45.210
44, 1.91152, 0.0933141, 216.101, -0.000976562, 0, 0, -0.0732422, 0.331055, -9.7207, 1.12.2022 20:49:45.218
45, 1.91152, 0.0933141, 216.101, -0.000976562, 0, 0, -0.046875, 0.324219, -9.73828, 1.12.2022 20:49:45.226
46, 1.91152, 0.0933141, 216.101, -0.000976562, 0, 0, -0.00683594, 0.291016, -9.74414, 1.12.2022 20:49:45.234
47, 1.91152, 0.0933141, 216.101, 0.000976562, -0.000976562, -0.000976562, -0.103516, 0.320312, -9.7041, 1.12.2022 20:49:45.242
48, 1.91152, 0.0933141, 216.101, -0.000976562, 0, -0.00195312, 0.0429688, 0.319336, -9.74707, 1.12.2022 20:49:45.250
49, 1.9114, 0.0934268, 216.109, -0.000976562, -0.000976562, -0.000976562, -0.0361328, 0.330078, -9.79199, 1.12.2022 20:49:45.258
50, 1.9114, 0.0934268, 216.109, 0.000976562, -0.000976562, 0, -0.0380859, 0.333984, -9.74707, 1.12.2022 20:49:45.266
51, 1.9114, 0.0934268, 216.109, -0.000976562, -0.000976562, 0, 0.0400391, 0.3125, -9.76074, 1.12.2022 20:49:45.274
52, 1.90935, 0.0999633, 216.101, -0.000976562, 0, 0, -0.0615234, 0.297852, -9.74121, 1.12.2022 20:49:45.282
53, 1.90935, 0.0999633, 216.101, -0.000976562, 0, 0, -0.0517578, 0.306641, -9.71289, 1.12.2022 20:49:45.290
54, 1.90935, 0.0999633, 216.101, 0.000976562, 0, -0.000976562, 0.0185547, 0.3125, -9.75781, 1.12.2022 20:49:45.298
55, 1.90935, 0.0999633, 216.101, -0.000976562, -0.000976562, -0.000976562, -0.0517578, 0.352539, -9.74414, 1.12.2022 20:49:45.306
56, 1.90924, 0.100076, 216.109, -0.000976562, -0.000976562, -0.000976562, 0.0341797, 0.30957, -9.73242, 1.12.2022 20:49:45.314
57, 1.90924, 0.100076, 216.109, -0.000976562, -0.000976562, -0.000976562, -0.0234375, 0.333008, -9.72852, 1.12.2022 20:49:45.322
58, 1.90707, 0.106725, 216.108, -0.000976562, 0, 0, -0.0566406, 0.350586, -9.74219, 1.12.2022 20:49:45.330
59, 1.90707, 0.106725, 216.108, -0.000976562, 0, -0.000976562, 0.0673828, 0.304688, -9.74316, 1.12.2022 20:49:45.338
60, 1.90707, 0.106725, 216.108, -0.000976562, 0, 0, -0.046875, 0.297852, -9.83301, 1.12.2022 20:49:45.346
61, 1.90707, 0.106725, 216.108, -0.000976562, 0, -0.000976562, -0.0283203, 0.324219, -9.73828, 1.12.2022 20:49:45.354
62, 1.90707, 0.106725, 216.108, -0.000976562, 0, -0.000976562, -0.0107422, 0.328125, -9.70508, 1.12.2022 20:49:45.362
63, 1.90043, 0.104558, 216.108, 0.000976562, 0, -0.000976562, -0.0615234, 0.345703, -9.73438, 1.12.2022 20:49:45.370
64, 1.90043, 0.104558, 216.108, 0.000976562, -0.000976562, 0, 0.0146484, 0.348633, -9.75684, 1.12.2022 20:49:45.378
65, 1.90043, 0.104558, 216.108, 0.000976562, -0.000976562, 0, -0.0224609, 0.334961, -9.79492, 1.12.2022 20:49:45.386
66, 1.90043, 0.104558, 216.108, 0.000976562, 0, 0.000976562, -0.0439453, 0.311523, -9.79004, 1.12.2022 20:49:45.394
67, 1.90054, 0.104446, 216.1, 0.000976562, 0.000976562, 0, 0.0146484, 0.294922, -9.71387, 1.12.2022 20:49:45.402
68, 1.90054, 0.104446, 216.1, 0.000976562, 0, 0, -0.0908203, 0.324219, -9.74414, 1.12.2022 20:49:45.410
69, 1.90054, 0.104446, 216.1, -0.000976562, 0.000976562, -0.000976562, -0.0322266, 0.356445, -9.6875, 1.12.2022 20:49:45.418
70, 1.90054, 0.104446, 216.1, -0.000976562, -0.000976562, -0.000976562, -0.00976562, 0.353516, -9.75684, 1.12.2022 20:49:45.426
71, 1.90054, 0.104446, 216.1, 0, -0.000976562, 0, -0.0615234, 0.333984, -9.74707, 1.12.2022 20:49:45.434
72, 1.89838, 0.111095, 216.1, -0.000976562, -0.00195312, -0.000976562, 0.0263672, 0.305664, -9.77539, 1.12.2022 20:49:45.442
73, 1.89826, 0.111207, 216.108, -0.000976562, -0.00195312, -0.000976562, 0.0419922, 0.280273, -9.79688, 1.12.2022 20:49:45.450
74, 1.89826, 0.111207, 216.108, -0.000976562, 0, -0.00195312, -0.0595703, 0.341797, -9.86719, 1.12.2022 20:49:45.458
75, 1.89826, 0.111207, 216.108, -0.00195312, 0, -0.00195312, 0.0400391, 0.308594, -9.79395, 1.12.2022 20:49:45.466
76, 1.90491, 0.113374, 216.108, -0.00195312, 0, -0.000976562, -0.0605469, 0.354492, -9.79102, 1.12.2022 20:49:45.474
77, 1.90491, 0.113374, 216.108, -0.00195312, 0.000976562, 0, -0.015625, 0.316406, -9.71484, 1.12.2022 20:49:45.482
78, 1.90491, 0.113374, 216.108, -0.000976562, -0.000976562, 0, -0.0117188, 0.322266, -9.76953, 1.12.2022 20:49:45.488
79, 1.90491, 0.113374, 216.108, -0.00195312, 0.000976562, 0, -0.0166016, 0.299805, -9.73633, 1.12.2022 20:49:45.496
80, 1.90491, 0.113374, 216.108, -0.000976562, -0.000976562, -0.000976562, -0.0380859, 0.341797, -9.78027, 1.12.2022 20:49:45.504
81, 1.90491, 0.113374, 216.108, 0, -0.000976562, -0.000976562, -0.0244141, 0.328125, -9.7832, 1.12.2022 20:49:45.512
82, 1.90491, 0.113374, 216.108, 0, -0.000976562, -0.000976562, -0.0644531, 0.417969, -9.77246, 1.12.2022 20:49:45.520
83, 1.90491, 0.113374, 216.108, 0, 0, 0, 0.0283203, 0.332031, -9.78613, 1.12.2022 20:49:45.528
84, 1.90491, 0.113374, 216.108, 0, 0, 0, -0.0595703, 0.31543, -9.77148, 1.12.2022 20:49:45.536
85, 1.90491, 0.113374, 216.108, -0.000976562, 0, 0, -0.00683594, 0.30957, -9.72949, 1.12.2022 20:49:45.544
86, 1.90491, 0.113374, 216.108, 0, 0.000976562, -0.000976562, 0.0654297, 0.303711, -9.7168, 1.12.2022 20:49:45.552
87, 1.90491, 0.113374, 216.108, 0, -0.000976562, -0.000976562, -0.0664062, 0.370117, -9.76465, 1.12.2022 20:49:45.560
88, 1.90491, 0.113374, 216.108, 0, -0.000976562, 0, 0.0390625, 0.365234, -9.69336, 1.12.2022 20:49:45.568
89, 1.90491, 0.113374, 216.108, -0.000976562, -0.000976562, 0, 0.0351562, 0.311523, -9.81738, 1.12.2022 20:49:45.576
90, 1.90491, 0.113374, 216.108, -0.000976562, -0.000976562, 0.000976562, -0.0449219, 0.238281, -9.8418, 1.12.2022 20:49:45.584
91, 1.90491, 0.113374, 216.108, -0.000976562, -0.000976562, 0, 0.0546875, 0.261719, -9.74805, 1.12.2022 20:49:45.592
92, 1.90491, 0.113374, 216.108, -0.000976562, 0, -0.00195312, -0.00683594, 0.304688, -9.75098, 1.12.2022 20:49:45.600
93, 1.90707, 0.106725, 216.108, -0.000976562, 0.000976562, -0.00195312, -0.0380859, 0.34668, -9.77734, 1.12.2022 20:49:45.608
94, 1.90707, 0.106725, 216.108, -0.00195312, 0, -0.000976562, -0.00976562, 0.350586, -9.76367, 1.12.2022 20:49:45.616
95, 1.90707, 0.106725, 216.108, -0.00292969, -0.000976562, 0.000976562, -0.121094, 0.365234, -9.73535, 1.12.2022 20:49:45.624
96, 1.90707, 0.106725, 216.108, -0.00195312, -0.000976562, 0.000976562, -0.0449219, 0.3125, -9.74121, 1.12.2022 20:49:45.632
97, 1.90707, 0.106725, 216.108, -0.00195312, -0.000976562, 0, -0.00878906, 0.292969, -9.73438, 1.12.2022 20:49:45.640
98, 1.90707, 0.106725, 216.108, -0.000976562, -0.000976562, -0.00195312, -0.0791016, 0.373047, -9.77148, 1.12.2022 20:49:45.648
99, 1.90707, 0.106725, 216.108, -0.000976562, 0, -0.00292969, 0.0175781, 0.357422, -9.82812, 1.12.2022 20:49:45.656
100, 1.9074, 0.106755, 216.107, 0, 0.000976562, -0.00195312, -0.0429688, 0.370117, -9.75586, 1.12.2022 20:49:45.664
101, 1.9074, 0.106755, 216.107, 0.000976562, 0.000976562, -0.000976562, -0.0751953, 0.339844, -9.71777, 1.12.2022 20:49:45.672
102, 1.9074, 0.106755, 216.107, 0.000976562, 0.000976562, 0.000976562, -0.0185547, 0.260742, -9.7002, 1.12.2022 20:49:45.680
103, 1.90707, 0.106725, 216.108, 0, 0.000976562, 0, -0.0859375, 0.271484, -9.74609, 1.12.2022 20:49:45.688
104, 1.90707, 0.106725, 216.108, 0, 0, -0.000976562, -0.0361328, 0.288086, -9.75098, 1.12.2022 20:49:45.696
105, 1.9074, 0.106755, 216.107, -0.000976562, -0.000976562, -0.00195312, -0.0146484, 0.31543, -9.7832, 1.12.2022 20:49:45.704
106, 1.9074, 0.106755, 216.107, -0.00195312, 0, -0.000976562, -0.0380859, 0.320312, -9.77148, 1.12.2022 20:49:45.712
107, 1.91188, 0.115571, 216.107, -0.00195312, -0.000976562, 0.000976562, 0.0693359, 0.329102, -9.76562, 1.12.2022 20:49:45.720
108, 1.91155, 0.115542, 216.108, -0.00292969, -0.000976562, 0.000976562, -0.0244141, 0.320312, -9.77832, 1.12.2022 20:49:45.728
109, 1.91155, 0.115542, 216.108, -0.00292969, 0, 0, -0.0390625, 0.334961, -9.79688, 1.12.2022 20:49:45.736
110, 1.91155, 0.115542, 216.108, -0.00195312, 0.000976562, -0.000976562, 0.0419922, 0.294922, -9.80664, 1.12.2022 20:49:45.744
111, 1.91155, 0.115542, 216.108, -0.00195312, 0, -0.000976562, -0.0429688, 0.379883, -9.75977, 1.12.2022 20:49:45.752
112, 1.91155, 0.115542, 216.108, -0.000976562, 0, -0.000976562, -0.0576172, 0.361328, -9.79102, 1.12.2022 20:49:45.760
113, 1.91155, 0.115542, 216.108, 0, 0, 0, -0.0205078, 0.320312, -9.69336, 1.12.2022 20:49:45.768
114, 1.91155, 0.115542, 216.108, -0.000976562, 0, 0, -0.0517578, 0.313477, -9.71484, 1.12.2022 20:49:45.776
115, 1.90938, 0.122191, 216.108, -0.000976562, -0.000976562, 0, 0.0341797, 0.273438, -9.72656, 1.12.2022 20:49:45.784
116, 1.90938, 0.122191, 216.108, -0.000976562, -0.000976562, -0.000976562, 0.00292969, 0.325195, -9.71484, 1.12.2022 20:49:45.792
117, 1.90938, 0.122191, 216.108, -0.000976562, -0.000976562, -0.00195312, -0.0263672, 0.363281, -9.76562, 1.12.2022 20:49:45.800
118, 1.90938, 0.122191, 216.108, -0.00195312, -0.000976562, -0.000976562, 0.0849609, 0.308594, -9.79688, 1.12.2022 20:49:45.808
119, 1.90938, 0.122191, 216.108, -0.000976562, -0.000976562, -0.000976562, -0.0107422, 0.317383, -9.83789, 1.12.2022 20:49:45.816
120, 1.90938, 0.122191, 216.108, -0.00292969, 0, 0, 0.0283203, 0.339844, -9.7998, 1.12.2022 20:49:45.824
121, 1.90938, 0.122191, 216.108, -0.00195312, 0, 0, 0.0292969, 0.3125, -9.83398, 1.12.2022 20:49:45.832
122, 1.91155, 0.115542, 216.108, -0.00195312, 0, -0.000976562, -0.0722656, 0.363281, -9.68945, 1.12.2022 20:49:45.840
123, 1.91155, 0.115542, 216.108, -0.00195312, 0.000976562, -0.000976562, 0.00195312, 0.348633, -9.76855, 1.12.2022 20:49:45.848
124, 1.91155, 0.115542, 216.108, -0.000976562, 0, -0.000976562, -0.0322266, 0.306641, -9.71484, 1.12.2022 20:49:45.856
125, 1.91155, 0.115542, 216.108, 0, -0.000976562, -0.000976562, -0.0644531, 0.331055, -9.74707, 1.12.2022 20:49:45.864
126, 1.90491, 0.113374, 216.108, 0, -0.00195312, 0, 0.0214844, 0.297852, -9.74707, 1.12.2022 20:49:45.872
127, 1.90491, 0.113374, 216.108, 0.00195312, -0.000976562, 0, -0.0595703, 0.317383, -9.75879, 1.12.2022 20:49:45.880
128, 1.90707, 0.106725, 216.108, 0.00195312, -0.000976562, -0.000976562, -0.0185547, 0.329102, -9.73633, 1.12.2022 20:49:45.888
129, 1.90707, 0.106725, 216.108, 0, -0.000976562, -0.000976562, 0.0185547, 0.320312, -9.79395, 1.12.2022 20:49:45.896
130, 1.90707, 0.106725, 216.108, -0.000976562, 0.000976562, -0.000976562, -0.0507812, 0.341797, -9.78711, 1.12.2022 20:49:45.904
131, 1.90707, 0.106725, 216.108, -0.00195312, 0, 0, -0.0078125, 0.282227, -9.77734, 1.12.2022 20:49:45.912
132, 1.90707, 0.106725, 216.108, -0.00195312, 0, 0, 0.0117188, 0.257812, -9.76172, 1.12.2022 20:49:45.920
133, 1.90707, 0.106725, 216.108, -0.00195312, 0, 0, -0.0478516, 0.310547, -9.75488, 1.12.2022 20:49:45.928
134, 1.90707, 0.106725, 216.108, -0.000976562, 0, -0.000976562, 0.0117188, 0.319336, -9.75098, 1.12.2022 20:49:45.936
135, 1.90707, 0.106725, 216.108, -0.000976562, 0, -0.000976562, -0.0703125, 0.375977, -9.71484, 1.12.2022 20:49:45.944
136, 1.90924, 0.100076, 216.109, -0.000976562, -0.000976562, 0, -0.0498047, 0.40918, -9.77344, 1.12.2022 20:49:45.952
137, 1.90259, 0.0979087, 216.108, 0.000976562, 0, -0.000976562, 0.0214844, 0.333984, -9.74805, 1.12.2022 20:49:45.960
138, 1.90259, 0.0979087, 216.108, 0.000976562, 0, 0, -0.0791016, 0.353516, -9.76465, 1.12.2022 20:49:45.968
139, 1.90259, 0.0979087, 216.108, 0.00195312, 0.000976562, -0.000976562, 0.00683594, 0.3125, -9.76074, 1.12.2022 20:49:45.976
140, 1.90259, 0.0979087, 216.108, 0.000976562, 0, 0, 0.00878906, 0.294922, -9.80859, 1.12.2022 20:49:45.984
141, 1.90259, 0.0979087, 216.108, 0.000976562, 0, -0.000976562, -0.0498047, 0.30957, -9.73828, 1.12.2022 20:49:45.992
142, 1.90259, 0.0979087, 216.108, 0.000976562, 0, -0.000976562, 0.0498047, 0.302734, -9.75, 1.12.2022 20:49:46.000
143, 1.90259, 0.0979087, 216.108, 0, -0.000976562, 0, -0.0693359, 0.307617, -9.75977, 1.12.2022 20:49:46.008
144, 1.90043, 0.104558, 216.108, -0.000976562, 0, 0, -0.0322266, 0.311523, -9.71289, 1.12.2022 20:49:46.016
145, 1.90043, 0.104558, 216.108, -0.000976562, -0.00195312, 0.000976562, -0.0078125, 0.313477, -9.77441, 1.12.2022 20:49:46.024
146, 1.90043, 0.104558, 216.108, -0.00195312, -0.000976562, 0, -0.0664062, 0.314453, -9.75, 1.12.2022 20:49:46.032
147, 1.90043, 0.104558, 216.108, -0.000976562, -0.00195312, -0.000976562, 0.00683594, 0.361328, -9.79004, 1.12.2022 20:49:46.040
148, 1.90043, 0.104558, 216.108, 0, -0.000976562, -0.000976562, -0.00683594, 0.362305, -9.74707, 1.12.2022 20:49:46.048
149, 1.90043, 0.104558, 216.108, 0, -0.000976562, 0, -0.0380859, 0.386719, -9.76953, 1.12.2022 20:49:46.056
150, 1.90043, 0.104558, 216.108, 0.00195312, 0, 0, 0.0751953, 0.291992, -9.79492, 1.12.2022 20:49:46.064
151, 1.90054, 0.104446, 216.1, 0.00195312, 0, 0, -0.0410156, 0.325195, -9.78027, 1.12.2022 20:49:46.072
152, 1.90054, 0.104446, 216.1, 0.00195312, 0, 0, -0.00878906, 0.294922, -9.7373, 1.12.2022 20:49:46.080
153, 1.90054, 0.104446, 216.1, 0.000976562, -0.000976562, 0, -0.0166016, 0.274414, -9.75684, 1.12.2022 20:49:46.088
154, 1.90054, 0.104446, 216.1, 0.000976562, -0.000976562, 0, -0.0664062, 0.324219, -9.74219, 1.12.2022 20:49:46.096
155, 1.90054, 0.104446, 216.1, 0, -0.000976562, -0.000976562, 0.00878906, 0.342773, -9.79785, 1.12.2022 20:49:46.104
156, 1.90054, 0.104446, 216.1, 0, -0.000976562, 0, -0.0117188, 0.319336, -9.74316, 1.12.2022 20:49:46.112
157, 1.90054, 0.104446, 216.1, 0, -0.000976562, 0, -0.0507812, 0.334961, -9.77539, 1.12.2022 20:49:46.120
158, 1.90054, 0.104446, 216.1, -0.000976562, 0, 0, 0, 0.320312, -9.7793, 1.12.2022 20:49:46.128
159, 1.90054, 0.104446, 216.1, -0.000976562, 0.000976562, 0, -0.0429688, 0.341797, -9.77734, 1.12.2022 20:49:46.136
160, 1.90054, 0.104446, 216.1, 0, 0.000976562, -0.000976562, -0.0341797, 0.332031, -9.78027, 1.12.2022 20:49:46.144
161, 1.90054, 0.104446, 216.1, 0.000976562, 0.000976562, -0.000976562, 0.0117188, 0.322266, -9.75098, 1.12.2022 20:49:46.152
162, 1.90054, 0.104446, 216.1, 0.000976562, 0.000976562, 0, -0.107422, 0.357422, -9.74512, 1.12.2022 20:49:46.160
163, 1.90054, 0.104446, 216.1, 0, -0.000976562, 0, 0.00488281, 0.317383, -9.77441, 1.12.2022 20:49:46.168
164, 1.90054, 0.104446, 216.1, 0.000976562, -0.000976562, 0.000976562, -0.000976562, 0.333008, -9.79004, 1.12.2022 20:49:46.176
165, 1.89838, 0.111095, 216.1, 0.000976562, -0.000976562, 0.000976562, -0.0791016, 0.293945, -9.76465, 1.12.2022 20:49:46.184
166, 1.89838, 0.111095, 216.1, 0, -0.000976562, 0, 0.0429688, 0.27832, -9.75293, 1.12.2022 20:49:46.192
167, 1.89838, 0.111095, 216.1, 0, 0.000976562, -0.000976562, 0.00683594, 0.307617, -9.75391, 1.12.2022 20:49:46.200
168, 1.89838, 0.111095, 216.1, 0, 0, -0.000976562, -0.00878906, 0.367188, -9.74219, 1.12.2022 20:49:46.208
169, 1.89838, 0.111095, 216.1, -0.000976562, 0, -0.000976562, 0.015625, 0.339844, -9.7998, 1.12.2022 20:49:46.216
170, 1.89838, 0.111095, 216.1, -0.000976562, 0.000976562, 0, -0.0830078, 0.34082, -9.74609, 1.12.2022 20:49:46.224
171, 1.89838, 0.111095, 216.1, -0.000976562, -0.00195312, 0.000976562, -0.0263672, 0.349609, -9.78711, 1.12.2022 20:49:46.232
172, 1.89838, 0.111095, 216.1, -0.000976562, -0.000976562, 0.000976562, 0.0234375, 0.287109, -9.77832, 1.12.2022 20:49:46.240
173, 1.89838, 0.111095, 216.1, -0.000976562, -0.000976562, -0.000976562, -0.0644531, 0.366211, -9.7793, 1.12.2022 20:49:46.248
174, 1.89838, 0.111095, 216.1, 0, 0, -0.00195312, 0.0527344, 0.331055, -9.73438, 1.12.2022 20:49:46.256
175, 1.89838, 0.111095, 216.1, 0, -0.000976562, -0.00195312, -0.0166016, 0.333984, -9.76465, 1.12.2022 20:49:46.264
176, 1.89838, 0.111095, 216.1, 0, 0, 0, -0.0166016, 0.370117, -9.75391, 1.12.2022 20:49:46.272
177, 1.89838, 0.111095, 216.1, 0, -0.000976562, 0, 0.0214844, 0.288086, -9.74219, 1.12.2022 20:49:46.280
178, 1.89838, 0.111095, 216.1, -0.000976562, 0, 0.000976562, -0.0332031, 0.292969, -9.74609, 1.12.2022 20:49:46.288
179, 1.90054, 0.104446, 216.1, -0.000976562, -0.000976562, 0, 0.015625, 0.293945, -9.79199, 1.12.2022 20:49:46.296
180, 1.90054, 0.104446, 216.1, -0.00195312, 0, -0.000976562, 0.00390625, 0.332031, -9.78125, 1.12.2022 20:49:46.304
181, 1.90054, 0.104446, 216.1, -0.00195312, -0.000976562, -0.000976562, -0.0976562, 0.374023, -9.7334, 1.12.2022 20:49:46.312
182, 1.90719, 0.106612, 216.1, -0.00195312, -0.000976562, 0, -0.0136719, 0.333008, -9.73145, 1.12.2022 20:49:46.320
183, 1.90719, 0.106612, 216.1, -0.000976562, -0.000976562, 0, -0.0185547, 0.347656, -9.73047, 1.12.2022 20:49:46.328
184, 1.90719, 0.106612, 216.1, 0, 0, 0, -0.0380859, 0.329102, -9.75879, 1.12.2022 20:49:46.336
185, 1.90719, 0.106612, 216.1, 0, 0, -0.000976562, 0.0146484, 0.322266, -9.74805, 1.12.2022 20:49:46.344
186, 1.90719, 0.106612, 216.1, 0, -0.000976562, -0.000976562, -0.0410156, 0.333008, -9.79492, 1.12.2022 20:49:46.352
187, 1.90719, 0.106612, 216.1, 0, 0, -0.000976562, 0.0214844, 0.363281, -9.78027, 1.12.2022 20:49:46.360
188, 1.90719, 0.106612, 216.1, 0, 0, -0.000976562, -0.00488281, 0.324219, -9.75781, 1.12.2022 20:49:46.368
189, 1.90935, 0.0999633, 216.101, 0, 0, 0, -0.0742188, 0.319336, -9.74707, 1.12.2022 20:49:46.376
190, 1.90935, 0.0999633, 216.101, -0.000976562, -0.000976562, 0, 0.0566406, 0.28125, -9.76953, 1.12.2022 20:49:46.384
191, 1.90935, 0.0999633, 216.101, 0, -0.000976562, 0, -0.00683594, 0.299805, -9.72949, 1.12.2022 20:49:46.392
192, 1.90935, 0.0999633, 216.101, -0.000976562, 0, 0, -0.03125, 0.31543, -9.77832, 1.12.2022 20:49:46.400
193, 1.90935, 0.0999633, 216.101, -0.00195312, -0.00195312, -0.000976562, 0.0175781, 0.310547, -9.84375, 1.12.2022 20:49:46.408
194, 1.90935, 0.0999633, 216.101, -0.00195312, -0.000976562, -0.000976562, -0.0615234, 0.365234, -9.75293, 1.12.2022 20:49:46.416
195, 1.916, 0.10213, 216.101, -0.00195312, -0.000976562, 0, -0.0146484, 0.351562, -9.79004, 1.12.2022 20:49:46.424
196, 1.916, 0.10213, 216.101, -0.000976562, 0, 0, 0.0185547, 0.334961, -9.7832, 1.12.2022 20:49:46.432
197, 1.916, 0.10213, 216.101, -0.000976562, -0.000976562, 0, -0.0615234, 0.358398, -9.76074, 1.12.2022 20:49:46.440
198, 1.916, 0.10213, 216.101, 0, 0, 0, 0.0117188, 0.314453, -9.74902, 1.12.2022 20:49:46.448
199, 1.916, 0.10213, 216.101, 0, 0, -0.000976562, -0.0380859, 0.305664, -9.76465, 1.12.2022 20:49:46.454
200, 1.91816, 0.095481, 216.101, 0, 0.000976562, -0.000976562, -0.0322266, 0.328125, -9.7002, 1.12.2022 20:49:46.462
201, 1.91816, 0.095481, 216.101, 0, 0, -0.000976562, -0.00976562, 0.295898, -9.75781, 1.12.2022 20:49:46.470
202, 1.91816, 0.095481, 216.101, 0, 0, 0, -0.0498047, 0.325195, -9.76367, 1.12.2022 20:49:46.478
203, 1.91816, 0.095481, 216.101, -0.000976562, -0.00195312, 0, -0.0322266, 0.34082, -9.82324, 1.12.2022 20:49:46.486
204, 1.91816, 0.095481, 216.101, -0.000976562, -0.000976562, 0, 0.0234375, 0.302734, -9.76855, 1.12.2022 20:49:46.494
205, 1.91816, 0.095481, 216.101, -0.000976562, -0.000976562, -0.000976562, -0.0791016, 0.333008, -9.78418, 1.12.2022 20:49:46.502
206, 1.91816, 0.095481, 216.101, -0.000976562, 0.000976562, -0.00195312, 0.0244141, 0.291992, -9.70703, 1.12.2022 20:49:46.510
207, 1.91805, 0.0955941, 216.109, 0, 0, -0.000976562, -0.00195312, 0.302734, -9.75586, 1.12.2022 20:49:46.518
208, 1.9114, 0.0934268, 216.109, -0.000976562, 0, -0.000976562, -0.0371094, 0.371094, -9.71582, 1.12.2022 20:49:46.526
209, 1.9114, 0.0934268, 216.109, -0.000976562, 0, -0.000976562, 0.0136719, 0.350586, -9.81641, 1.12.2022 20:49:46.534
210, 1.9114, 0.0934268, 216.109, -0.000976562, 0, 0, -0.0419922, 0.322266, -9.67871, 1.12.2022 20:49:46.542
211, 1.90924, 0.100076, 216.109, 0, -0.00195312, 0.000976562, -0.0771484, 0.299805, -9.81836, 1.12.2022 20:49:46.550
212, 1.90924, 0.100076, 216.109, -0.000976562, 0, -0.000976562, 0.0185547, 0.322266, -9.76953, 1.12.2022 20:49:46.558
213, 1.90924, 0.100076, 216.109, 0, -0.000976562, -0.00195312, -0.0664062, 0.314453, -9.75, 1.12.2022 20:49:46.566
214, 1.90924, 0.100076, 216.109, -0.000976562, -0.000976562, -0.00195312, 0.0439453, 0.308594, -9.71875, 1.12.2022 20:49:46.574
215, 1.90924, 0.100076, 216.109, -0.000976562, -0.000976562, 0, -0.0175781, 0.331055, -9.82617, 1.12.2022 20:49:46.582
216, 1.90924, 0.100076, 216.109, -0.000976562, 0, 0.000976562, -0.0224609, 0.34668, -9.69336, 1.12.2022 20:49:46.590
217, 1.90924, 0.100076, 216.109, -0.000976562, 0, 0.000976562, 0.0185547, 0.292969, -9.75879, 1.12.2022 20:49:46.598
218, 1.90924, 0.100076, 216.109, -0.00195312, 0, -0.000976562, -0.0498047, 0.319336, -9.74023, 1.12.2022 20:49:46.606
219, 1.90924, 0.100076, 216.109, -0.00195312, -0.000976562, -0.000976562, -0.0498047, 0.316406, -9.72852, 1.12.2022 20:49:46.614
220, 1.90924, 0.100076, 216.109, -0.000976562, 0, -0.000976562, -0.00976562, 0.302734, -9.76562, 1.12.2022 20:49:46.622
221, 1.90924, 0.100076, 216.109, -0.000976562, -0.000976562, -0.000976562, -0.0986328, 0.375977, -9.79199, 1.12.2022 20:49:46.630
222, 1.90924, 0.100076, 216.109, -0.000976562, 0, -0.000976562, -0.000976562, 0.390625, -9.80078, 1.12.2022 20:49:46.638
223, 1.90924, 0.100076, 216.109, -0.000976562, 0, -0.000976562, 0.0185547, 0.313477, -9.79883, 1.12.2022 20:49:46.646
224, 1.90707, 0.106725, 216.108, 0, 0, 0, 0.00195312, 0.303711, -9.79883, 1.12.2022 20:49:46.654
225, 1.90707, 0.106725, 216.108, 0, 0, -0.000976562, 0.0273438, 0.296875, -9.71191, 1.12.2022 20:49:46.662
226, 1.9074, 0.106755, 216.107, 0, 0, -0.000976562, -0.0332031, 0.317383, -9.75488, 1.12.2022 20:49:46.670
227, 1.9074, 0.106755, 216.107, -0.000976562, 0.000976562, -0.000976562, -0.0488281, 0.320312, -9.69336, 1.12.2022 20:49:46.678
228, 1.9074, 0.106755, 216.107, 0, 0, 0, -0.0380859, 0.297852, -9.75781, 1.12.2022 20:49:46.686
229, 1.9074, 0.106755, 216.107, -0.00195312, -0.000976562, 0, -0.0712891, 0.326172, -9.7373, 1.12.2022 20:49:46.694
230, 1.90707, 0.106725, 216.108, -0.000976562, -0.000976562, 0.000976562, -0.0400391, 0.332031, -9.75488, 1.12.2022 20:49:46.702
231, 1.90707, 0.106725, 216.108, -0.000976562, -0.000976562, 0, -0.0117188, 0.30957, -9.74805, 1.12.2022 20:49:46.710
232, 1.90707, 0.106725, 216.108, -0.000976562, 0, 0, -0.0410156, 0.334961, -9.77051, 1.12.2022 20:49:46.718
233, 1.90707, 0.106725, 216.108, -0.000976562, -0.000976562, 0, 0.0351562, 0.328125, -9.80762, 1.12.2022 20:49:46.726
234, 1.90707, 0.106725, 216.108, -0.000976562, 0, -0.000976562, -0.0527344, 0.344727, -9.79199, 1.12.2022 20:49:46.734
235, 1.90491, 0.113374, 216.108, 0, 0, 0, -0.0546875, 0.37207, -9.74414, 1.12.2022 20:49:46.742
236, 1.90491, 0.113374, 216.108, 0, 0, -0.000976562, 0.0214844, 0.31543, -9.77246, 1.12.2022 20:49:46.750
237, 1.90491, 0.113374, 216.108, 0, 0, -0.000976562, -0.0976562, 0.326172, -9.74219, 1.12.2022 20:49:46.758
238, 1.90491, 0.113374, 216.108, 0, 0, -0.000976562, -0.00683594, 0.291992, -9.7207, 1.12.2022 20:49:46.766
239, 1.90491, 0.113374, 216.108, -0.000976562, -0.000976562, -0.000976562, 0.0107422, 0.319336, -9.82129, 1.12.2022 20:49:46.774
240, 1.90491, 0.113374, 216.108, -0.000976562, 0, -0.000976562, -0.046875, 0.376953, -9.74316, 1.12.2022 20:49:46.782
241, 1.90274, 0.120024, 216.108, -0.000976562, -0.000976562, 0, 0.0488281, 0.339844, -9.80273, 1.12.2022 20:49:46.790
242, 1.90274, 0.120024, 216.108, -0.000976562, 0, -0.000976562, -0.0224609, 0.311523, -9.7998, 1.12.2022 20:49:46.798
243, 1.90274, 0.120024, 216.108, -0.000976562, 0.000976562, -0.000976562, -0.0527344, 0.356445, -9.77441, 1.12.2022 20:49:46.806
244, 1.90938, 0.122191, 216.108, -0.00195312, 0.000976562, 0, 0.0214844, 0.316406, -9.74121, 1.12.2022 20:49:46.814
245, 1.90938, 0.122191, 216.108, -0.000976562, 0, 0, -0.0527344, 0.334961, -9.77539, 1.12.2022 20:49:46.822
246, 1.90938, 0.122191, 216.108, -0.00195312, -0.000976562, 0.000976562, 0.00292969, 0.331055, -9.75293, 1.12.2022 20:49:46.830
247, 1.90938, 0.122191, 216.108, -0.000976562, 0, 0, -0.0078125, 0.334961, -9.78516, 1.12.2022 20:49:46.838
248, 1.90938, 0.122191, 216.108, -0.000976562, -0.000976562, -0.000976562, -0.0712891, 0.336914, -9.75879, 1.12.2022 20:49:46.846
249, 1.90938, 0.122191, 216.108, -0.00195312, 0, -0.000976562, 0.0185547, 0.320312, -9.76758, 1.12.2022 20:49:46.854
250, 1.90938, 0.122191, 216.108, -0.000976562, 0, -0.000976562, 0.0078125, 0.319336, -9.73242, 1.12.2022 20:49:46.862
251, 1.91603, 0.124358, 216.108, -0.000976562, -0.000976562, 0, -0.0380859, 0.330078, -9.7666, 1.12.2022 20:49:46.870
252, 1.91819, 0.117709, 216.108, 0, 0, 0, 0.0380859, 0.30957, -9.75586, 1.12.2022 20:49:46.878
253, 1.91819, 0.117709, 216.108, 0, 0, 0, -0.0625, 0.341797, -9.76074, 1.12.2022 20:49:46.886
254, 1.91819, 0.117709, 216.108, 0, 0, -0.000976562, -0.03125, 0.34082, -9.75195, 1.12.2022 20:49:46.894
255, 1.91819, 0.117709, 216.108, -0.000976562, -0.000976562, -0.000976562, -0.00976562, 0.308594, -9.78613, 1.12.2022 20:49:46.902
256, 1.91819, 0.117709, 216.108, -0.000976562, 0, 0, -0.0996094, 0.380859, -9.70996, 1.12.2022 20:49:46.910
257, 1.91819, 0.117709, 216.108, -0.000976562, -0.000976562, 0, 0.00683594, 0.353516, -9.78516, 1.12.2022 20:49:46.918
258, 1.91831, 0.117595, 216.1, 0, 0, 0.000976562, -0.0332031, 0.302734, -9.75977, 1.12.2022 20:49:46.926
259, 1.91831, 0.117595, 216.1, -0.000976562, -0.000976562, 0, -0.0126953, 0.303711, -9.79102, 1.12.2022 20:49:46.934
260, 1.91831, 0.117595, 216.1, -0.000976562, -0.000976562, 0, 0.0458984, 0.297852, -9.73828, 1.12.2022 20:49:46.942
261, 1.91831, 0.117595, 216.1, -0.000976562, -0.000976562, -0.000976562, -0.0634766, 0.347656, -9.82227, 1.12.2022 20:49:46.950
262, 1.91831, 0.117595, 216.1, 0, 0.000976562, -0.000976562, 0.0117188, 0.338867, -9.74609, 1.12.2022 20:49:46.958
263, 1.91831, 0.117595, 216.1, -0.000976562, -0.000976562, -0.000976562, 0.00683594, 0.319336, -9.75781, 1.12.2022 20:49:46.966
264, 1.91831, 0.117595, 216.1, -0.000976562, 0, 0, -0.100586, 0.327148, -9.76758, 1.12.2022 20:49:46.974
265, 1.92495, 0.119762, 216.1, -0.000976562, 0, 0, 0.000976562, 0.308594, -9.71582, 1.12.2022 20:49:46.982
266, 1.92495, 0.119762, 216.1, -0.000976562, 0, -0.000976562, -0.0351562, 0.275391, -9.69922, 1.12.2022 20:49:46.990
267, 1.92495, 0.119762, 216.1, -0.000976562, -0.000976562, -0.00195312, -0.0361328, 0.351562, -9.77734, 1.12.2022 20:49:46.998
268, 1.92484, 0.119876, 216.108, -0.000976562, -0.000976562, -0.000976562, 0.0527344, 0.34668, -9.76953, 1.12.2022 20:49:47.006
269, 1.92484, 0.119876, 216.108, -0.000976562, -0.000976562, -0.000976562, -0.0527344, 0.348633, -9.75098, 1.12.2022 20:49:47.014
270, 1.92484, 0.119876, 216.108, -0.00195312, 0, 0, -0.0136719, 0.355469, -9.74219, 1.12.2022 20:49:47.022
271, 1.92484, 0.119876, 216.108, 0, 0, 0, 0.00976562, 0.326172, -9.74609, 1.12.2022 20:49:47.030
272, 1.92484, 0.119876, 216.108, -0.000976562, 0, 0, -0.078125, 0.326172, -9.73242, 1.12.2022 20:49:47.038
273, 1.92484, 0.119876, 216.108, -0.000976562, 0, -0.000976562, 0, 0.295898, -9.76074, 1.12.2022 20:49:47.046
274, 1.92484, 0.119876, 216.108, -0.000976562, 0, -0.000976562, -0.00195312, 0.326172, -9.74609, 1.12.2022 20:49:47.054
275, 1.92484, 0.119876, 216.108, -0.000976562, 0, -0.00195312, -0.0595703, 0.350586, -9.75098, 1.12.2022 20:49:47.062
276, 1.92484, 0.119876, 216.108, -0.000976562, 0, 0, 0.0263672, 0.30957, -9.74707, 1.12.2022 20:49:47.070
277, 1.92484, 0.119876, 216.108, -0.00195312, 0, 0, -0.03125, 0.332031, -9.76172, 1.12.2022 20:49:47.078
278, 1.92484, 0.119876, 216.108, -0.000976562, 0, 0, -0.00390625, 0.306641, -9.71289, 1.12.2022 20:49:47.086
279, 1.92484, 0.119876, 216.108, -0.000976562, -0.000976562, -0.000976562, 0.0166016, 0.332031, -9.77637, 1.12.2022 20:49:47.094
280, 1.92484, 0.119876, 216.108, -0.000976562, -0.000976562, -0.000976562, -0.0449219, 0.345703, -9.74219, 1.12.2022 20:49:47.102
281, 1.92484, 0.119876, 216.108, -0.000976562, 0, -0.000976562, -0.0078125, 0.310547, -9.76758, 1.12.2022 20:49:47.110
282, 1.92484, 0.119876, 216.108, 0, 0, 0, 0.0234375, 0.3125, -9.7627, 1.12.2022 20:49:47.118
283, 1.92517, 0.119906, 216.107, -0.00195312, -0.000976562, -0.000976562, -0.0380859, 0.373047, -9.78418, 1.12.2022 20:49:47.126
284, 1.92734, 0.113257, 216.107, -0.000976562, 0, -0.000976562, 0.0576172, 0.336914, -9.7627, 1.12.2022 20:49:47.134
285, 1.92734, 0.113257, 216.107, -0.000976562, -0.000976562, 0, -0.0732422, 0.338867, -9.83398, 1.12.2022 20:49:47.142
286, 1.92734, 0.113257, 216.107, 0, 0, -0.000976562, -0.0263672, 0.324219, -9.74316, 1.12.2022 20:49:47.150
287, 1.92734, 0.113257, 216.107, -0.00195312, -0.000976562, -0.000976562, -0.00488281, 0.305664, -9.77246, 1.12.2022 20:49:47.158
288, 1.92734, 0.113257, 216.107, -0.000976562, 0, -0.00195312, -0.0498047, 0.333008, -9.72559, 1.12.2022 20:49:47.166
289, 1.92734, 0.113257, 216.107, -0.00195312, -0.000976562, -0.000976562, 0.0332031, 0.31543, -9.77539, 1.12.2022 20:49:47.174
290, 1.92734, 0.113257, 216.107, -0.000976562, -0.000976562, 0, -0.015625, 0.296875, -9.69629, 1.12.2022 20:49:47.182
291, 1.92734, 0.113257, 216.107, -0.000976562, -0.000976562, 0, -0.0800781, 0.332031, -9.83887, 1.12.2022 20:49:47.190
292, 1.92734, 0.113257, 216.107, 0, 0, 0, 0.0527344, 0.263672, -9.73145, 1.12.2022 20:49:47.198
293, 1.9295, 0.106608, 216.107, -0.000976562, -0.000976562, -0.000976562, -0.0664062, 0.31543, -9.75879, 1.12.2022 20:49:47.206
294, 1.92286, 0.104441, 216.107, 0, 0, 0, -0.0214844, 0.348633, -9.74707, 1.12.2022 20:49:47.214
295, 1.92286, 0.104441, 216.107, 0, -0.000976562, -0.000976562, 0.0136719, 0.316406, -9.81738, 1.12.2022 20:49:47.222
296, 1.92286, 0.104441, 216.107, 0, 0, -0.000976562, -0.0566406, 0.3125, -9.75, 1.12.2022 20:49:47.230
297, 1.92286, 0.104441, 216.107, 0, 0, -0.000976562, -0.0244141, 0.332031, -9.78027, 1.12.2022 20:49:47.238
298, 1.92286, 0.104441, 216.107, 0.000976562, 0, -0.000976562, -0.0214844, 0.3125, -9.74316, 1.12.2022 20:49:47.246
299, 1.92286, 0.104441, 216.107, 0.000976562, -0.000976562, -0.000976562, -0.0693359, 0.308594, -9.78809, 1.12.2022 20:49:47.254
300, 1.91405, 0.108922, 216.107, 0.000976562, 0, 0, 0.0283203, 0.300781, -9.76074, 1.12.2022 20:49:47.262
301, 1.91405, 0.108922, 216.107, 0.000976562, -0.000976562, -0.000976562, -0.0410156, 0.310547, -9.77637, 1.12.2022 20:49:47.270
302, 1.91405, 0.108922, 216.107, 0, 0, -0.000976562, -0.0166016, 0.331055, -9.74023, 1.12.2022 20:49:47.278
303, 1.91405, 0.108922, 216.107, 0, -0.000976562, -0.000976562, -0.0175781, 0.316406, -9.80469, 1.12.2022 20:49:47.286
304, 1.9074, 0.106755, 216.107, 0, 0, 0, -0.0546875, 0.330078, -9.77539, 1.12.2022 20:49:47.294
305, 1.9074, 0.106755, 216.107, 0.000976562, 0, -0.000976562, -0.0166016, 0.333984, -9.75684, 1.12.2022 20:49:47.302
306, 1.9074, 0.106755, 216.107, 0, -0.000976562, -0.000976562, -0.0146484, 0.289062, -9.75586, 1.12.2022 20:49:47.310
307, 1.9074, 0.106755, 216.107, 0.000976562, 0, 0, -0.0644531, 0.317383, -9.74219, 1.12.2022 20:49:47.318
308, 1.9074, 0.106755, 216.107, 0, 0.000976562, 0, 0.0390625, 0.305664, -9.70215, 1.12.2022 20:49:47.326
309, 1.89859, 0.111237, 216.106, 0, 0, -0.000976562, -0.0146484, 0.345703, -9.75195, 1.12.2022 20:49:47.334
310, 1.89859, 0.111237, 216.106, 0.000976562, 0, -0.000976562, -0.0322266, 0.354492, -9.70215, 1.12.2022 20:49:47.342
311, 1.89859, 0.111237, 216.106, 0.000976562, -0.000976562, -0.000976562, 0.0185547, 0.326172, -9.80957, 1.12.2022 20:49:47.350
312, 1.89859, 0.111237, 216.106, 0.000976562, 0, -0.000976562, -0.0419922, 0.333008, -9.72852, 1.12.2022 20:49:47.358
313, 1.89859, 0.111237, 216.106, 0, 0, 0, -0.0449219, 0.336914, -9.76367, 1.12.2022 20:49:47.366
314, 1.89859, 0.111237, 216.106, 0, 0, -0.000976562, 0.0263672, 0.297852, -9.75391, 1.12.2022 20:49:47.374
315, 1.89859, 0.111237, 216.106, 0, -0.000976562, -0.000976562, -0.0634766, 0.331055, -9.72363, 1.12.2022 20:49:47.382
316, 1.89859, 0.111237, 216.106, 0, 0, -0.000976562, 0.0361328, 0.333008, -9.72949, 1.12.2022 20:49:47.390
317, 1.89194, 0.109069, 216.106, 0, 0, -0.000976562, -0.0498047, 0.355469, -9.74609, 1.12.2022 20:49:47.398
318, 1.89194, 0.109069, 216.106, 0, 0, -0.000976562, -0.00683594, 0.319336, -9.75977, 1.12.2022 20:49:47.406
319, 1.89194, 0.109069, 216.106, 0, 0, -0.000976562, 0.0361328, 0.322266, -9.75586, 1.12.2022 20:49:47.414
320, 1.89194, 0.109069, 216.106, 0, 0, 0, -0.0683594, 0.342773, -9.71875, 1.12.2022 20:49:47.420
321, 1.89194, 0.109069, 216.106, 0.000976562, -0.000976562, 0, -0.0332031, 0.335938, -9.74512, 1.12.2022 20:49:47.428
322, 1.89194, 0.109069, 216.106, 0, -0.000976562, 0, 0.0351562, 0.31543, -9.78711, 1.12.2022 20:49:47.436
323, 1.89859, 0.111237, 216.106, 0, 0, -0.000976562, -0.0537109, 0.321289, -9.80859, 1.12.2022 20:49:47.444
324, 1.89859, 0.111237, 216.106, 0, 0, -0.00195312, 0.0185547, 0.330078, -9.7793, 1.12.2022 20:49:47.452
325, 1.89859, 0.111237, 216.106, 0, -0.000976562, -0.000976562, -0.0244141, 0.341797, -9.76367, 1.12.2022 20:49:47.460
326, 1.89859, 0.111237, 216.106, -0.000976562, 0, 0, -0.0146484, 0.345703, -9.75879, 1.12.2022 20:49:47.470
327, 1.89859, 0.111237, 216.106, -0.000976562, 0, 0, 0.0429688, 0.304688, -9.75391, 1.12.2022 20:49:47.476
328, 1.89859, 0.111237, 216.106, -0.00195312, 0, -0.000976562, -0.0371094, 0.337891, -9.81055, 1.12.2022 20:49:47.484
329, 1.90076, 0.104588, 216.107, -0.000976562, 0, -0.00195312, -0.0244141, 0.287109, -9.77441, 1.12.2022 20:49:47.492
330, 1.90076, 0.104588, 216.107, -0.000976562, -0.000976562, -0.000976562, -0.00683594, 0.302734, -9.76074, 1.12.2022 20:49:47.500
331, 1.90076, 0.104588, 216.107, -0.000976562, 0, -0.000976562, -0.0712891, 0.37207, -9.75, 1.12.2022 20:49:47.508
332, 1.90076, 0.104588, 216.107, -0.000976562, 0, 0, 0.0283203, 0.313477, -9.79102, 1.12.2022 20:49:47.516
333, 1.90076, 0.104588, 216.107, -0.000976562, 0, 0, -0.0224609, 0.303711, -9.79297, 1.12.2022 20:49:47.524
334, 1.90076, 0.104588, 216.107, -0.000976562, -0.000976562, 0, -0.0488281, 0.334961, -9.79883, 1.12.2022 20:49:47.532
335, 1.90076, 0.104588, 216.107, -0.000976562, -0.000976562, 0, 0.0351562, 0.308594, -9.77246, 1.12.2022 20:49:47.540
336, 1.90076, 0.104588, 216.107, -0.000976562, -0.000976562, -0.000976562, -0.0429688, 0.338867, -9.76172, 1.12.2022 20:49:47.548
337, 1.90076, 0.104588, 216.107, -0.000976562, -0.00195312, -0.000976562, -0.0117188, 0.3125, -9.75977, 1.12.2022 20:49:47.556
338, 1.90076, 0.104588, 216.107, -0.000976562, -0.000976562, 0, -0.00585938, 0.330078, -9.70508, 1.12.2022 20:49:47.564
339, 1.90076, 0.104588, 216.107, -0.000976562, 0, 0, -0.0712891, 0.348633, -9.75098, 1.12.2022 20:49:47.572
340, 1.90076, 0.104588, 216.107, 0, 0, 0, 0.00683594, 0.320312, -9.78125, 1.12.2022 20:49:47.580
341, 1.90259, 0.0979087, 216.108, -0.000976562, 0, 0, -0.0195312, 0.323242, -9.7832, 1.12.2022 20:49:47.588
342, 1.90259, 0.0979087, 216.108, 0, 0, -0.000976562, -0.0449219, 0.336914, -9.75391, 1.12.2022 20:49:47.596
343, 1.90259, 0.0979087, 216.108, 0, -0.000976562, -0.000976562, 0.0410156, 0.326172, -9.73926, 1.12.2022 20:49:47.604
344, 1.90259, 0.0979087, 216.108, -0.000976562, 0, 0, -0.0332031, 0.333008, -9.72852, 1.12.2022 20:49:47.612
345, 1.90259, 0.0979087, 216.108, -0.000976562, 0, 0, -0.0322266, 0.331055, -9.71875, 1.12.2022 20:49:47.620
346, 1.90924, 0.100076, 216.109, -0.000976562, -0.000976562, 0, 0.0380859, 0.314453, -9.74414, 1.12.2022 20:49:47.628
347, 1.90924, 0.100076, 216.109, -0.000976562, -0.000976562, 0, -0.0478516, 0.349609, -9.78223, 1.12.2022 20:49:47.636
348, 1.90924, 0.100076, 216.109, -0.000976562, 0, -0.000976562, 0.0175781, 0.314453, -9.8291, 1.12.2022 20:49:47.644
349, 1.90924, 0.100076, 216.109, -0.000976562, 0, -0.000976562, -0.0214844, 0.344727, -9.78711, 1.12.2022 20:49:47.652
350, 1.90924, 0.100076, 216.109, -0.00195312, 0, -0.000976562, -0.0634766, 0.345703, -9.73047, 1.12.2022 20:49:47.660
351, 1.90924, 0.100076, 216.109, -0.000976562, 0, -0.000976562, 0.0332031, 0.302734, -9.74023, 1.12.2022 20:49:47.668
352, 1.90924, 0.100076, 216.109, 0, 0.000976562, -0.000976562, -0.0361328, 0.334961, -9.77344, 1.12.2022 20:49:47.676
353, 1.90924, 0.100076, 216.109, -0.000976562, 0, -0.00195312, -0.0253906, 0.34082, -9.72656, 1.12.2022 20:49:47.684
354, 1.90957, 0.100106, 216.107, -0.000976562, -0.000976562, -0.00195312, 0.015625, 0.326172, -9.80078, 1.12.2022 20:49:47.692
355, 1.90957, 0.100106, 216.107, -0.000976562, -0.000976562, -0.000976562, -0.0908203, 0.347656, -9.79297, 1.12.2022 20:49:47.700
356, 1.91173, 0.0934575, 216.107, -0.000976562, 0, -0.000976562, 0.00390625, 0.313477, -9.79102, 1.12.2022 20:49:47.708
357, 1.91173, 0.0934575, 216.107, -0.00195312, -0.000976562, 0, 0.00683594, 0.333984, -9.75488, 1.12.2022 20:49:47.716
358, 1.91838, 0.0956248, 216.107, -0.000976562, 0, 0, -0.0556641, 0.301758, -9.79785, 1.12.2022 20:49:47.724
359, 1.91805, 0.0955941, 216.109, -0.000976562, 0, 0, 0.0361328, 0.299805, -9.74023, 1.12.2022 20:49:47.732
360, 1.91805, 0.0955941, 216.109, -0.000976562, 0, -0.000976562, -0.0546875, 0.366211, -9.7793, 1.12.2022 20:49:47.740
361, 1.91805, 0.0955941, 216.109, -0.000976562, 0.000976562, 0, -0.0185547, 0.355469, -9.74707, 1.12.2022 20:49:47.748
362, 1.91805, 0.0955941, 216.109, -0.000976562, 0, 0, 0.03125, 0.279297, -9.75977, 1.12.2022 20:49:47.756
363, 1.91805, 0.0955941, 216.109, -0.000976562, -0.000976562, 0, -0.0673828, 0.301758, -9.78516, 1.12.2022 20:49:47.764
364, 1.91805, 0.0955941, 216.109, -0.000976562, -0.000976562, -0.000976562, 0.0332031, 0.336914, -9.77246, 1.12.2022 20:49:47.772
365, 1.91805, 0.0955941, 216.109, -0.000976562, 0, 0, -0.0126953, 0.349609, -9.78711, 1.12.2022 20:49:47.780
366, 1.91805, 0.0955941, 216.109, -0.00195312, -0.000976562, -0.000976562, -0.0703125, 0.333984, -9.83398, 1.12.2022 20:49:47.788
367, 1.91805, 0.0955941, 216.109, -0.000976562, 0, -0.000976562, 0.0263672, 0.292969, -9.75391, 1.12.2022 20:49:47.796
368, 1.91805, 0.0955941, 216.109, -0.000976562, 0, 0, -0.0576172, 0.328125, -9.78711, 1.12.2022 20:49:47.804
369, 1.91805, 0.0955941, 216.109, -0.000976562, 0, 0, -0.0214844, 0.30957, -9.75098, 1.12.2022 20:49:47.812
370, 1.91805, 0.0955941, 216.109, -0.000976562, -0.000976562, -0.000976562, 0.0244141, 0.314453, -9.7373, 1.12.2022 20:49:47.820
371, 1.91805, 0.0955941, 216.109, -0.000976562, -0.000976562, 0, -0.0546875, 0.358398, -9.75586, 1.12.2022 20:49:47.828
372, 1.91805, 0.0955941, 216.109, -0.000976562, -0.000976562, -0.000976562, -0.0341797, 0.349609, -9.78223, 1.12.2022 20:49:47.836
373, 1.91805, 0.0955941, 216.109, -0.000976562, -0.000976562, 0, 0.0117188, 0.328125, -9.78613, 1.12.2022 20:49:47.844
374, 1.91805, 0.0955941, 216.109, -0.000976562, -0.000976562, 0, -0.0507812, 0.328125, -9.79688, 1.12.2022 20:49:47.852
375, 1.91805, 0.0955941, 216.109, -0.00195312, -0.000976562, 0, 0.0664062, 0.277344, -9.7832, 1.12.2022 20:49:47.860
376, 1.91805, 0.0955941, 216.109, -0.00195312, -0.000976562, -0.000976562, -0.03125, 0.320312, -9.7832, 1.12.2022 20:49:47.868
377, 1.91805, 0.0955941, 216.109, -0.000976562, 0, -0.000976562, -0.00195312, 0.314453, -9.73926, 1.12.2022 20:49:47.876
378, 1.91805, 0.0955941, 216.109, -0.000976562, -0.000976562, -0.000976562, 0.0166016, 0.3125, -9.77051, 1.12.2022 20:49:47.884
379, 1.91805, 0.0955941, 216.109, 0.000976562, 0, -0.000976562, -0.0507812, 0.353516, -9.77539, 1.12.2022 20:49:47.892
380, 1.91805, 0.0955941, 216.109, 0.000976562, 0, 0, -0.0234375, 0.349609, -9.7207, 1.12.2022 20:49:47.900
381, 1.9114, 0.0934268, 216.109, 0.000976562, 0, 0, 0.0078125, 0.304688, -9.7207, 1.12.2022 20:49:47.908
382, 1.9114, 0.0934268, 216.109, -0.00195312, -0.00195312, 0, -0.0761719, 0.299805, -9.73145, 1.12.2022 20:49:47.916
383, 1.9114, 0.0934268, 216.109, -0.000976562, -0.000976562, -0.000976562, 0.0644531, 0.297852, -9.74023, 1.12.2022 20:49:47.924
384, 1.9114, 0.0934268, 216.109, -0.000976562, -0.000976562, -0.000976562, -0.0605469, 0.342773, -9.80371, 1.12.2022 20:49:47.932
385, 1.9114, 0.0934268, 216.109, -0.000976562, -0.000976562, -0.000976562, -0.00292969, 0.34375, -9.77637, 1.12.2022 20:49:47.940
386, 1.9114, 0.0934268, 216.109, -0.000976562, -0.000976562, -0.000976562, 0.0185547, 0.338867, -9.76953, 1.12.2022 20:49:47.948
387, 1.9114, 0.0934268, 216.109, 0, 0, 0.000976562, -0.0410156, 0.320312, -9.76855, 1.12.2022 20:49:47.956
388, 1.91152, 0.0933141, 216.101, 0.000976562, 0, 0.000976562, -0.0410156, 0.317383, -9.76855, 1.12.2022 20:49:47.964
389, 1.91152, 0.0933141, 216.101, 0.000976562, 0, -0.000976562, 0.0078125, 0.265625, -9.71973, 1.12.2022 20:49:47.972
390, 1.91152, 0.0933141, 216.101, -0.000976562, 0, -0.000976562, -0.0820312, 0.337891, -9.80078, 1.12.2022 20:49:47.980
391, 1.90487, 0.0911472, 216.101, -0.000976562, 0, -0.000976562, 0.0361328, 0.331055, -9.74414, 1.12.2022 20:49:47.988
392, 1.90487, 0.0911472, 216.101, -0.00195312, -0.00195312, 0, -0.0283203, 0.360352, -9.74219, 1.12.2022 20:49:47.996
393, 1.90487, 0.0911472, 216.101, -0.000976562, -0.000976562, 0.000976562, 0.000976562, 0.316406, -9.71289, 1.12.2022 20:49:48.004
394, 1.90487, 0.0911472, 216.101, -0.000976562, -0.00195312, 0, 0.0537109, 0.322266, -9.84375, 1.12.2022 20:49:48.012
395, 1.90487, 0.0911472, 216.101, -0.000976562, 0, -0.000976562, -0.0146484, 0.320312, -9.76465, 1.12.2022 20:49:48.020
396, 1.90487, 0.0911472, 216.101, -0.000976562, -0.000976562, -0.00195312, -0.0371094, 0.345703, -9.82715, 1.12.2022 20:49:48.028
397, 1.90476, 0.0912595, 216.109, 0.000976562, 0.000976562, -0.000976562, 0.0390625, 0.289062, -9.70996, 1.12.2022 20:49:48.036
398, 1.90476, 0.0912595, 216.109, -0.000976562, -0.000976562, -0.000976562, -0.0947266, 0.336914, -9.84082, 1.12.2022 20:49:48.044
399, 1.90476, 0.0912595, 216.109, 0.000976562, 0.000976562, 0, 0.0380859, 0.30957, -9.74707, 1.12.2022 20:49:48.052
400, 1.90476, 0.0912595, 216.109, -0.000976562, -0.000976562, 0, -0.0175781, 0.311523, -9.80273, 1.12.2022 20:49:48.060
401, 1.90476, 0.0912595, 216.109, -0.000976562, 0.000976562, -0.000976562, -0.0107422, 0.333008, -9.70996, 1.12.2022 20:49:48.068
402, 1.89811, 0.0890922, 216.109, -0.000976562, -0.00195312, -0.000976562, 0.00292969, 0.353516, -9.85156, 1.12.2022 20:49:48.076
403, 1.89811, 0.0890922, 216.109, 0.000976562, -0.000976562, -0.000976562, -0.0302734, 0.319336, -9.73828, 1.12.2022 20:49:48.084
404, 1.89811, 0.0890922, 216.109, -0.000976562, -0.000976562, -0.00195312, -0.0195312, 0.361328, -9.79688, 1.12.2022 20:49:48.092
405, 1.90028, 0.082443, 216.109, -0.000976562, 0, -0.000976562, 0.0380859, 0.329102, -9.76758, 1.12.2022 20:49:48.100
406, 1.90028, 0.082443, 216.109, -0.000976562, -0.00195312, 0, -0.0927734, 0.348633, -9.76758, 1.12.2022 20:49:48.108
407, 1.90028, 0.082443, 216.109, -0.000976562, 0, 0, 0.0527344, 0.311523, -9.72852, 1.12.2022 20:49:48.116
408, 1.90028, 0.082443, 216.109, -0.000976562, 0, 0, -0.0244141, 0.337891, -9.80371, 1.12.2022 20:49:48.124
409, 1.90028, 0.082443, 216.109, -0.000976562, 0.000976562, -0.000976562, -0.0263672, 0.317383, -9.77148, 1.12.2022 20:49:48.132
410, 1.90028, 0.082443, 216.109, 0.000976562, -0.000976562, -0.000976562, -0.0107422, 0.365234, -9.8252, 1.12.2022 20:49:48.140
411, 1.90028, 0.082443, 216.109, 0.000976562, 0, 0, -0.0166016, 0.295898, -9.7627, 1.12.2022 20:49:48.148
412, 1.90028, 0.082443, 216.109, -0.000976562, 0, 0, -0.0478516, 0.317383, -9.77148, 1.12.2022 20:49:48.156
413, 1.90245, 0.0757938, 216.109, 0.000976562, 0, -0.000976562, 0.0390625, 0.275391, -9.70801, 1.12.2022 20:49:48.164
414, 1.90245, 0.0757938, 216.109, -0.000976562, -0.000976562, -0.000976562, -0.0839844, 0.339844, -9.77246, 1.12.2022 20:49:48.172
415, 1.90245, 0.0757938, 216.109, -0.000976562, 0, -0.000976562, 0.0078125, 0.319336, -9.74609, 1.12.2022 20:49:48.180
416, 1.90245, 0.0757938, 216.109, 0.000976562, 0, -0.000976562, 0.00488281, 0.338867, -9.76953, 1.12.2022 20:49:48.188
417, 1.90245, 0.0757938, 216.109, -0.000976562, 0, 0, -0.0449219, 0.335938, -9.73535, 1.12.2022 20:49:48.196
418, 1.90245, 0.0757938, 216.109, -0.000976562, -0.000976562, 0, 0.0185547, 0.302734, -9.76074, 1.12.2022 20:49:48.204
419, 1.90245, 0.0757938, 216.109, -0.000976562, 0, 0, -0.00976562, 0.305664, -9.7627, 1.12.2022 20:49:48.212
420, 1.90245, 0.0757938, 216.109, 0.000976562, 0, -0.000976562, -0.0546875, 0.327148, -9.7666, 1.12.2022 20:49:48.220
421, 1.90245, 0.0757938, 216.109, 0.000976562, 0, -0.000976562, 0, 0.348633, -9.75, 1.12.2022 20:49:48.228
422, 1.90245, 0.0757938, 216.109, -0.000976562, -0.000976562, -0.000976562, -0.102539, 0.357422, -9.73828, 1.12.2022 20:49:48.236
423, 1.90245, 0.0757938, 216.109, -0.000976562, 0, 0, 0.0166016, 0.301758, -9.73242, 1.12.2022 20:49:48.244
424, 1.90245, 0.0757938, 216.109, -0.000976562, -0.000976562, 0, 0.0117188, 0.289062, -9.77539, 1.12.2022 20:49:48.252
425, 1.90028, 0.082443, 216.109, -0.000976562, 0, -0.000976562, -0.0693359, 0.3125, -9.7666, 1.12.2022 20:49:48.260
426, 1.90028, 0.082443, 216.109, -0.000976562, 0, -0.000976562, 0.0400391, 0.31543, -9.77539, 1.12.2022 20:49:48.268
427, 1.90028, 0.082443, 216.109, -0.000976562, 0, -0.000976562, -0.0556641, 0.34668, -9.78906, 1.12.2022 20:49:48.276
428, 1.90028, 0.082443, 216.109, 0, -0.000976562, 0, -0.078125, 0.352539, -9.74121, 1.12.2022 20:49:48.284
429, 1.90028, 0.082443, 216.109, 0, 0, 0, 0.00585938, 0.294922, -9.71582, 1.12.2022 20:49:48.292
430, 1.90028, 0.082443, 216.109, -0.000976562, 0.000976562, -0.000976562, -0.0830078, 0.355469, -9.74414, 1.12.2022 20:49:48.300
431, 1.90028, 0.082443, 216.109, -0.000976562, 0, -0.000976562, 0.00390625, 0.301758, -9.79883, 1.12.2022 20:49:48.308
432, 1.90028, 0.082443, 216.109, -0.000976562, 0, 0, 0.00683594, 0.329102, -9.74805, 1.12.2022 20:49:48.316
433, 1.89811, 0.0890922, 216.109, -0.000976562, -0.000976562, -0.000976562, -0.0556641, 0.338867, -9.83398, 1.12.2022 20:49:48.324
434, 1.90476, 0.0912595, 216.109, -0.000976562, 0, -0.000976562, 0.0205078, 0.339844, -9.78809, 1.12.2022 20:49:48.332
435, 1.90476, 0.0912595, 216.109, -0.000976562, 0.000976562, 0, -0.00488281, 0.329102, -9.74121, 1.12.2022 20:49:48.340
436, 1.90476, 0.0912595, 216.109, -0.000976562, 0, 0, -0.0380859, 0.322266, -9.76172, 1.12.2022 20:49:48.348
437, 1.90476, 0.0912595, 216.109, -0.000976562, 0, -0.000976562, 0.0146484, 0.300781, -9.75391, 1.12.2022 20:49:48.356
438, 1.90476, 0.0912595, 216.109, -0.000976562, 0, -0.000976562, -0.0644531, 0.333008, -9.78906, 1.12.2022 20:49:48.364
439, 1.90476, 0.0912595, 216.109, -0.000976562, -0.000976562, -0.000976562, -0.00488281, 0.362305, -9.74707, 1.12.2022 20:49:48.372
440, 1.90259, 0.0979087, 216.108, -0.000976562, -0.00195312, -0.000976562, -0.00488281, 0.348633, -9.77832, 1.12.2022 20:49:48.380
441, 1.90259, 0.0979087, 216.108, 0, -0.000976562, 0, -0.0625, 0.357422, -9.80762, 1.12.2022 20:49:48.388
442, 1.90259, 0.0979087, 216.108, 0, 0, 0, 0.0449219, 0.297852, -9.75684, 1.12.2022 20:49:48.396
443, 1.90259, 0.0979087, 216.108, 0, 0, -0.000976562, -0.0546875, 0.325195, -9.76855, 1.12.2022 20:49:48.402
444, 1.90259, 0.0979087, 216.108, -0.000976562, 0, -0.000976562, -0.0126953, 0.339844, -9.77637, 1.12.2022 20:49:48.410
445, 1.90924, 0.100076, 216.109, 0, 0, -0.000976562, 0.00683594, 0.308594, -9.79102, 1.12.2022 20:49:48.418
446, 1.90924, 0.100076, 216.109, 0, -0.000976562, -0.000976562, -0.0859375, 0.350586, -9.74805, 1.12.2022 20:49:48.426
447, 1.90924, 0.100076, 216.109, -0.000976562, -0.000976562, 0, 0.00488281, 0.327148, -9.77441, 1.12.2022 20:49:48.434
448, 1.90924, 0.100076, 216.109, -0.000976562, -0.000976562, 0, -0.0126953, 0.31543, -9.78809, 1.12.2022 20:49:48.442
449, 1.90924, 0.100076, 216.109, -0.00195312, -0.000976562, -0.000976562, -0.0742188, 0.3125, -9.75, 1.12.2022 20:49:48.450
450, 1.90707, 0.106725, 216.108, -0.000976562, 0, 0, 0.00878906, 0.286133, -9.77051, 1.12.2022 20:49:48.458
451, 1.90707, 0.106725, 216.108, 0, 0, -0.000976562, -0.0644531, 0.317383, -9.74707, 1.12.2022 20:49:48.466
452, 1.9074, 0.106755, 216.107, -0.000976562, -0.000976562, -0.00195312, -0.0283203, 0.353516, -9.76855, 1.12.2022 20:49:48.474
453, 1.9074, 0.106755, 216.107, 0, 0, -0.000976562, 0.0263672, 0.331055, -9.74609, 1.12.2022 20:49:48.482
454, 1.91405, 0.108922, 216.107, -0.000976562, -0.000976562, -0.000976562, -0.0332031, 0.362305, -9.75586, 1.12.2022 20:49:48.490
455, 1.91405, 0.108922, 216.107, -0.000976562, 0, 0, -0.0458984, 0.322266, -9.7666, 1.12.2022 20:49:48.498
456, 1.91405, 0.108922, 216.107, 0, 0, -0.000976562, -0.0234375, 0.319336, -9.75977, 1.12.2022 20:49:48.506
457, 1.91405, 0.108922, 216.107, 0, 0, -0.000976562, -0.0546875, 0.327148, -9.75391, 1.12.2022 20:49:48.514
458, 1.91188, 0.115571, 216.107, -0.000976562, -0.000976562, -0.000976562, 0, 0.324219, -9.7627, 1.12.2022 20:49:48.522
459, 1.91188, 0.115571, 216.107, -0.000976562, 0, -0.000976562, -0.0458984, 0.342773, -9.80176, 1.12.2022 20:49:48.530
460, 1.91188, 0.115571, 216.107, -0.000976562, 0, 0, -0.03125, 0.34668, -9.76855, 1.12.2022 20:49:48.538
461, 1.91188, 0.115571, 216.107, -0.000976562, -0.000976562, 0, 0.0429688, 0.305664, -9.77051, 1.12.2022 20:49:48.546
462, 1.91188, 0.115571, 216.107, -0.000976562, -0.000976562, 0, -0.0664062, 0.320312, -9.76172, 1.12.2022 20:49:48.554
463, 1.91188, 0.115571, 216.107, -0.000976562, 0, 0, -0.0205078, 0.320312, -9.70996, 1.12.2022 20:49:48.562
464, 1.91853, 0.117738, 216.107, -0.000976562, -0.000976562, -0.000976562, 0, 0.282227, -9.78027, 1.12.2022 20:49:48.570
465, 1.91636, 0.124387, 216.106, -0.000976562, 0, 0, -0.0693359, 0.3125, -9.75879, 1.12.2022 20:49:48.578
466, 1.91636, 0.124387, 216.106, 0, -0.000976562, -0.000976562, -0.00195312, 0.333984, -9.75488, 1.12.2022 20:49:48.586
467, 1.91636, 0.124387, 216.106, -0.000976562, 0, 0, -0.0292969, 0.337891, -9.79688, 1.12.2022 20:49:48.594
468, 1.91603, 0.124358, 216.108, -0.000976562, -0.000976562, 0, -0.0478516, 0.338867, -9.75391, 1.12.2022 20:49:48.602
469, 1.91603, 0.124358, 216.108, 0, -0.000976562, 0.000976562, 0.0234375, 0.305664, -9.78027, 1.12.2022 20:49:48.610
470, 1.91603, 0.124358, 216.108, -0.000976562, -0.000976562, 0, -0.0429688, 0.332031, -9.75879, 1.12.2022 20:49:48.618
471, 1.91386, 0.131007, 216.108, -0.000976562, -0.000976562, -0.000976562, -0.00488281, 0.34375, -9.77148, 1.12.2022 20:49:48.626
472, 1.91386, 0.131007, 216.108, 0, 0, -0.000976562, -0.00585938, 0.323242, -9.80957, 1.12.2022 20:49:48.634
473, 1.91386, 0.131007, 216.108, -0.000976562, 0.000976562, 0, -0.0478516, 0.336914, -9.78223, 1.12.2022 20:49:48.642
474, 1.91386, 0.131007, 216.108, -0.00195312, -0.000976562, 0, -0.0390625, 0.345703, -9.81738, 1.12.2022 20:49:48.650
475, 1.91386, 0.131007, 216.108, -0.00195312, 0, -0.000976562, -0.0253906, 0.289062, -9.68262, 1.12.2022 20:49:48.658
476, 1.91386, 0.131007, 216.108, -0.00195312, 0, -0.000976562, -0.0693359, 0.324219, -9.75391, 1.12.2022 20:49:48.666
477, 1.91386, 0.131007, 216.108, -0.000976562, 0, -0.000976562, 0.0566406, 0.334961, -9.79883, 1.12.2022 20:49:48.674
478, 1.91386, 0.131007, 216.108, -0.00195312, -0.000976562, 0.000976562, -0.0478516, 0.310547, -9.77637, 1.12.2022 20:49:48.682
479, 1.91386, 0.131007, 216.108, -0.000976562, -0.000976562, 0, -0.0117188, 0.320312, -9.77148, 1.12.2022 20:49:48.690
480, 1.91386, 0.131007, 216.108, 0, 0, 0, 0.00488281, 0.329102, -9.75293, 1.12.2022 20:49:48.698
481, 1.91398, 0.130894, 216.1, 0, -0.000976562, -0.000976562, -0.0810547, 0.347656, -9.73242, 1.12.2022 20:49:48.706
482, 1.91386, 0.131007, 216.108, 0, -0.00195312, -0.000976562, 0.0146484, 0.322266, -9.76465, 1.12.2022 20:49:48.714
483, 1.91386, 0.131007, 216.108, 0, 0, -0.000976562, 0.0185547, 0.293945, -9.77051, 1.12.2022 20:49:48.722
484, 1.91386, 0.131007, 216.108, 0, 0, 0, -0.0507812, 0.339844, -9.80176, 1.12.2022 20:49:48.730
485, 1.91398, 0.130894, 216.1, -0.000976562, -0.000976562, 0, 0.0263672, 0.317383, -9.74902, 1.12.2022 20:49:48.738
486, 1.91398, 0.130894, 216.1, -0.000976562, 0, 0, -0.0595703, 0.327148, -9.75879, 1.12.2022 20:49:48.746
487, 1.91398, 0.130894, 216.1, -0.000976562, 0, -0.000976562, -0.0361328, 0.331055, -9.80664, 1.12.2022 20:49:48.754
488, 1.91398, 0.130894, 216.1, -0.000976562, 0, 0, 0.00585938, 0.313477, -9.70605, 1.12.2022 20:49:48.762
489, 1.91398, 0.130894, 216.1, -0.000976562, -0.000976562, 0.000976562, -0.0810547, 0.310547, -9.76172, 1.12.2022 20:49:48.770
490, 1.91398, 0.130894, 216.1, -0.000976562, -0.000976562, 0, -0.0136719, 0.323242, -9.71777, 1.12.2022 20:49:48.778
491, 1.91398, 0.130894, 216.1, -0.00195312, -0.000976562, 0, -0.00976562, 0.292969, -9.74414, 1.12.2022 20:49:48.786
492, 1.91398, 0.130894, 216.1, -0.000976562, -0.000976562, -0.000976562, -0.0673828, 0.337891, -9.78906, 1.12.2022 20:49:48.794
493, 1.90517, 0.135376, 216.1, -0.000976562, -0.000976562, -0.000976562, 0.0214844, 0.3125, -9.76562, 1.12.2022 20:49:48.802
494, 1.90517, 0.135376, 216.1, 0, 0, -0.000976562, -0.0507812, 0.359375, -9.7959, 1.12.2022 20:49:48.810
495, 1.90517, 0.135376, 216.1, -0.000976562, 0, -0.000976562, -0.0458984, 0.413086, -9.77344, 1.12.2022 20:49:48.818
496, 1.90517, 0.135376, 216.1, -0.000976562, 0, 0, 0.0351562, 0.279297, -9.77148, 1.12.2022 20:49:48.826
497, 1.90517, 0.135376, 216.1, -0.00195312, -0.000976562, 0, -0.0761719, 0.320312, -9.76367, 1.12.2022 20:49:48.834
498, 1.90517, 0.135376, 216.1, -0.000976562, 0, -0.000976562, 0.00488281, 0.300781, -9.77051, 1.12.2022 20:49:48.842
499, 1.90505, 0.135489, 216.108, -0.000976562, 0, -0.00195312, 0.0185547, 0.330078, -9.78809, 1.12.2022 20:49:48.850
500, 1.90505, 0.135489, 216.108, -0.000976562, -0.000976562, -0.000976562, -0.0351562, 0.349609, -9.72559, 1.12.2022 20:49:48.858
501, 1.90505, 0.135489, 216.108, 0, -0.000976562, -0.000976562, 0.00683594, 0.31543, -9.78613, 1.12.2022 20:49:48.866
502, 1.90505, 0.135489, 216.108, -0.000976562, -0.000976562, 0, -0.0273438, 0.318359, -9.70312, 1.12.2022 20:49:48.874
503, 1.90505, 0.135489, 216.108, -0.00195312, -0.000976562, 0, -0.00683594, 0.332031, -9.75781, 1.12.2022 20:49:48.882
504, 1.90505, 0.135489, 216.108, -0.000976562, 0, -0.000976562, 0.0478516, 0.285156, -9.73633, 1.12.2022 20:49:48.890
505, 1.90722, 0.12884, 216.108, 0, -0.000976562, -0.00195312, -0.0664062, 0.342773, -9.7373, 1.12.2022 20:49:48.898
506, 1.90722, 0.12884, 216.108, -0.000976562, 0, -0.000976562, -0.00976562, 0.338867, -9.7666, 1.12.2022 20:49:48.906
507, 1.90722, 0.12884, 216.108, -0.000976562, 0, 0, -0.0273438, 0.335938, -9.80371, 1.12.2022 20:49:48.914
508, 1.90722, 0.12884, 216.108, 0, 0, 0.000976562, -0.0634766, 0.333008, -9.7207, 1.12.2022 20:49:48.922
509, 1.90722, 0.12884, 216.108, 0, -0.000976562, 0, -0.000976562, 0.316406, -9.81934, 1.12.2022 20:49:48.930
510, 1.90722, 0.12884, 216.108, -0.000976562, 0, 0, 0.00976562, 0.302734, -9.74414, 1.12.2022 20:49:48.938
511, 1.90722, 0.12884, 216.108, -0.000976562, -0.00195312, 0, -0.0800781, 0.30957, -9.72168, 1.12.2022 20:49:48.946
512, 1.90722, 0.12884, 216.108, -0.00195312, -0.000976562, -0.000976562, 0.0166016, 0.324219, -9.75098, 1.12.2022 20:49:48.954
513, 1.90722, 0.12884, 216.108, -0.00195312, -0.000976562, -0.000976562, -0.0498047, 0.352539, -9.74219, 1.12.2022 20:49:48.962
514, 1.90722, 0.12884, 216.108, 0, -0.000976562, 0, -0.00292969, 0.320312, -9.77441, 1.12.2022 20:49:48.970
515, 1.90722, 0.12884, 216.108, -0.000976562, -0.000976562, 0, -0.000976562, 0.324219, -9.82422, 1.12.2022 20:49:48.978
516, 1.90722, 0.12884, 216.108, -0.000976562, 0, -0.000976562, -0.03125, 0.34668, -9.78516, 1.12.2022 20:49:48.986
517, 1.90722, 0.12884, 216.108, -0.000976562, 0, -0.000976562, 0.0136719, 0.311523, -9.80078, 1.12.2022 20:49:48.994
518, 1.90722, 0.12884, 216.108, -0.000976562, -0.000976562, -0.000976562, -0.0380859, 0.347656, -9.74414, 1.12.2022 20:49:49.002
519, 1.90938, 0.122191, 216.108, 0.000976562, -0.000976562, -0.000976562, -0.0546875, 0.362305, -9.73926, 1.12.2022 20:49:49.010
520, 1.90938, 0.122191, 216.108, -0.000976562, -0.000976562, 0, 0.0166016, 0.302734, -9.74707, 1.12.2022 20:49:49.018
521, 1.90938, 0.122191, 216.108, 0.000976562, -0.000976562, 0, -0.0400391, 0.337891, -9.7334, 1.12.2022 20:49:49.026
522, 1.90938, 0.122191, 216.108, -0.000976562, -0.000976562, -0.000976562, -0.00488281, 0.322266, -9.76465, 1.12.2022 20:49:49.034
523, 1.90938, 0.122191, 216.108, 0.000976562, -0.000976562, -0.000976562, 0.00390625, 0.306641, -9.79883, 1.12.2022 20:49:49.042
524, 1.90938, 0.122191, 216.108, 0.000976562, -0.00195312, -0.000976562, -0.0722656, 0.336914, -9.78418, 1.12.2022 20:49:49.050
525, 1.90938, 0.122191, 216.108, -0.000976562, 0, 0, 0.0244141, 0.326172, -9.74414, 1.12.2022 20:49:49.058
526, 1.90938, 0.122191, 216.108, 0.000976562, 0, 0, -0.0380859, 0.322266, -9.75, 1.12.2022 20:49:49.066
527, 1.90938, 0.122191, 216.108, -0.00195312, -0.000976562, 0, -0.0546875, 0.338867, -9.77051, 1.12.2022 20:49:49.074
528, 1.90938, 0.122191, 216.108, -0.000976562, 0, 0, 0.0351562, 0.333984, -9.76953, 1.12.2022 20:49:49.082
529, 1.90938, 0.122191, 216.108, -0.000976562, -0.000976562, -0.000976562, -0.0566406, 0.327148, -9.75, 1.12.2022 20:49:49.090
530, 1.90938, 0.122191, 216.108, 0.000976562, 0, -0.000976562, -0.03125, 0.310547, -9.7666, 1.12.2022 20:49:49.098
531, 1.90938, 0.122191, 216.108, 0.000976562, 0, -0.000976562, 0.00878906, 0.301758, -9.80566, 1.12.2022 20:49:49.106
532, 1.90938, 0.122191, 216.108, -0.000976562, 0, -0.000976562, -0.0693359, 0.351562, -9.78906, 1.12.2022 20:49:49.114
533, 1.90938, 0.122191, 216.108, -0.000976562, 0, 0.000976562, 0.0380859, 0.319336, -9.75098, 1.12.2022 20:49:49.122
534, 1.90938, 0.122191, 216.108, 0.00195312, -0.000976562, 0, -0.0078125, 0.301758, -9.80566, 1.12.2022 20:49:49.130
535, 1.90938, 0.122191, 216.108, 0.000976562, -0.000976562, -0.000976562, -0.0214844, 0.324219, -9.74512, 1.12.2022 20:49:49.138
536, 1.90938, 0.122191, 216.108, 0.000976562, -0.000976562, -0.000976562, 0.0175781, 0.290039, -9.73047, 1.12.2022 20:49:49.146
537, 1.90938, 0.122191, 216.108, -0.000976562, 0, -0.00195312, -0.0664062, 0.329102, -9.74902, 1.12.2022 20:49:49.154
538, 1.90938, 0.122191, 216.108, -0.000976562, -0.000976562, -0.000976562, 0, 0.351562, -9.78027, 1.12.2022 20:49:49.162
539, 1.90938, 0.122191, 216.108, -0.000976562, -0.000976562, 0, -0.0195312, 0.310547, -9.75586, 1.12.2022 20:49:49.170
540, 1.90938, 0.122191, 216.108, -0.000976562, 0, 0, -0.0527344, 0.34668, -9.77734, 1.12.2022 20:49:49.178
541, 1.90491, 0.113374, 216.108, -0.000976562, 0, 0, 0.0214844, 0.283203, -9.7334, 1.12.2022 20:49:49.186
542, 1.90491, 0.113374, 216.108, -0.000976562, -0.000976562, -0.000976562, -0.0126953, 0.308594, -9.78125, 1.12.2022 20:49:49.194
543, 1.90491, 0.113374, 216.108, -0.00195312, 0, -0.000976562, -0.0693359, 0.34082, -9.74902, 1.12.2022 20:49:49.202
544, 1.90491, 0.113374, 216.108, -0.00195312, -0.000976562, -0.000976562, 0.0214844, 0.324219, -9.76465, 1.12.2022 20:49:49.210
545, 1.90491, 0.113374, 216.108, -0.000976562, 0, 0, -0.0419922, 0.335938, -9.72363, 1.12.2022 20:49:49.218
546, 1.90491, 0.113374, 216.108, -0.000976562, 0, 0, -0.0166016, 0.337891, -9.73145, 1.12.2022 20:49:49.226
547, 1.90491, 0.113374, 216.108, 0.000976562, -0.000976562, 0, 0.0283203, 0.338867, -9.7627, 1.12.2022 20:49:49.234
548, 1.90491, 0.113374, 216.108, -0.000976562, -0.000976562, -0.000976562, -0.0390625, 0.351562, -9.79199, 1.12.2022 20:49:49.242
549, 1.90491, 0.113374, 216.108, -0.000976562, 0, -0.00195312, 0.0214844, 0.332031, -9.75977, 1.12.2022 20:49:49.250
550, 1.90491, 0.113374, 216.108, -0.000976562, 0, -0.000976562, -0.0341797, 0.313477, -9.78809, 1.12.2022 20:49:49.258
551, 1.90491, 0.113374, 216.108, -0.000976562, 0, -0.000976562, -0.0498047, 0.336914, -9.75684, 1.12.2022 20:49:49.266
552, 1.90491, 0.113374, 216.108, -0.00195312, -0.000976562, 0, 0.0195312, 0.30957, -9.73047, 1.12.2022 20:49:49.274
553, 1.90491, 0.113374, 216.108, -0.000976562, -0.000976562, -0.000976562, -0.0166016, 0.329102, -9.74805, 1.12.2022 20:49:49.282
554, 1.90524, 0.113404, 216.106, -0.000976562, 0, -0.00195312, -0.0644531, 0.34668, -9.7627, 1.12.2022 20:49:49.290
555, 1.9074, 0.106755, 216.107, -0.000976562, 0, -0.000976562, 0.0302734, 0.300781, -9.77734, 1.12.2022 20:49:49.298
556, 1.9074, 0.106755, 216.107, -0.000976562, -0.000976562, -0.000976562, -0.0537109, 0.345703, -9.82227, 1.12.2022 20:49:49.306
557, 1.9074, 0.106755, 216.107, -0.000976562, 0, 0, 0.00878906, 0.320312, -9.77441, 1.12.2022 20:49:49.314
558, 1.9074, 0.106755, 216.107, 0, -0.000976562, 0, -0.0126953, 0.31543, -9.7832, 1.12.2022 20:49:49.322
559, 1.9074, 0.106755, 216.107, -0.000976562, 0.000976562, -0.000976562, -0.0380859, 0.3125, -9.74121, 1.12.2022 20:49:49.330
560, 1.9074, 0.106755, 216.107, -0.000976562, 0, -0.000976562, 0.00878906, 0.333008, -9.79492, 1.12.2022 20:49:49.338
561, 1.9074, 0.106755, 216.107, 0, 0, -0.000976562, -0.0253906, 0.335938, -9.73047, 1.12.2022 20:49:49.346
562, 1.9074, 0.106755, 216.107, 0, -0.000976562, 0, -0.0117188, 0.3125, -9.75293, 1.12.2022 20:49:49.354
563, 1.9074, 0.106755, 216.107, -0.000976562, 0.000976562, 0, 0.0166016, 0.297852, -9.74707, 1.12.2022 20:49:49.362
564, 1.90957, 0.100106, 216.107, -0.000976562, -0.000976562, -0.00195312, -0.0576172, 0.356445, -9.78223, 1.12.2022 20:49:49.368
565, 1.90957, 0.100106, 216.107, 0, -0.000976562, -0.00195312, 0.0117188, 0.320312, -9.78906, 1.12.2022 20:49:49.376
566, 1.90957, 0.100106, 216.107, 0, -0.000976562, -0.000976562, -0.0205078, 0.321289, -9.82129, 1.12.2022 20:49:49.384
567, 1.90957, 0.100106, 216.107, 0, 0, 0, -0.0214844, 0.332031, -9.76172, 1.12.2022 20:49:49.392
568, 1.90957, 0.100106, 216.107, 0, -0.000976562, 0, 0.0498047, 0.296875, -9.7832, 1.12.2022 20:49:49.400
569, 1.90957, 0.100106, 216.107, -0.000976562, -0.000976562, 0, -0.0224609, 0.325195, -9.79297, 1.12.2022 20:49:49.408
570, 1.90957, 0.100106, 216.107, -0.000976562, -0.000976562, 0, -0.0380859, 0.34668, -9.76855, 1.12.2022 20:49:49.416
571, 1.90957, 0.100106, 216.107, -0.000976562, 0, -0.000976562, 0.0576172, 0.326172, -9.74707, 1.12.2022 20:49:49.424
572, 1.90957, 0.100106, 216.107, -0.000976562, -0.000976562, -0.000976562, -0.110352, 0.369141, -9.79492, 1.12.2022 20:49:49.432
573, 1.90957, 0.100106, 216.107, -0.000976562, -0.000976562, 0, -0.0244141, 0.323242, -9.77832, 1.12.2022 20:49:49.440
574, 1.90957, 0.100106, 216.107, -0.00195312, -0.000976562, 0, -0.0292969, 0.324219, -9.81348, 1.12.2022 20:49:49.448
575, 1.90957, 0.100106, 216.107, -0.00195312, 0, -0.000976562, -0.0732422, 0.307617, -9.7334, 1.12.2022 20:49:49.456
576, 1.90957, 0.100106, 216.107, -0.000976562, -0.00195312, -0.000976562, 0.0361328, 0.324219, -9.75098, 1.12.2022 20:49:49.464
577, 1.90957, 0.100106, 216.107, -0.000976562, -0.000976562, -0.000976562, -0.00292969, 0.317383, -9.6709, 1.12.2022 20:49:49.472
578, 1.90957, 0.100106, 216.107, -0.000976562, -0.000976562, 0, -0.0361328, 0.336914, -9.77051, 1.12.2022 20:49:49.480
579, 1.90957, 0.100106, 216.107, -0.000976562, 0.000976562, -0.000976562, 0.0253906, 0.313477, -9.77734, 1.12.2022 20:49:49.488
580, 1.91173, 0.0934575, 216.107, -0.00195312, -0.000976562, 0, -0.0957031, 0.316406, -9.78711, 1.12.2022 20:49:49.496
581, 1.91173, 0.0934575, 216.107, -0.00195312, 0, -0.000976562, -0.0283203, 0.304688, -9.74316, 1.12.2022 20:49:49.504
582, 1.90957, 0.100106, 216.107, -0.000976562, -0.000976562, -0.000976562, -0.0078125, 0.310547, -9.78613, 1.12.2022 20:49:49.512
583, 1.90957, 0.100106, 216.107, -0.000976562, 0, -0.000976562, -0.0712891, 0.324219, -9.74902, 1.12.2022 20:49:49.520
584, 1.90957, 0.100106, 216.107, -0.000976562, 0, 0, 0.0195312, 0.333008, -9.72949, 1.12.2022 20:49:49.528
585, 1.90957, 0.100106, 216.107, -0.000976562, -0.000976562, 0, -0.0214844, 0.352539, -9.74707, 1.12.2022 20:49:49.536
586, 1.90957, 0.100106, 216.107, -0.000976562, -0.000976562, 0, -0.03125, 0.339844, -9.79883, 1.12.2022 20:49:49.544
587, 1.90957, 0.100106, 216.107, 0.000976562, 0, 0, 0.0214844, 0.302734, -9.75586, 1.12.2022 20:49:49.552
588, 1.90957, 0.100106, 216.107, 0.000976562, 0, -0.000976562, -0.0439453, 0.321289, -9.7998, 1.12.2022 20:49:49.560
589, 1.90957, 0.100106, 216.107, 0.00195312, 0, -0.000976562, -0.0361328, 0.310547, -9.7832, 1.12.2022 20:49:49.568
590, 1.90957, 0.100106, 216.107, 0.000976562, 0, -0.000976562, -0.0244141, 0.336914, -9.77539, 1.12.2022 20:49:49.576
591, 1.90957, 0.100106, 216.107, -0.000976562, -0.000976562, 0, -0.0644531, 0.355469, -9.74121, 1.12.2022 20:49:49.584
592, 1.90707, 0.106725, 216.108, -0.000976562, -0.000976562, 0, -0.0175781, 0.31543, -9.7832, 1.12.2022 20:49:49.592
593, 1.90707, 0.106725, 216.108, -0.000976562, 0, 0.000976562, 0.0195312, 0.288086, -9.74023, 1.12.2022 20:49:49.600
594, 1.90707, 0.106725, 216.108, -0.000976562, -0.000976562, 0, -0.0673828, 0.310547, -9.77344, 1.12.2022 20:49:49.608
595, 1.90707, 0.106725, 216.108, -0.000976562, 0, -0.00195312, 0.0332031, 0.303711, -9.78711, 1.12.2022 20:49:49.616
596, 1.90707, 0.106725, 216.108, -0.00195312, -0.000976562, -0.000976562, -0.119141, 0.352539, -9.72852, 1.12.2022 20:49:49.624
597, 1.90707, 0.106725, 216.108, -0.000976562, 0, 0, -0.00488281, 0.327148, -9.78125, 1.12.2022 20:49:49.632
598, 1.90491, 0.113374, 216.108, -0.000976562, 0, 0, 0, 0.34375, -9.7666, 1.12.2022 20:49:49.640
599, 1.90491, 0.113374, 216.108, -0.000976562, 0, 0, -0.0576172, 0.322266, -9.77539, 1.12.2022 20:49:49.648
600, 1.90491, 0.113374, 216.108, -0.000976562, 0, -0.000976562, 0.0146484, 0.291016, -9.76074, 1.12.2022 20:49:49.656
601, 1.90491, 0.113374, 216.108, 0.000976562, 0, -0.000976562, -0.0302734, 0.290039, -9.7207, 1.12.2022 20:49:49.664
602, 1.90491, 0.113374, 216.108, -0.000976562, -0.000976562, -0.000976562, -0.0673828, 0.368164, -9.7793, 1.12.2022 20:49:49.672
603, 1.90491, 0.113374, 216.108, -0.000976562, -0.000976562, -0.000976562, 0.00683594, 0.303711, -9.78711, 1.12.2022 20:49:49.680
604, 1.90274, 0.120024, 216.108, -0.000976562, 0, 0, -0.0546875, 0.365234, -9.76465, 1.12.2022 20:49:49.688
605, 1.90274, 0.120024, 216.108, -0.000976562, 0, 0.000976562, -0.0166016, 0.333984, -9.75488, 1.12.2022 20:49:49.696
606, 1.90274, 0.120024, 216.108, -0.000976562, -0.000976562, -0.000976562, 0.0283203, 0.313477, -9.7793, 1.12.2022 20:49:49.704
607, 1.90274, 0.120024, 216.108, -0.000976562, 0, -0.00195312, -0.0673828, 0.334961, -9.77246, 1.12.2022 20:49:49.712
608, 1.90274, 0.120024, 216.108, 0, -0.000976562, -0.00195312, -0.00585938, 0.30957, -9.81445, 1.12.2022 20:49:49.720
609, 1.90274, 0.120024, 216.108, 0, 0, -0.00195312, 0.0136719, 0.327148, -9.77637, 1.12.2022 20:49:49.728
610, 1.9009, 0.126701, 216.106, 0.000976562, -0.000976562, -0.000976562, -0.0839844, 0.348633, -9.76953, 1.12.2022 20:49:49.736
611, 1.9009, 0.126701, 216.106, -0.000976562, 0, 0, 0, 0.300781, -9.75098, 1.12.2022 20:49:49.744
612, 1.90057, 0.126673, 216.108, -0.000976562, 0, 0.000976562, -0.0478516, 0.270508, -9.78711, 1.12.2022 20:49:49.752
613, 1.90057, 0.126673, 216.108, -0.000976562, 0, 0, -0.00878906, 0.320312, -9.69824, 1.12.2022 20:49:49.760
614, 1.90057, 0.126673, 216.108, -0.000976562, -0.000976562, -0.000976562, -0.0107422, 0.334961, -9.70996, 1.12.2022 20:49:49.768
615, 1.90057, 0.126673, 216.108, 0, -0.000976562, -0.000976562, -0.0693359, 0.355469, -9.74902, 1.12.2022 20:49:49.776
616, 1.90057, 0.126673, 216.108, -0.000976562, 0, -0.000976562, 0.0166016, 0.322266, -9.77441, 1.12.2022 20:49:49.784
617, 1.90057, 0.126673, 216.108, 0, 0, -0.000976562, -0.0224609, 0.311523, -9.81641, 1.12.2022 20:49:49.792
618, 1.90057, 0.126673, 216.108, -0.000976562, 0, -0.000976562, -0.0517578, 0.352539, -9.7207, 1.12.2022 20:49:49.800
619, 1.9009, 0.126701, 216.106, -0.00195312, 0, -0.000976562, 0.0263672, 0.291016, -9.75, 1.12.2022 20:49:49.808
620, 1.89874, 0.13335, 216.106, -0.000976562, 0, 0, -0.0800781, 0.314453, -9.72559, 1.12.2022 20:49:49.816
621, 1.89874, 0.13335, 216.106, -0.000976562, 0, -0.000976562, -0.0322266, 0.317383, -9.83789, 1.12.2022 20:49:49.824
622, 1.89874, 0.13335, 216.106, -0.000976562, 0, -0.000976562, 0.0214844, 0.331055, -9.75293, 1.12.2022 20:49:49.832
623, 1.89874, 0.13335, 216.106, -0.000976562, -0.000976562, 0, -0.03125, 0.345703, -9.75684, 1.12.2022 20:49:49.840
624, 1.89874, 0.13335, 216.106, 0.000976562, -0.000976562, -0.000976562, 0.00878906, 0.305664, -9.77441, 1.12.2022 20:49:49.848
625, 1.89874, 0.13335, 216.106, 0, -0.000976562, -0.000976562, 0.0214844, 0.302734, -9.75391, 1.12.2022 20:49:49.856
626, 1.89874, 0.13335, 216.106, -0.000976562, 0, 0, -0.0761719, 0.348633, -9.76074, 1.12.2022 20:49:49.864
627, 1.89874, 0.13335, 216.106, -0.000976562, 0, -0.000976562, 0.0449219, 0.300781, -9.76172, 1.12.2022 20:49:49.872
628, 1.89874, 0.13335, 216.106, 0, 0, -0.000976562, -0.0400391, 0.322266, -9.74512, 1.12.2022 20:49:49.880
629, 1.89209, 0.131183, 216.106, 0, 0, -0.000976562, -0.0449219, 0.329102, -9.76172, 1.12.2022 20:49:49.888
630, 1.89209, 0.131183, 216.106, -0.000976562, -0.000976562, 0, -0.00292969, 0.336914, -9.77832, 1.12.2022 20:49:49.896
631, 1.89209, 0.131183, 216.106, -0.000976562, -0.00195312, 0, -0.0654297, 0.357422, -9.80566, 1.12.2022 20:49:49.904
632, 1.89209, 0.131183, 216.106, -0.000976562, -0.000976562, -0.000976562, 0.0205078, 0.297852, -9.81738, 1.12.2022 20:49:49.912
633, 1.89209, 0.131183, 216.106, -0.000976562, -0.000976562, -0.000976562, -0.00488281, 0.320312, -9.7793, 1.12.2022 20:49:49.920
634, 1.89209, 0.131183, 216.106, -0.000976562, -0.000976562, -0.000976562, -0.0595703, 0.344727, -9.78223, 1.12.2022 20:49:49.928
635, 1.89209, 0.131183, 216.106, -0.000976562, 0, 0, 0.0244141, 0.382812, -9.71387, 1.12.2022 20:49:49.936
636, 1.89874, 0.13335, 216.106, -0.000976562, 0, -0.000976562, -0.0429688, 0.332031, -9.76172, 1.12.2022 20:49:49.944
637, 1.89874, 0.13335, 216.106, -0.000976562, 0, 0, -0.0566406, 0.355469, -9.8457, 1.12.2022 20:49:49.952
638, 1.9009, 0.126701, 216.106, -0.000976562, 0, -0.000976562, 0.0214844, 0.291016, -9.76172, 1.12.2022 20:49:49.960
639, 1.9009, 0.126701, 216.106, -0.000976562, -0.000976562, -0.000976562, -0.0849609, 0.318359, -9.70703, 1.12.2022 20:49:49.968
640, 1.9009, 0.126701, 216.106, -0.000976562, -0.000976562, -0.000976562, 0.0078125, 0.34082, -9.74316, 1.12.2022 20:49:49.976
641, 1.9009, 0.126701, 216.106, -0.000976562, 0, -0.000976562, 0.0292969, 0.345703, -9.74316, 1.12.2022 20:49:49.984
642, 1.9009, 0.126701, 216.106, -0.000976562, -0.000976562, -0.000976562, -0.0458984, 0.336914, -9.76855, 1.12.2022 20:49:49.992
643, 1.9009, 0.126701, 216.106, -0.000976562, -0.000976562, 0, 0.0449219, 0.325195, -9.77441, 1.12.2022 20:49:50.000
644, 1.9009, 0.126701, 216.106, 0.000976562, -0.000976562, 0, -0.0390625, 0.306641, -9.79297, 1.12.2022 20:49:50.008
645, 1.90755, 0.128869, 216.106, -0.000976562, 0, -0.000976562, -0.0175781, 0.318359, -9.78125, 1.12.2022 20:49:50.016
646, 1.90755, 0.128869, 216.106, -0.000976562, 0, -0.000976562, 0.0498047, 0.292969, -9.75, 1.12.2022 20:49:50.024
647, 1.90755, 0.128869, 216.106, -0.000976562, 0, -0.000976562, -0.0859375, 0.34668, -9.7793, 1.12.2022 20:49:50.032
648, 1.90971, 0.12222, 216.106, -0.000976562, 0, -0.000976562, -0.0410156, 0.320312, -9.7666, 1.12.2022 20:49:50.040
649, 1.90971, 0.12222, 216.106, -0.000976562, 0, 0, 0.0185547, 0.327148, -9.7793, 1.12.2022 20:49:50.048
650, 1.90971, 0.12222, 216.106, -0.000976562, -0.000976562, 0, -0.0810547, 0.333008, -9.73047, 1.12.2022 20:49:50.056
651, 1.90971, 0.12222, 216.106, -0.000976562, 0, 0, 0.0400391, 0.296875, -9.79492, 1.12.2022 20:49:50.064
652, 1.90971, 0.12222, 216.106, -0.000976562, 0, -0.000976562, -0.0478516, 0.295898, -9.75098, 1.12.2022 20:49:50.072
653, 1.90971, 0.12222, 216.106, 0, 0, -0.000976562, -0.0507812, 0.354492, -9.78223, 1.12.2022 20:49:50.080
654, 1.90971, 0.12222, 216.106, -0.000976562, 0, 0, 0.0429688, 0.306641, -9.72852, 1.12.2022 20:49:50.088
655, 1.90971, 0.12222, 216.106, -0.000976562, -0.000976562, 0, -0.0742188, 0.34082, -9.75391, 1.12.2022 20:49:50.096
656, 1.91188, 0.115571, 216.107, -0.000976562, 0, 0, -0.0605469, 0.354492, -9.80273, 1.12.2022 20:49:50.104
657, 1.91188, 0.115571, 216.107, -0.000976562, 0, 0, 0.00390625, 0.31543, -9.78906, 1.12.2022 20:49:50.112
658, 1.91188, 0.115571, 216.107, -0.000976562, 0, 0, -0.0546875, 0.364258, -9.73242, 1.12.2022 20:49:50.120
659, 1.91155, 0.115542, 216.108, 0, 0, 0, 0.0214844, 0.307617, -9.76758, 1.12.2022 20:49:50.128
660, 1.91155, 0.115542, 216.108, -0.000976562, -0.000976562, -0.000976562, -0.0458984, 0.354492, -9.78906, 1.12.2022 20:49:50.136
661, 1.91155, 0.115542, 216.108, -0.00195312, 0, 0, -0.0771484, 0.338867, -9.82227, 1.12.2022 20:49:50.144
662, 1.91155, 0.115542, 216.108, -0.000976562, 0, 0, 0.0400391, 0.320312, -9.79395, 1.12.2022 20:49:50.152
663, 1.91155, 0.115542, 216.108, -0.000976562, 0, 0, -0.0478516, 0.338867, -9.76074, 1.12.2022 20:49:50.160
664, 1.91155, 0.115542, 216.108, 0, 0, 0, 0.00195312, 0.332031, -9.75488, 1.12.2022 20:49:50.168
665, 1.91155, 0.115542, 216.108, -0.000976562, 0, -0.000976562, 0.0302734, 0.322266, -9.77441, 1.12.2022 20:49:50.176
666, 1.91155, 0.115542, 216.108, -0.000976562, 0, 0, -0.0810547, 0.366211, -9.7832, 1.12.2022 20:49:50.184
667, 1.91819, 0.117709, 216.108, -0.000976562, 0, 0, 0.0351562, 0.302734, -9.76562, 1.12.2022 20:49:50.192
668, 1.91819, 0.117709, 216.108, -0.000976562, -0.000976562, 0, -0.0195312, 0.328125, -9.78516, 1.12.2022 20:49:50.200
669, 1.91819, 0.117709, 216.108, -0.000976562, -0.000976562, -0.000976562, -0.0634766, 0.347656, -9.73242, 1.12.2022 20:49:50.208
670, 1.91819, 0.117709, 216.108, -0.000976562, -0.000976562, -0.000976562, 0.0234375, 0.317383, -9.77246, 1.12.2022 20:49:50.216
671, 1.91819, 0.117709, 216.108, -0.000976562, 0, -0.000976562, -0.0283203, 0.299805, -9.73633, 1.12.2022 20:49:50.224
672, 1.91819, 0.117709, 216.108, 0, 0, -0.000976562, -0.0244141, 0.341797, -9.7832, 1.12.2022 20:49:50.232
673, 1.91819, 0.117709, 216.108, 0, 0, -0.000976562, 0.00292969, 0.319336, -9.73145, 1.12.2022 20:49:50.240
674, 1.91819, 0.117709, 216.108, -0.000976562, -0.000976562, 0, -0.0761719, 0.352539, -9.74414, 1.12.2022 20:49:50.248
675, 1.91819, 0.117709, 216.108, -0.000976562, -0.000976562, -0.000976562, 0.00683594, 0.318359, -9.78906, 1.12.2022 20:49:50.256
676, 1.91819, 0.117709, 216.108, -0.000976562, 0, -0.000976562, -0.0498047, 0.314453, -9.7334, 1.12.2022 20:49:50.264
677, 1.91819, 0.117709, 216.108, 0, 0, 0, -0.0859375, 0.352539, -9.74414, 1.12.2022 20:49:50.272
678, 1.91819, 0.117709, 216.108, -0.000976562, 0, 0, 0.0332031, 0.329102, -9.74902, 1.12.2022 20:49:50.280
679, 1.92484, 0.119876, 216.108, -0.000976562, -0.000976562, 0, -0.0664062, 0.313477, -9.85156, 1.12.2022 20:49:50.288
680, 1.92484, 0.119876, 216.108, 0, 0, -0.000976562, -0.0429688, 0.317383, -9.75, 1.12.2022 20:49:50.296
681, 1.92484, 0.119876, 216.108, 0, -0.000976562, -0.000976562, 0.00390625, 0.320312, -9.78125, 1.12.2022 20:49:50.304
682, 1.92484, 0.119876, 216.108, -0.000976562, 0, -0.000976562, -0.0791016, 0.351562, -9.7627, 1.12.2022 20:49:50.312
683, 1.92484, 0.119876, 216.108, -0.000976562, 0, 0, 0, 0.326172, -9.73828, 1.12.2022 20:49:50.320
684, 1.92267, 0.126526, 216.108, 0, 0, 0, -0.0117188, 0.320312, -9.76953, 1.12.2022 20:49:50.328
685, 1.92267, 0.126526, 216.108, 0, 0, 0, -0.0410156, 0.323242, -9.80859, 1.12.2022 20:49:50.336
686, 1.92267, 0.126526, 216.108, -0.000976562, 0.000976562, -0.000976562, 0.0507812, 0.30957, -9.73242, 1.12.2022 20:49:50.342
687, 1.92267, 0.126526, 216.108, -0.00195312, 0, 0, -0.0722656, 0.366211, -9.79297, 1.12.2022 20:49:50.350
688, 1.92267, 0.126526, 216.108, -0.000976562, 0, -0.000976562, -0.0166016, 0.307617, -9.75586, 1.12.2022 20:49:50.358
689, 1.92267, 0.126526, 216.108, -0.00195312, -0.000976562, -0.000976562, 0.0234375, 0.295898, -9.75195, 1.12.2022 20:49:50.366
690, 1.92267, 0.126526, 216.108, -0.000976562, 0, -0.000976562, -0.0556641, 0.370117, -9.68457, 1.12.2022 20:49:50.374
691, 1.92267, 0.126526, 216.108, -0.000976562, 0, -0.000976562, 0.0234375, 0.300781, -9.76367, 1.12.2022 20:49:50.382
692, 1.92267, 0.126526, 216.108, -0.000976562, 0, -0.000976562, 0.0234375, 0.328125, -9.79102, 1.12.2022 20:49:50.390
693, 1.923, 0.126555, 216.106, -0.000976562, -0.000976562, -0.000976562, -0.0693359, 0.34668, -9.78711, 1.12.2022 20:49:50.398
694, 1.923, 0.126555, 216.106, -0.000976562, 0.000976562, 0, 0.0498047, 0.317383, -9.77539, 1.12.2022 20:49:50.406
695, 1.92267, 0.126526, 216.108, -0.000976562, -0.000976562, 0, -0.0751953, 0.331055, -9.81543, 1.12.2022 20:49:50.414
696, 1.92267, 0.126526, 216.108, -0.000976562, 0, 0, -0.0166016, 0.333984, -9.75, 1.12.2022 20:49:50.422
697, 1.92267, 0.126526, 216.108, -0.000976562, 0, 0, 0.00390625, 0.320312, -9.78613, 1.12.2022 20:49:50.430
698, 1.92267, 0.126526, 216.108, 0, 0, -0.000976562, -0.078125, 0.342773, -9.72949, 1.12.2022 20:49:50.438
699, 1.92267, 0.126526, 216.108, -0.000976562, -0.000976562, 0, -0.0546875, 0.324219, -9.74707, 1.12.2022 20:49:50.446
700, 1.92267, 0.126526, 216.108, -0.000976562, 0, 0, 0.00878906, 0.294922, -9.80078, 1.12.2022 20:49:50.454
701, 1.92267, 0.126526, 216.108, -0.000976562, 0, 0, -0.0478516, 0.360352, -9.75391, 1.12.2022 20:49:50.462
702, 1.92267, 0.126526, 216.108, -0.000976562, 0, -0.000976562, 0.0507812, 0.294922, -9.72656, 1.12.2022 20:49:50.470
703, 1.92267, 0.126526, 216.108, -0.000976562, -0.000976562, 0, -0.0292969, 0.351562, -9.78223, 1.12.2022 20:49:50.478
704, 1.92267, 0.126526, 216.108, 0, 0, 0, -0.0146484, 0.327148, -9.77344, 1.12.2022 20:49:50.486
705, 1.92267, 0.126526, 216.108, -0.00195312, 0, -0.000976562, 0.0263672, 0.34668, -9.77148, 1.12.2022 20:49:50.494
706, 1.92267, 0.126526, 216.108, -0.000976562, 0, -0.000976562, -0.0712891, 0.288086, -9.75, 1.12.2022 20:49:50.502
707, 1.92267, 0.126526, 216.108, 0, 0, -0.000976562, -0.0458984, 0.327148, -9.77148, 1.12.2022 20:49:50.510
708, 1.92484, 0.119876, 216.108, -0.000976562, 0, 0, 0.0117188, 0.297852, -9.75879, 1.12.2022 20:49:50.518
709, 1.92484, 0.119876, 216.108, -0.000976562, 0, -0.000976562, -0.0576172, 0.365234, -9.76465, 1.12.2022 20:49:50.526
710, 1.92484, 0.119876, 216.108, -0.00195312, 0, 0, 0.0380859, 0.338867, -9.76953, 1.12.2022 20:49:50.534
711, 1.92484, 0.119876, 216.108, -0.000976562, 0, 0, -0.0263672, 0.320312, -9.79297, 1.12.2022 20:49:50.542
712, 1.92484, 0.119876, 216.108, -0.000976562, 0, 0, -0.0078125, 0.380859, -9.81055, 1.12.2022 20:49:50.550
713, 1.92484, 0.119876, 216.108, -0.00195312, 0, 0, 0.0449219, 0.325195, -9.79883, 1.12.2022 20:49:50.558
714, 1.92484, 0.119876, 216.108, -0.000976562, 0.000976562, 0, -0.0546875, 0.307617, -9.75977, 1.12.2022 20:49:50.566
715, 1.92484, 0.119876, 216.108, -0.000976562, -0.000976562, -0.000976562, 0.0146484, 0.314453, -9.75098, 1.12.2022 20:49:50.574
716, 1.92484, 0.119876, 216.108, -0.00195312, 0, -0.000976562, 0.0117188, 0.297852, -9.75195, 1.12.2022 20:49:50.582
717, 1.92484, 0.119876, 216.108, -0.00195312, -0.000976562, 0, -0.0722656, 0.325195, -9.79199, 1.12.2022 20:49:50.590
718, 1.927, 0.113227, 216.108, -0.000976562, -0.000976562, -0.000976562, 0.0400391, 0.302734, -9.76367, 1.12.2022 20:49:50.598
719, 1.927, 0.113227, 216.108, -0.000976562, -0.000976562, 0, -0.0126953, 0.316406, -9.7959, 1.12.2022 20:49:50.606
720, 1.92036, 0.11106, 216.108, -0.000976562, -0.000976562, -0.000976562, -0.0361328, 0.349609, -9.78516, 1.12.2022 20:49:50.614
721, 1.92036, 0.11106, 216.108, -0.000976562, 0, 0, 0.0595703, 0.289062, -9.7666, 1.12.2022 20:49:50.622
722, 1.92036, 0.11106, 216.108, -0.000976562, -0.000976562, -0.000976562, -0.0488281, 0.323242, -9.80664, 1.12.2022 20:49:50.630
723, 1.92036, 0.11106, 216.108, -0.000976562, 0, -0.000976562, -0.0078125, 0.310547, -9.78418, 1.12.2022 20:49:50.638
724, 1.92036, 0.11106, 216.108, 0, 0, 0, -0.0263672, 0.318359, -9.7832, 1.12.2022 20:49:50.646
725, 1.92253, 0.104411, 216.109, 0, 0, 0, -0.0849609, 0.344727, -9.72266, 1.12.2022 20:49:50.654
726, 1.91588, 0.102243, 216.109, -0.00195312, 0, 0, -0.00488281, 0.300781, -9.74902, 1.12.2022 20:49:50.662
727, 1.91588, 0.102243, 216.109, -0.000976562, -0.000976562, -0.000976562, -0.0332031, 0.362305, -9.75391, 1.12.2022 20:49:50.670
728, 1.91588, 0.102243, 216.109, -0.000976562, -0.000976562, 0, -0.0380859, 0.34375, -9.77344, 1.12.2022 20:49:50.678
729, 1.91588, 0.102243, 216.109, -0.000976562, -0.000976562, 0, 0.0136719, 0.257812, -9.75977, 1.12.2022 20:49:50.686
730, 1.91588, 0.102243, 216.109, -0.000976562, 0, -0.000976562, -0.0136719, 0.319336, -9.74609, 1.12.2022 20:49:50.694
731, 1.91588, 0.102243, 216.109, -0.000976562, -0.000976562, -0.000976562, 0.00488281, 0.321289, -9.74609, 1.12.2022 20:49:50.702
732, 1.91588, 0.102243, 216.109, -0.000976562, -0.000976562, 0, 0.00976562, 0.314453, -9.75098, 1.12.2022 20:49:50.710
733, 1.90924, 0.100076, 216.109, -0.000976562, 0, 0, -0.0839844, 0.333008, -9.8125, 1.12.2022 20:49:50.718
734, 1.90924, 0.100076, 216.109, -0.000976562, -0.000976562, 0, -0.00292969, 0.308594, -9.78906, 1.12.2022 20:49:50.726
735, 1.90924, 0.100076, 216.109, -0.000976562, 0, -0.000976562, -0.0292969, 0.291992, -9.7793, 1.12.2022 20:49:50.734
736, 1.90924, 0.100076, 216.109, -0.000976562, -0.000976562, -0.000976562, -0.0195312, 0.339844, -9.79004, 1.12.2022 20:49:50.742
737, 1.90924, 0.100076, 216.109, -0.000976562, -0.000976562, -0.000976562, 0.0117188, 0.313477, -9.78223, 1.12.2022 20:49:50.750
738, 1.90707, 0.106725, 216.108, -0.000976562, -0.000976562, -0.000976562, -0.0146484, 0.348633, -9.76855, 1.12.2022 20:49:50.758
739, 1.90707, 0.106725, 216.108, 0, -0.000976562, -0.000976562, -0.00292969, 0.37207, -9.82031, 1.12.2022 20:49:50.766
740, 1.90043, 0.104558, 216.108, -0.000976562, -0.000976562, 0, 0.0380859, 0.271484, -9.75977, 1.12.2022 20:49:50.774
741, 1.90043, 0.104558, 216.108, 0, 0, 0, -0.0742188, 0.320312, -9.77051, 1.12.2022 20:49:50.782
742, 1.90043, 0.104558, 216.108, 0.000976562, 0.000976562, 0.000976562, 0.0185547, 0.335938, -9.80957, 1.12.2022 20:49:50.790
743, 1.90043, 0.104558, 216.108, -0.000976562, 0, -0.000976562, -0.0214844, 0.305664, -9.76465, 1.12.2022 20:49:50.798
744, 1.90259, 0.0979087, 216.108, -0.000976562, 0, -0.000976562, -0.0644531, 0.292969, -9.74316, 1.12.2022 20:49:50.806
745, 1.90259, 0.0979087, 216.108, -0.00195312, -0.00195312, -0.000976562, -0.0078125, 0.31543, -9.77441, 1.12.2022 20:49:50.814
746, 1.89378, 0.102391, 216.108, -0.000976562, -0.000976562, -0.000976562, -0.0527344, 0.334961, -9.78711, 1.12.2022 20:49:50.822
747, 1.89378, 0.102391, 216.108, 0.000976562, 0, 0, -0.0244141, 0.354492, -9.80566, 1.12.2022 20:49:50.830
748, 1.89378, 0.102391, 216.108, 0.000976562, 0, 0, 0.0244141, 0.290039, -9.71875, 1.12.2022 20:49:50.838
749, 1.89378, 0.102391, 216.108, 0.000976562, 0, -0.000976562, -0.0673828, 0.327148, -9.77344, 1.12.2022 20:49:50.846
750, 1.89378, 0.102391, 216.108, -0.000976562, 0, -0.000976562, 0.0146484, 0.310547, -9.76074, 1.12.2022 20:49:50.854
751, 1.89378, 0.102391, 216.108, -0.000976562, 0, -0.000976562, -0.0078125, 0.341797, -9.79004, 1.12.2022 20:49:50.862
752, 1.89378, 0.102391, 216.108, -0.000976562, 0, 0, -0.0683594, 0.357422, -9.73242, 1.12.2022 20:49:50.870
753, 1.88714, 0.100223, 216.108, 0.000976562, 0, 0.000976562, 0.0449219, 0.28125, -9.76465, 1.12.2022 20:49:50.878
754, 1.88714, 0.100223, 216.108, 0.000976562, 0.000976562, 0, -0.0185547, 0.317383, -9.75, 1.12.2022 20:49:50.886
755, 1.88714, 0.100223, 216.108, 0.00195312, -0.000976562, 0, -0.0449219, 0.333984, -9.74512, 1.12.2022 20:49:50.894
756, 1.88714, 0.100223, 216.108, 0.000976562, -0.000976562, -0.000976562, 0.0234375, 0.329102, -9.7627, 1.12.2022 20:49:50.902
757, 1.88714, 0.100223, 216.108, 0.000976562, -0.000976562, -0.000976562, -0.0419922, 0.355469, -9.73535, 1.12.2022 20:49:50.910
758, 1.88714, 0.100223, 216.108, -0.000976562, -0.000976562, -0.000976562, 0.0117188, 0.339844, -9.77637, 1.12.2022 20:49:50.918
759, 1.88714, 0.100223, 216.108, -0.000976562, 0, -0.000976562, 0.00195312, 0.306641, -9.80273, 1.12.2022 20:49:50.926
760, 1.88714, 0.100223, 216.108, 0.000976562, -0.000976562, 0, -0.0644531, 0.338867, -9.76074, 1.12.2022 20:49:50.934
761, 1.88714, 0.100223, 216.108, 0.000976562, 0.000976562, 0, 0.0263672, 0.329102, -9.76953, 1.12.2022 20:49:50.942
762, 1.88714, 0.100223, 216.108, -0.00195312, 0, 0, -0.0371094, 0.314453, -9.80664, 1.12.2022 20:49:50.950
763, 1.88714, 0.100223, 216.108, -0.000976562, 0, -0.000976562, -0.0283203, 0.307617, -9.75488, 1.12.2022 20:49:50.958
764, 1.88714, 0.100223, 216.108, -0.000976562, 0, 0, 0.00683594, 0.307617, -9.75098, 1.12.2022 20:49:50.966
765, 1.88714, 0.100223, 216.108, -0.000976562, -0.000976562, 0, -0.078125, 0.321289, -9.73047, 1.12.2022 20:49:50.974
766, 1.88714, 0.100223, 216.108, -0.000976562, -0.000976562, 0, -0.0117188, 0.317383, -9.75293, 1.12.2022 20:49:50.982
767, 1.88714, 0.100223, 216.108, -0.000976562, -0.000976562, 0, 0.00292969, 0.290039, -9.7373, 1.12.2022 20:49:50.990
768, 1.88714, 0.100223, 216.108, -0.000976562, -0.000976562, 0, -0.0527344, 0.336914, -9.76074, 1.12.2022 20:49:50.998
769, 1.88714, 0.100223, 216.108, -0.000976562, -0.000976562, 0, 0.0263672, 0.332031, -9.75977, 1.12.2022 20:49:51.006
770, 1.88714, 0.100223, 216.108, -0.000976562, 0.000976562, 0, -0.03125, 0.349609, -9.78223, 1.12.2022 20:49:51.014
771, 1.88725, 0.100112, 216.1, -0.000976562, 0, 0, -0.0341797, 0.351562, -9.78223, 1.12.2022 20:49:51.022
772, 1.88725, 0.100112, 216.1, -0.000976562, 0, 0, 0.0244141, 0.311523, -9.72559, 1.12.2022 20:49:51.030
773, 1.88725, 0.100112, 216.1, -0.000976562, 0, 0, -0.0673828, 0.31543, -9.76855, 1.12.2022 20:49:51.038
774, 1.88725, 0.100112, 216.1, -0.000976562, 0.000976562, 0, 0.0078125, 0.318359, -9.71973, 1.12.2022 20:49:51.046
775, 1.88725, 0.100112, 216.1, 0, -0.000976562, -0.000976562, -0.00585938, 0.287109, -9.80078, 1.12.2022 20:49:51.054
776, 1.88725, 0.100112, 216.1, -0.000976562, -0.000976562, 0, -0.0263672, 0.3125, -9.74609, 1.12.2022 20:49:51.062
777, 1.88725, 0.100112, 216.1, -0.00195312, -0.000976562, -0.000976562, 0.0332031, 0.313477, -9.7793, 1.12.2022 20:49:51.070
778, 1.88725, 0.100112, 216.1, -0.000976562, 0, -0.000976562, -0.00976562, 0.31543, -9.77637, 1.12.2022 20:49:51.078
779, 1.88714, 0.100223, 216.108, -0.000976562, 0, -0.000976562, -0.0478516, 0.365234, -9.74414, 1.12.2022 20:49:51.086
780, 1.88714, 0.100223, 216.108, -0.000976562, 0, 0, 0.0429688, 0.300781, -9.75879, 1.12.2022 20:49:51.094
781, 1.88714, 0.100223, 216.108, -0.000976562, 0, 0, -0.0458984, 0.318359, -9.77637, 1.12.2022 20:49:51.102
782, 1.88942, 0.0934626, 216.101, -0.000976562, 0, 0, -0.00976562, 0.289062, -9.76562, 1.12.2022 20:49:51.110
783, 1.88942, 0.0934626, 216.101, 0, -0.000976562, 0, -0.00292969, 0.287109, -9.78906, 1.12.2022 20:49:51.118
784, 1.88942, 0.0934626, 216.101, 0, 0, 0, -0.0615234, 0.357422, -9.72949, 1.12.2022 20:49:51.126
785, 1.88942, 0.0934626, 216.101, -0.000976562, 0, 0, 0.015625, 0.371094, -9.80176, 1.12.2022 20:49:51.134
786, 1.88942, 0.0934626, 216.101, -0.000976562, 0, 0, -0.0341797, 0.325195, -9.7832, 1.12.2022 20:49:51.142
787, 1.88942, 0.0934626, 216.101, -0.000976562, -0.000976562, 0, -0.0820312, 0.335938, -9.83203, 1.12.2022 20:49:51.150
788, 1.88942, 0.0934626, 216.101, 0, 0, -0.000976562, 0.0380859, 0.288086, -9.74707, 1.12.2022 20:49:51.158
789, 1.88942, 0.0934626, 216.101, -0.000976562, 0, -0.000976562, -0.0576172, 0.325195, -9.79199, 1.12.2022 20:49:51.166
790, 1.88942, 0.0934626, 216.101, -0.000976562, -0.000976562, -0.000976562, -0.0263672, 0.353516, -9.75391, 1.12.2022 20:49:51.174
791, 1.88942, 0.0934626, 216.101, -0.000976562, 0, 0, 0.00683594, 0.344727, -9.79688, 1.12.2022 20:49:51.182
792, 1.88942, 0.0934626, 216.101, -0.000976562, 0, 0, -0.0625, 0.361328, -9.78613, 1.12.2022 20:49:51.190
793, 1.88942, 0.0934626, 216.101, -0.000976562, 0, 0.000976562, 0.0253906, 0.299805, -9.80371, 1.12.2022 20:49:51.198
794, 1.88942, 0.0934626, 216.101, -0.00195312, 0, 0, 0.00195312, 0.307617, -9.76074, 1.12.2022 20:49:51.206
795, 1.88942, 0.0934626, 216.101, -0.000976562, 0, -0.000976562, -0.0693359, 0.334961, -9.77246, 1.12.2022 20:49:51.214
796, 1.88942, 0.0934626, 216.101, 0, 0, -0.000976562, 0.03125, 0.292969, -9.7373, 1.12.2022 20:49:51.222
797, 1.88942, 0.0934626, 216.101, 0, 0, -0.000976562, -0.0527344, 0.344727, -9.79883, 1.12.2022 20:49:51.230
798, 1.88942, 0.0934626, 216.101, 0, 0.000976562, 0, 0.00292969, 0.347656, -9.72656, 1.12.2022 20:49:51.238
799, 1.88942, 0.0934626, 216.101, 0, 0, -0.000976562, -0.00976562, 0.345703, -9.74707, 1.12.2022 20:49:51.246
800, 1.88942, 0.0934626, 216.101, -0.000976562, 0, 0, -0.0498047, 0.307617, -9.74316, 1.12.2022 20:49:51.254
801, 1.89606, 0.0956295, 216.101, -0.000976562, 0, -0.000976562, -0.00292969, 0.314453, -9.80762, 1.12.2022 20:49:51.262
802, 1.89595, 0.0957414, 216.108, 0, 0, -0.000976562, 0.0117188, 0.291016, -9.75195, 1.12.2022 20:49:51.270
803, 1.89595, 0.0957414, 216.108, 0, -0.000976562, 0, -0.0439453, 0.329102, -9.81348, 1.12.2022 20:49:51.278
804, 1.89595, 0.0957414, 216.108, 0, -0.000976562, 0, 0.0263672, 0.331055, -9.74414, 1.12.2022 20:49:51.286
805, 1.89606, 0.0956295, 216.101, 0, -0.000976562, 0, -0.0878906, 0.317383, -9.74512, 1.12.2022 20:49:51.294
806, 1.8939, 0.102279, 216.1, -0.00195312, -0.000976562, 0, -0.03125, 0.330078, -9.77344, 1.12.2022 20:49:51.302
807, 1.8939, 0.102279, 216.1, -0.00195312, -0.000976562, 0, -0.0126953, 0.347656, -9.80176, 1.12.2022 20:49:51.308
808, 1.8939, 0.102279, 216.1, -0.000976562, 0, -0.000976562, -0.0302734, 0.331055, -9.74023, 1.12.2022 20:49:51.316
809, 1.8939, 0.102279, 216.1, -0.000976562, -0.000976562, 0, -0.00292969, 0.34375, -9.77148, 1.12.2022 20:49:51.324
810, 1.8939, 0.102279, 216.1, -0.000976562, 0, 0, 0.00683594, 0.286133, -9.76367, 1.12.2022 20:49:51.332
811, 1.8939, 0.102279, 216.1, -0.000976562, -0.00195312, 0, -0.0703125, 0.345703, -9.8125, 1.12.2022 20:49:51.340
812, 1.8939, 0.102279, 216.1, -0.000976562, 0, 0, 0.0380859, 0.319336, -9.75391, 1.12.2022 20:49:51.348
813, 1.90054, 0.104446, 216.1, -0.000976562, -0.000976562, -0.000976562, -0.0537109, 0.331055, -9.81836, 1.12.2022 20:49:51.356
814, 1.90054, 0.104446, 216.1, -0.000976562, -0.000976562, -0.000976562, -0.0185547, 0.354492, -9.7207, 1.12.2022 20:49:51.364
815, 1.90054, 0.104446, 216.1, -0.000976562, -0.000976562, -0.000976562, -0.0244141, 0.335938, -9.80469, 1.12.2022 20:49:51.372
816, 1.90043, 0.104558, 216.108, -0.000976562, 0, 0, -0.0527344, 0.333984, -9.75684, 1.12.2022 20:49:51.380
817, 1.90054, 0.104446, 216.1, -0.000976562, -0.000976562, 0, 0.000976562, 0.355469, -9.8252, 1.12.2022 20:49:51.388
818, 1.90054, 0.104446, 216.1, 0, 0.000976562, -0.000976562, 0.0263672, 0.307617, -9.76074, 1.12.2022 20:49:51.396
819, 1.90054, 0.104446, 216.1, -0.000976562, 0, 0, -0.0693359, 0.351562, -9.79102, 1.12.2022 20:49:51.404
820, 1.90719, 0.106612, 216.1, -0.000976562, 0, 0, 0.0498047, 0.310547, -9.78223, 1.12.2022 20:49:51.412
821, 1.90719, 0.106612, 216.1, -0.000976562, -0.000976562, 0, -0.0390625, 0.323242, -9.80469, 1.12.2022 20:49:51.420
822, 1.90719, 0.106612, 216.1, 0, 0, 0, 0.0166016, 0.31543, -9.76758, 1.12.2022 20:49:51.428
823, 1.90719, 0.106612, 216.1, -0.000976562, 0, -0.000976562, 0.03125, 0.289062, -9.7666, 1.12.2022 20:49:51.436
824, 1.90719, 0.106612, 216.1, -0.00195312, 0.000976562, -0.000976562, -0.0664062, 0.327148, -9.76172, 1.12.2022 20:49:51.444
825, 1.90707, 0.106725, 216.108, -0.00195312, 0, -0.000976562, -0.00195312, 0.331055, -9.75, 1.12.2022 20:49:51.452
826, 1.90707, 0.106725, 216.108, -0.000976562, -0.000976562, 0, 0.0136719, 0.317383, -9.77441, 1.12.2022 20:49:51.460
827, 1.90707, 0.106725, 216.108, -0.000976562, 0, -0.000976562, -0.0546875, 0.332031, -9.76855, 1.12.2022 20:49:51.468
828, 1.90719, 0.106612, 216.1, -0.000976562, 0, 0.000976562, 0.0185547, 0.291016, -9.75684, 1.12.2022 20:49:51.476
829, 1.90935, 0.0999633, 216.101, -0.000976562, 0.000976562, 0, -0.0527344, 0.317383, -9.75684, 1.12.2022 20:49:51.484
830, 1.90935, 0.0999633, 216.101, -0.000976562, 0, 0, -0.0400391, 0.345703, -9.74414, 1.12.2022 20:49:51.492
831, 1.90935, 0.0999633, 216.101, -0.000976562, 0, 0, 0.0126953, 0.323242, -9.72949, 1.12.2022 20:49:51.500
832, 1.90935, 0.0999633, 216.101, -0.000976562, -0.000976562, -0.000976562, -0.0625, 0.327148, -9.76562, 1.12.2022 20:49:51.508
833, 1.90935, 0.0999633, 216.101, -0.000976562, 0, 0, -0.0214844, 0.345703, -9.75391, 1.12.2022 20:49:51.516
834, 1.90935, 0.0999633, 216.101, -0.000976562, 0, 0, -0.00488281, 0.34082, -9.75195, 1.12.2022 20:49:51.524
835, 1.90935, 0.0999633, 216.101, -0.000976562, 0, 0, -0.03125, 0.328125, -9.78516, 1.12.2022 20:49:51.532
836, 1.90935, 0.0999633, 216.101, -0.000976562, 0, 0, 0.0615234, 0.298828, -9.78516, 1.12.2022 20:49:51.540
837, 1.90935, 0.0999633, 216.101, -0.00195312, -0.000976562, -0.000976562, -0.0361328, 0.317383, -9.75293, 1.12.2022 20:49:51.548
838, 1.90935, 0.0999633, 216.101, 0, 0, 0, -0.0419922, 0.354492, -9.71094, 1.12.2022 20:49:51.556
839, 1.90935, 0.0999633, 216.101, 0, 0, -0.000976562, 0.0146484, 0.337891, -9.74121, 1.12.2022 20:49:51.564
840, 1.90935, 0.0999633, 216.101, 0, 0, -0.000976562, -0.0371094, 0.345703, -9.81055, 1.12.2022 20:49:51.572
841, 1.90935, 0.0999633, 216.101, 0, -0.000976562, 0, 0.0117188, 0.341797, -9.78613, 1.12.2022 20:49:51.580
842, 1.90935, 0.0999633, 216.101, 0, -0.000976562, -0.000976562, 0.00488281, 0.303711, -9.77051, 1.12.2022 20:49:51.588
843, 1.90935, 0.0999633, 216.101, 0, 0, -0.000976562, -0.0673828, 0.373047, -9.7832, 1.12.2022 20:49:51.596
844, 1.90935, 0.0999633, 216.101, 0, -0.000976562, 0, 0.00976562, 0.338867, -9.75488, 1.12.2022 20:49:51.604
845, 1.90935, 0.0999633, 216.101, 0, -0.000976562, 0, 0.00488281, 0.299805, -9.74707, 1.12.2022 20:49:51.612
846, 1.916, 0.10213, 216.101, 0, -0.00195312, 0, -0.0332031, 0.329102, -9.75977, 1.12.2022 20:49:51.620
847, 1.916, 0.10213, 216.101, 0, 0, -0.000976562, 0.0390625, 0.282227, -9.71973, 1.12.2022 20:49:51.628
848, 1.91816, 0.095481, 216.101, 0.000976562, 0, -0.000976562, -0.0605469, 0.306641, -9.79004, 1.12.2022 20:49:51.636
849, 1.91816, 0.095481, 216.101, 0, 0, 0, -0.00488281, 0.34668, -9.77148, 1.12.2022 20:49:51.644
850, 1.91816, 0.095481, 216.101, 0, 0, 0, 0.0195312, 0.333984, -9.74316, 1.12.2022 20:49:51.652
851, 1.91816, 0.095481, 216.101, 0.000976562, 0, 0, -0.0644531, 0.341797, -9.75586, 1.12.2022 20:49:51.660
852, 1.91152, 0.0933141, 216.101, 0.000976562, -0.000976562, 0.000976562, 0.0146484, 0.28125, -9.74512, 1.12.2022 20:49:51.668
853, 1.91152, 0.0933141, 216.101, 0, -0.000976562, 0, -0.0185547, 0.306641, -9.71777, 1.12.2022 20:49:51.676
854, 1.91152, 0.0933141, 216.101, 0, -0.000976562, -0.000976562, -0.0498047, 0.355469, -9.74609, 1.12.2022 20:49:51.684
855, 1.91152, 0.0933141, 216.101, 0, -0.000976562, -0.000976562, 0.0283203, 0.355469, -9.76172, 1.12.2022 20:49:51.692
856, 1.91152, 0.0933141, 216.101, 0.000976562, 0, -0.000976562, -0.0556641, 0.371094, -9.80762, 1.12.2022 20:49:51.700
857, 1.91152, 0.0933141, 216.101, 0.000976562, 0, 0, 0, 0.355469, -9.74707, 1.12.2022 20:49:51.708
858, 1.91152, 0.0933141, 216.101, 0.000976562, 0, 0.000976562, -0.00488281, 0.291992, -9.78223, 1.12.2022 20:49:51.716
859, 1.91152, 0.0933141, 216.101, 0, 0, 0, -0.0664062, 0.285156, -9.72461, 1.12.2022 20:49:51.724
860, 1.91152, 0.0933141, 216.101, 0.000976562, -0.000976562, -0.000976562, -0.0107422, 0.325195, -9.70508, 1.12.2022 20:49:51.732
861, 1.91152, 0.0933141, 216.101, 0.000976562, 0, -0.00195312, -0.0234375, 0.351562, -9.71387, 1.12.2022 20:49:51.740
862, 1.91152, 0.0933141, 216.101, 0, -0.000976562, 0, -0.0859375, 0.337891, -9.78906, 1.12.2022 20:49:51.748
863, 1.9114, 0.0934268, 216.109, 0, 0, -0.000976562, 0.0429688, 0.337891, -9.72949, 1.12.2022 20:49:51.756
864, 1.9114, 0.0934268, 216.109, 0, 0, -0.000976562, -0.0478516, 0.34668, -9.78223, 1.12.2022 20:49:51.764
865, 1.9114, 0.0934268, 216.109, 0, 0, -0.000976562, 0.03125, 0.314453, -9.73047, 1.12.2022 20:49:51.772
866, 1.91805, 0.0955941, 216.109, 0, 0, -0.000976562, 0.0205078, 0.296875, -9.78906, 1.12.2022 20:49:51.780
867, 1.91805, 0.0955941, 216.109, 0, 0, -0.000976562, -0.0859375, 0.339844, -9.77441, 1.12.2022 20:49:51.788
868, 1.91805, 0.0955941, 216.109, 0, -0.000976562, -0.000976562, 0.0214844, 0.310547, -9.77051, 1.12.2022 20:49:51.796
869, 1.91805, 0.0955941, 216.109, 0.000976562, 0, 0, -0.0117188, 0.304688, -9.71777, 1.12.2022 20:49:51.804
870, 1.91805, 0.0955941, 216.109, 0, -0.000976562, 0, -0.0410156, 0.366211, -9.7793, 1.12.2022 20:49:51.812
871, 1.91805, 0.0955941, 216.109, -0.000976562, 0, 0, 0.0351562, 0.287109, -9.78809, 1.12.2022 20:49:51.820
872, 1.91805, 0.0955941, 216.109, -0.000976562, 0, -0.000976562, -0.0664062, 0.296875, -9.71484, 1.12.2022 20:49:51.828
873, 1.91805, 0.0955941, 216.109, 0, -0.000976562, -0.00195312, -0.0214844, 0.301758, -9.78125, 1.12.2022 20:49:51.836
874, 1.91805, 0.0955941, 216.109, -0.000976562, -0.000976562, -0.000976562, -0.00292969, 0.318359, -9.78125, 1.12.2022 20:49:51.844
875, 1.91838, 0.0956248, 216.107, 0, 0, -0.000976562, -0.0751953, 0.339844, -9.71094, 1.12.2022 20:49:51.852
876, 1.91173, 0.0934575, 216.107, -0.000976562, 0, -0.000976562, -0.0126953, 0.334961, -9.77637, 1.12.2022 20:49:51.860
877, 1.91173, 0.0934575, 216.107, -0.000976562, -0.000976562, 0, 0, 0.301758, -9.72949, 1.12.2022 20:49:51.868
878, 1.9114, 0.0934268, 216.109, 0, -0.000976562, 0.000976562, -0.0556641, 0.320312, -9.79004, 1.12.2022 20:49:51.876
879, 1.90924, 0.100076, 216.109, 0, -0.000976562, -0.000976562, 0.046875, 0.277344, -9.77344, 1.12.2022 20:49:51.884
880, 1.90924, 0.100076, 216.109, -0.000976562, -0.000976562, -0.000976562, -0.0449219, 0.34082, -9.75195, 1.12.2022 20:49:51.892
881, 1.90924, 0.100076, 216.109, 0, 0, 0, -0.0410156, 0.382812, -9.78613, 1.12.2022 20:49:51.900
882, 1.90924, 0.100076, 216.109, -0.000976562, 0, 0, 0.0449219, 0.328125, -9.78906, 1.12.2022 20:49:51.908
883, 1.90924, 0.100076, 216.109, -0.00195312, -0.000976562, 0, -0.0527344, 0.327148, -9.75684, 1.12.2022 20:49:51.916
884, 1.90924, 0.100076, 216.109, 0, 0, 0, 0.0117188, 0.304688, -9.74414, 1.12.2022 20:49:51.924
885, 1.90924, 0.100076, 216.109, -0.000976562, -0.000976562, 0, 0.00195312, 0.321289, -9.80469, 1.12.2022 20:49:51.932
886, 1.90924, 0.100076, 216.109, -0.000976562, 0, -0.000976562, -0.0498047, 0.34375, -9.77051, 1.12.2022 20:49:51.940
887, 1.90924, 0.100076, 216.109, -0.000976562, -0.00195312, -0.000976562, 0.0136719, 0.326172, -9.80273, 1.12.2022 20:49:51.948
888, 1.90924, 0.100076, 216.109, 0, 0, -0.000976562, -0.0380859, 0.314453, -9.75293, 1.12.2022 20:49:51.956
889, 1.90259, 0.0979087, 216.108, 0, -0.000976562, 0, -0.0429688, 0.37207, -9.75293, 1.12.2022 20:49:51.964
890, 1.90259, 0.0979087, 216.108, 0, -0.000976562, 0, 0.0263672, 0.290039, -9.72363, 1.12.2022 20:49:51.972
891, 1.90259, 0.0979087, 216.108, 0, -0.000976562, -0.000976562, -0.107422, 0.325195, -9.77441, 1.12.2022 20:49:51.980
892, 1.90259, 0.0979087, 216.108, -0.000976562, 0, -0.000976562, -0.00390625, 0.308594, -9.69238, 1.12.2022 20:49:51.988
893, 1.90043, 0.104558, 216.108, -0.00195312, -0.00195312, -0.000976562, -0.0322266, 0.337891, -9.80859, 1.12.2022 20:49:51.996
894, 1.90707, 0.106725, 216.108, -0.000976562, -0.000976562, 0, -0.0644531, 0.336914, -9.77539, 1.12.2022 20:49:52.004
895, 1.90707, 0.106725, 216.108, -0.000976562, 0, 0, -0.0146484, 0.349609, -9.80176, 1.12.2022 20:49:52.012
896, 1.90707, 0.106725, 216.108, -0.000976562, 0.000976562, 0, -0.0244141, 0.308594, -9.77637, 1.12.2022 20:49:52.020
897, 1.90707, 0.106725, 216.108, -0.000976562, -0.000976562, 0, -0.0361328, 0.332031, -9.77148, 1.12.2022 20:49:52.028
898, 1.90707, 0.106725, 216.108, 0, 0, -0.000976562, 0.0292969, 0.255859, -9.71289, 1.12.2022 20:49:52.036
899, 1.90707, 0.106725, 216.108, 0, -0.000976562, -0.000976562, -0.117188, 0.337891, -9.80273, 1.12.2022 20:49:52.044
900, 1.90707, 0.106725, 216.108, 0, 0, -0.000976562, 0.0166016, 0.350586, -9.74023, 1.12.2022 20:49:52.052
901, 1.90491, 0.113374, 216.108, -0.000976562, 0, 0, 0.00292969, 0.350586, -9.73828, 1.12.2022 20:49:52.060
902, 1.90491, 0.113374, 216.108, -0.00195312, 0, 0, -0.046875, 0.326172, -9.7334, 1.12.2022 20:49:52.068
903, 1.90491, 0.113374, 216.108, -0.000976562, 0, 0, 0.0253906, 0.291992, -9.79395, 1.12.2022 20:49:52.076
904, 1.90491, 0.113374, 216.108, -0.000976562, 0, -0.000976562, -0.0410156, 0.295898, -9.75781, 1.12.2022 20:49:52.084
905, 1.90491, 0.113374, 216.108, -0.00195312, 0, -0.000976562, -0.0703125, 0.350586, -9.81055, 1.12.2022 20:49:52.092
906, 1.90491, 0.113374, 216.108, -0.00195312, 0, -0.000976562, 0.0166016, 0.326172, -9.74609, 1.12.2022 20:49:52.100
907, 1.90491, 0.113374, 216.108, -0.000976562, -0.000976562, -0.000976562, -0.0595703, 0.353516, -9.77051, 1.12.2022 20:49:52.108
908, 1.90491, 0.113374, 216.108, 0, 0, -0.000976562, -0.0136719, 0.335938, -9.74316, 1.12.2022 20:49:52.116
909, 1.90274, 0.120024, 216.108, -0.000976562, -0.000976562, 0, -0.0224609, 0.321289, -9.80273, 1.12.2022 20:49:52.124
910, 1.90274, 0.120024, 216.108, 0, 0, -0.000976562, -0.0488281, 0.332031, -9.7002, 1.12.2022 20:49:52.132
911, 1.90307, 0.120053, 216.106, -0.000976562, -0.000976562, 0, 0.00488281, 0.300781, -9.76562, 1.12.2022 20:49:52.140
912, 1.90274, 0.120024, 216.108, -0.000976562, -0.000976562, 0, -0.0742188, 0.305664, -9.77539, 1.12.2022 20:49:52.148
913, 1.90938, 0.122191, 216.108, -0.000976562, -0.000976562, -0.000976562, -0.0664062, 0.295898, -9.75293, 1.12.2022 20:49:52.156
914, 1.90971, 0.12222, 216.106, -0.000976562, -0.000976562, -0.00195312, 0.0292969, 0.294922, -9.7334, 1.12.2022 20:49:52.164
915, 1.90755, 0.128869, 216.106, -0.000976562, -0.000976562, -0.000976562, -0.0957031, 0.322266, -9.75391, 1.12.2022 20:49:52.172
916, 1.90755, 0.128869, 216.106, -0.000976562, 0, 0, -0.000976562, 0.316406, -9.7959, 1.12.2022 20:49:52.180
917, 1.90755, 0.128869, 216.106, -0.00195312, 0, 0, 0.0253906, 0.320312, -9.7793, 1.12.2022 20:49:52.188
918, 1.90755, 0.128869, 216.106, -0.000976562, -0.000976562, 0, -0.0644531, 0.336914, -9.75879, 1.12.2022 20:49:52.196
919, 1.90755, 0.128869, 216.106, 0, -0.000976562, -0.000976562, 0.0214844, 0.334961, -9.7793, 1.12.2022 20:49:52.204
920, 1.90538, 0.135517, 216.106, -0.000976562, 0, -0.000976562, -0.0449219, 0.314453, -9.73633, 1.12.2022 20:49:52.212
921, 1.90538, 0.135517, 216.106, -0.000976562, 0, 0, -0.0517578, 0.344727, -9.69531, 1.12.2022 20:49:52.220
922, 1.90538, 0.135517, 216.106, -0.000976562, 0, -0.000976562, 0.00292969, 0.30957, -9.75098, 1.12.2022 20:49:52.228
923, 1.90538, 0.135517, 216.106, -0.000976562, -0.000976562, -0.000976562, -0.0410156, 0.322266, -9.76855, 1.12.2022 20:49:52.236
924, 1.90538, 0.135517, 216.106, -0.000976562, -0.000976562, -0.000976562, -0.00683594, 0.329102, -9.75781, 1.12.2022 20:49:52.244
925, 1.90538, 0.135517, 216.106, -0.00195312, -0.000976562, -0.000976562, 0.0107422, 0.335938, -9.81445, 1.12.2022 20:49:52.252
926, 1.90538, 0.135517, 216.106, -0.000976562, -0.000976562, -0.000976562, -0.0361328, 0.351562, -9.79199, 1.12.2022 20:49:52.260
927, 1.90322, 0.142166, 216.106, -0.000976562, -0.000976562, 0, 0.0117188, 0.339844, -9.77832, 1.12.2022 20:49:52.268
928, 1.90322, 0.142166, 216.106, -0.000976562, -0.000976562, 0, -0.0283203, 0.319336, -9.74512, 1.12.2022 20:49:52.276
929, 1.90322, 0.142166, 216.106, -0.000976562, 0, 0, -0.0185547, 0.326172, -9.72656, 1.12.2022 20:49:52.282
930, 1.90322, 0.142166, 216.106, -0.000976562, 0, -0.000976562, 0.0214844, 0.295898, -9.74902, 1.12.2022 20:49:52.290
931, 1.90538, 0.135517, 216.106, -0.000976562, 0, -0.000976562, -0.046875, 0.323242, -9.70215, 1.12.2022 20:49:52.298
932, 1.90538, 0.135517, 216.106, 0, -0.000976562, -0.000976562, -0.0478516, 0.354492, -9.78223, 1.12.2022 20:49:52.306
933, 1.90538, 0.135517, 216.106, -0.000976562, -0.000976562, 0, 0.00878906, 0.361328, -9.7832, 1.12.2022 20:49:52.314
934, 1.90538, 0.135517, 216.106, 0, -0.000976562, 0, -0.0966797, 0.357422, -9.81641, 1.12.2022 20:49:52.324
935, 1.90538, 0.135517, 216.106, 0.000976562, -0.000976562, 0, 0.0751953, 0.298828, -9.79492, 1.12.2022 20:49:52.330
936, 1.90538, 0.135517, 216.106, -0.000976562, -0.000976562, -0.000976562, -0.0244141, 0.314453, -9.80469, 1.12.2022 20:49:52.338
937, 1.90538, 0.135517, 216.106, -0.000976562, 0, -0.000976562, -0.0244141, 0.344727, -9.78027, 1.12.2022 20:49:52.346
938, 1.90538, 0.135517, 216.106, -0.000976562, -0.000976562, -0.000976562, -0.00292969, 0.310547, -9.77441, 1.12.2022 20:49:52.354
939, 1.90538, 0.135517, 216.106, -0.000976562, 0, -0.000976562, -0.0761719, 0.348633, -9.76562, 1.12.2022 20:49:52.362
940, 1.90538, 0.135517, 216.106, 0, 0, 0, -0.0546875, 0.327148, -9.75684, 1.12.2022 20:49:52.370
941, 1.90538, 0.135517, 216.106, 0.000976562, 0, 0, 0.0273438, 0.287109, -9.70996, 1.12.2022 20:49:52.378
942, 1.90538, 0.135517, 216.106, 0.000976562, -0.000976562, -0.000976562, -0.0810547, 0.345703, -9.74121, 1.12.2022 20:49:52.386
943, 1.90538, 0.135517, 216.106, -0.000976562, -0.000976562, -0.000976562, 0.0166016, 0.335938, -9.74805, 1.12.2022 20:49:52.394
944, 1.90538, 0.135517, 216.106, 0, 0, 0, -0.0322266, 0.334961, -9.70996, 1.12.2022 20:49:52.402
945, 1.90755, 0.128869, 216.106, 0.000976562, 0, 0, -0.0595703, 0.345703, -9.74219, 1.12.2022 20:49:52.410
946, 1.90755, 0.128869, 216.106, 0.000976562, 0, 0, 0.0849609, 0.290039, -9.80273, 1.12.2022 20:49:52.418
947, 1.90755, 0.128869, 216.106, 0.000976562, 0, 0, -0.0332031, 0.328125, -9.87793, 1.12.2022 20:49:52.426
948, 1.90755, 0.128869, 216.106, -0.000976562, 0, -0.000976562, -0.0429688, 0.345703, -9.75879, 1.12.2022 20:49:52.434
949, 1.90755, 0.128869, 216.106, -0.000976562, -0.000976562, -0.000976562, 0.00390625, 0.344727, -9.78516, 1.12.2022 20:49:52.442
950, 1.90755, 0.128869, 216.106, 0.000976562, 0, -0.000976562, -0.0712891, 0.333008, -9.72754, 1.12.2022 20:49:52.450
951, 1.90755, 0.128869, 216.106, 0, 0, 0, 0.0078125, 0.316406, -9.72949, 1.12.2022 20:49:52.458
952, 1.90755, 0.128869, 216.106, 0, -0.000976562, 0, 0.0429688, 0.273438, -9.72168, 1.12.2022 20:49:52.466
953, 1.90755, 0.128869, 216.106, 0, -0.000976562, 0, -0.0517578, 0.322266, -9.83008, 1.12.2022 20:49:52.474
954, 1.90755, 0.128869, 216.106, -0.000976562, 0, -0.000976562, 0.0400391, 0.301758, -9.80371, 1.12.2022 20:49:52.482
955, 1.90971, 0.12222, 216.106, 0.000976562, -0.000976562, -0.000976562, -0.0273438, 0.34082, -9.8252, 1.12.2022 20:49:52.490
956, 1.90971, 0.12222, 216.106, 0.000976562, 0.000976562, -0.000976562, -0.00488281, 0.335938, -9.74121, 1.12.2022 20:49:52.498
957, 1.90971, 0.12222, 216.106, -0.000976562, -0.000976562, -0.000976562, -0.0429688, 0.300781, -9.77441, 1.12.2022 20:49:52.506
958, 1.90971, 0.12222, 216.106, -0.000976562, 0, -0.000976562, -0.0996094, 0.335938, -9.74902, 1.12.2022 20:49:52.514
959, 1.90971, 0.12222, 216.106, 0.000976562, -0.000976562, -0.000976562, -0.0214844, 0.34668, -9.78516, 1.12.2022 20:49:52.522
960, 1.90971, 0.12222, 216.106, 0, 0, 0, -0.0175781, 0.300781, -9.6875, 1.12.2022 20:49:52.530
961, 1.90971, 0.12222, 216.106, 0, -0.000976562, 0, -0.0927734, 0.317383, -9.76367, 1.12.2022 20:49:52.538
962, 1.90971, 0.12222, 216.106, 0.000976562, 0, -0.000976562, 0.0117188, 0.298828, -9.76758, 1.12.2022 20:49:52.546
963, 1.90971, 0.12222, 216.106, -0.000976562, 0, -0.000976562, -0.0527344, 0.338867, -9.77051, 1.12.2022 20:49:52.554
964, 1.90971, 0.12222, 216.106, -0.00195312, 0, -0.000976562, -0.0498047, 0.335938, -9.74219, 1.12.2022 20:49:52.562
965, 1.90307, 0.120053, 216.106, 0, 0, 0, 0.000976562, 0.306641, -9.7207, 1.12.2022 20:49:52.570
966, 1.90307, 0.120053, 216.106, 0, 0.000976562, 0.000976562, -0.0546875, 0.327148, -9.76855, 1.12.2022 20:49:52.578
967, 1.90274, 0.120024, 216.108, -0.000976562, 0.000976562, 0, -0.0078125, 0.34668, -9.79004, 1.12.2022 20:49:52.586
968, 1.90274, 0.120024, 216.108, -0.000976562, 0, -0.000976562, 0, 0.333008, -9.73633, 1.12.2022 20:49:52.594
969, 1.90274, 0.120024, 216.108, 0, 0, -0.000976562, -0.0673828, 0.330078, -9.78516, 1.12.2022 20:49:52.602
970, 1.90057, 0.126673, 216.108, 0, -0.000976562, 0, 0.0537109, 0.293945, -9.70508, 1.12.2022 20:49:52.610
971, 1.90057, 0.126673, 216.108, -0.000976562, -0.000976562, -0.000976562, -0.03125, 0.317383, -9.75, 1.12.2022 20:49:52.618
972, 1.9009, 0.126701, 216.106, -0.000976562, -0.000976562, -0.000976562, -0.00488281, 0.324219, -9.7627, 1.12.2022 20:49:52.626
973, 1.9009, 0.126701, 216.106, -0.000976562, -0.000976562, 0, 0.046875, 0.295898, -9.77539, 1.12.2022 20:49:52.634
974, 1.90057, 0.126673, 216.108, -0.000976562, 0, 0, -0.0380859, 0.320312, -9.76855, 1.12.2022 20:49:52.642
975, 1.90057, 0.126673, 216.108, -0.000976562, -0.000976562, -0.000976562, 0.0332031, 0.341797, -9.7832, 1.12.2022 20:49:52.650
976, 1.90057, 0.126673, 216.108, 0, -0.000976562, 0, -0.0195312, 0.280273, -9.78223, 1.12.2022 20:49:52.658
977, 1.90057, 0.126673, 216.108, -0.000976562, -0.000976562, 0, -0.0507812, 0.324219, -9.81836, 1.12.2022 20:49:52.666
978, 1.90057, 0.126673, 216.108, 0, 0, 0, 0.0214844, 0.318359, -9.72949, 1.12.2022 20:49:52.674
979, 1.90057, 0.126673, 216.108, -0.000976562, -0.000976562, 0, -0.0507812, 0.31543, -9.7832, 1.12.2022 20:49:52.682
980, 1.90057, 0.126673, 216.108, -0.000976562, 0, -0.000976562, -0.0292969, 0.361328, -9.78711, 1.12.2022 20:49:52.690
981, 1.90057, 0.126673, 216.108, -0.000976562, 0, 0, 0.0136719, 0.34668, -9.77148, 1.12.2022 20:49:52.698
982, 1.8961, 0.117856, 216.108, -0.000976562, -0.000976562, 0, -0.0839844, 0.298828, -9.7666, 1.12.2022 20:49:52.706
983, 1.8961, 0.117856, 216.108, -0.000976562, -0.000976562, 0, -0.0078125, 0.31543, -9.76758, 1.12.2022 20:49:52.714
984, 1.8961, 0.117856, 216.108, -0.000976562, -0.000976562, 0, 0.0166016, 0.287109, -9.78516, 1.12.2022 20:49:52.722
985, 1.8961, 0.117856, 216.108, 0, -0.000976562, -0.000976562, -0.0292969, 0.334961, -9.7832, 1.12.2022 20:49:52.730
986, 1.8961, 0.117856, 216.108, -0.000976562, 0, -0.000976562, 0.0185547, 0.34668, -9.77637, 1.12.2022 20:49:52.738
987, 1.8961, 0.117856, 216.108, -0.000976562, 0, 0, -0.0175781, 0.349609, -9.78516, 1.12.2022 20:49:52.746
988, 1.8961, 0.117856, 216.108, -0.000976562, -0.000976562, 0, -0.0644531, 0.330078, -9.78223, 1.12.2022 20:49:52.754
989, 1.8961, 0.117856, 216.108, -0.000976562, -0.000976562, 0, 0.0146484, 0.290039, -9.7373, 1.12.2022 20:49:52.762
990, 1.8961, 0.117856, 216.108, -0.000976562, 0, 0, -0.0546875, 0.34375, -9.74902, 1.12.2022 20:49:52.770
991, 1.8961, 0.117856, 216.108, -0.000976562, -0.000976562, 0, -0.0244141, 0.34375, -9.77051, 1.12.2022 20:49:52.778
992, 1.8961, 0.117856, 216.108, -0.000976562, 0, -0.000976562, 0.0117188, 0.336914, -9.76953, 1.12.2022 20:49:52.786
993, 1.8961, 0.117856, 216.108, 0, -0.000976562, 0, -0.0683594, 0.354492, -9.72949, 1.12.2022 20:49:52.794
994, 1.89621, 0.117744, 216.1, 0, -0.000976562, 0, 0.015625, 0.318359, -9.7041, 1.12.2022 20:49:52.802
995, 1.89621, 0.117744, 216.1, 0, -0.000976562, 0, -0.0478516, 0.295898, -9.76953, 1.12.2022 20:49:52.810
996, 1.89621, 0.117744, 216.1, 0, 0, 0, -0.0517578, 0.359375, -9.72559, 1.12.2022 20:49:52.818
997, 1.89621, 0.117744, 216.1, -0.00195312, 0, -0.000976562, 0.00390625, 0.322266, -9.7793, 1.12.2022 20:49:52.826
998, 1.89621, 0.117744, 216.1, -0.000976562, 0, -0.000976562, -0.0673828, 0.361328, -9.77246, 1.12.2022 20:49:52.834
999, 1.89621, 0.117744, 216.1, -0.000976562, 0, -0.000976562, -0.0146484, 0.336914, -9.7832, 1.12.2022 20:49:52.842
1000, 1.8961, 0.117856, 216.108, -0.000976562, 0.000976562, -0.000976562, 0.0214844, 0.3125, -9.77051, 1.12.2022 20:49:52.850
1001, 1.90274, 0.120024, 216.108, -0.000976562, -0.000976562, 0, -0.0859375, 0.34668, -9.7793, 1.12.2022 20:49:52.858
1002, 1.90274, 0.120024, 216.108, -0.000976562, 0, 0, -0.0078125, 0.328125, -9.7832, 1.12.2022 20:49:52.866
1003, 1.90274, 0.120024, 216.108, -0.000976562, 0, -0.000976562, 0, 0.289062, -9.76367, 1.12.2022 20:49:52.874
1004, 1.90274, 0.120024, 216.108, -0.000976562, 0, -0.000976562, -0.0263672, 0.353516, -9.76562, 1.12.2022 20:49:52.882
1005, 1.90274, 0.120024, 216.108, -0.00195312, -0.000976562, -0.000976562, 0.0429688, 0.319336, -9.75879, 1.12.2022 20:49:52.890
1006, 1.90274, 0.120024, 216.108, 0, -0.000976562, 0, -0.0478516, 0.344727, -9.77539, 1.12.2022 20:49:52.898
1007, 1.90274, 0.120024, 216.108, 0, -0.000976562, 0, -0.0351562, 0.3125, -9.73828, 1.12.2022 20:49:52.906
1008, 1.90938, 0.122191, 216.108, 0, -0.000976562, -0.000976562, 0.00976562, 0.302734, -9.76562, 1.12.2022 20:49:52.914
1009, 1.90938, 0.122191, 216.108, -0.000976562, -0.00195312, 0, -0.0390625, 0.334961, -9.79004, 1.12.2022 20:49:52.922
1010, 1.90938, 0.122191, 216.108, -0.000976562, -0.000976562, 0, 0.0410156, 0.328125, -9.72754, 1.12.2022 20:49:52.930
1011, 1.90938, 0.122191, 216.108, -0.000976562, 0, -0.000976562, -0.00390625, 0.314453, -9.72754, 1.12.2022 20:49:52.938
1012, 1.91155, 0.115542, 216.108, -0.000976562, 0, -0.000976562, -0.0449219, 0.375, -9.74805, 1.12.2022 20:49:52.946
1013, 1.91155, 0.115542, 216.108, -0.000976562, -0.000976562, 0, 0.0195312, 0.314453, -9.75391, 1.12.2022 20:49:52.954
1014, 1.91155, 0.115542, 216.108, -0.000976562, 0, 0, -0.0371094, 0.304688, -9.81934, 1.12.2022 20:49:52.962
1015, 1.91155, 0.115542, 216.108, -0.000976562, 0, 0, -0.0244141, 0.316406, -9.79102, 1.12.2022 20:49:52.970
1016, 1.91155, 0.115542, 216.108, -0.000976562, -0.000976562, -0.000976562, 0.00683594, 0.308594, -9.78906, 1.12.2022 20:49:52.978
1017, 1.91155, 0.115542, 216.108, -0.000976562, -0.000976562, -0.000976562, -0.0859375, 0.348633, -9.75293, 1.12.2022 20:49:52.986
1018, 1.91155, 0.115542, 216.108, -0.000976562, -0.000976562, -0.000976562, -0.0078125, 0.338867, -9.77148, 1.12.2022 20:49:52.994
1019, 1.91155, 0.115542, 216.108, 0, 0, 0, 0.00976562, 0.306641, -9.73242, 1.12.2022 20:49:53.002
1020, 1.91155, 0.115542, 216.108, -0.000976562, -0.000976562, 0, -0.0761719, 0.345703, -9.73438, 1.12.2022 20:49:53.010
1021, 1.91155, 0.115542, 216.108, -0.000976562, 0, 0, 0.0322266, 0.303711, -9.80078, 1.12.2022 20:49:53.018
1022, 1.91155, 0.115542, 216.108, 0, -0.000976562, -0.000976562, -0.0673828, 0.332031, -9.76855, 1.12.2022 20:49:53.026
1023, 1.91155, 0.115542, 216.108, -0.000976562, 0, -0.000976562, -0.0136719, 0.347656, -9.73828, 1.12.2022 20:49:53.034
1024, 1.91155, 0.115542, 216.108, -0.000976562, 0, -0.000976562, -0.0107422, 0.326172, -9.82129, 1.12.2022 20:49:53.042
1025, 1.91155, 0.115542, 216.108, 0, 0, -0.000976562, -0.0898438, 0.34082, -9.73926, 1.12.2022 20:49:53.050
1026, 1.91155, 0.115542, 216.108, -0.000976562, -0.000976562, 0, -0.00292969, 0.333008, -9.79004, 1.12.2022 20:49:53.058
1027, 1.91155, 0.115542, 216.108, -0.000976562, -0.000976562, 0, 0.0302734, 0.28418, -9.77539, 1.12.2022 20:49:53.066
1028, 1.91155, 0.115542, 216.108, -0.000976562, -0.000976562, -0.000976562, -0.0595703, 0.336914, -9.78027, 1.12.2022 20:49:53.074
1029, 1.91188, 0.115571, 216.107, 0, -0.000976562, 0, 0.0576172, 0.302734, -9.74512, 1.12.2022 20:49:53.082
1030, 1.91188, 0.115571, 216.107, -0.000976562, 0, -0.000976562, -0.0244141, 0.327148, -9.7666, 1.12.2022 20:49:53.090
1031, 1.91188, 0.115571, 216.107, 0, 0, 0, -0.00976562, 0.361328, -9.77539, 1.12.2022 20:49:53.098
1032, 1.91155, 0.115542, 216.108, -0.000976562, 0, -0.000976562, 0.0332031, 0.336914, -9.7793, 1.12.2022 20:49:53.106
1033, 1.91405, 0.108922, 216.107, -0.000976562, 0, -0.000976562, -0.0742188, 0.341797, -9.78223, 1.12.2022 20:49:53.114
1034, 1.91405, 0.108922, 216.107, -0.000976562, 0, 0, -0.00488281, 0.324219, -9.75098, 1.12.2022 20:49:53.122
1035, 1.91372, 0.108892, 216.108, -0.000976562, -0.000976562, 0, -0.0117188, 0.3125, -9.75098, 1.12.2022 20:49:53.130
