Seq, Rot x, Rot y, Rot z, Vel x, Vel y, Vel z, Acc x, Acc y, Acc z, Time(m.d.y h:m:s.ms)
0, 1.96022, 0.348447, 265.191, -0.000976562, 0, 0, -0.0595703, 0.334961, -9.77051, 1.12.2022 20:28:12.448
1, 1.96022, 0.348447, 265.191, -0.000976562, 0, 0, -0.0527344, 0.297852, -9.75, 1.12.2022 20:28:12.456
2, 1.96022, 0.348447, 265.191, -0.00292969, 0, 0, -0.0761719, 0.302734, -9.75195, 1.12.2022 20:28:12.464
3, 1.96022, 0.348447, 265.191, 0, 0, -0.000976562, -0.0390625, 0.275391, -9.7793, 1.12.2022 20:28:12.472
4, 1.96022, 0.348447, 265.191, -0.000976562, 0.00195312, -0.000976562, -0.0917969, 0.297852, -9.80664, 1.12.2022 20:28:12.480
5, 1.96495, 0.343299, 265.191, -0.00292969, 0.00195312, 0, -0.0673828, 0.305664, -9.77832, 1.12.2022 20:28:12.488
6, 1.96495, 0.343299, 265.191, -0.00292969, 0.00195312, 0, -0.0390625, 0.285156, -9.79785, 1.12.2022 20:28:12.496
7, 1.96495, 0.343299, 265.191, -0.00292969, 0.00195312, 0, -0.119141, 0.300781, -9.75684, 1.12.2022 20:28:12.504
8, 1.96495, 0.343299, 265.191, -0.000976562, 0.00292969, 0, -0.0146484, 0.289062, -9.78223, 1.12.2022 20:28:12.512
9, 1.96495, 0.343299, 265.191, -0.000976562, 0.00195312, 0, -0.0361328, 0.298828, -9.78125, 1.12.2022 20:28:12.520
10, 1.96495, 0.343299, 265.191, -0.000976562, 0.00195312, 0, -0.12207, 0.330078, -9.78613, 1.12.2022 20:28:12.528
11, 1.96968, 0.338152, 265.192, -0.000976562, 0.00195312, 0, -0.0078125, 0.305664, -9.78418, 1.12.2022 20:28:12.536
12, 1.96968, 0.338152, 265.192, -0.000976562, 0.00195312, 0, -0.0673828, 0.316406, -9.79492, 1.12.2022 20:28:12.544
13, 1.96943, 0.338086, 265.192, -0.000976562, 0.00195312, 0.000976562, -0.0429688, 0.303711, -9.76953, 1.12.2022 20:28:12.552
14, 1.96943, 0.338086, 265.192, -0.000976562, 0.00195312, 0, -0.0322266, 0.282227, -9.79883, 1.12.2022 20:28:12.560
15, 1.96943, 0.338086, 265.192, -0.000976562, 0.00195312, 0, -0.119141, 0.308594, -9.76562, 1.12.2022 20:28:12.568
16, 1.96943, 0.338086, 265.192, -0.00292969, 0.00195312, 0, -0.0283203, 0.306641, -9.72461, 1.12.2022 20:28:12.576
17, 1.96943, 0.338086, 265.192, -0.00292969, 0, 0, -0.0488281, 0.27832, -9.80566, 1.12.2022 20:28:12.584
18, 1.97416, 0.332938, 265.192, -0.00292969, 0.00195312, 0, -0.0693359, 0.313477, -9.78711, 1.12.2022 20:28:12.592
19, 1.97416, 0.332938, 265.192, -0.00292969, 0, 0, -0.0332031, 0.322266, -9.75977, 1.12.2022 20:28:12.600
20, 1.97416, 0.332938, 265.192, -0.000976562, 0, 0, -0.100586, 0.349609, -9.78613, 1.12.2022 20:28:12.608
21, 1.97416, 0.332938, 265.192, -0.000976562, 0, 0.000976562, -0.0576172, 0.322266, -9.76367, 1.12.2022 20:28:12.616
22, 1.97416, 0.332938, 265.192, -0.00195312, 0, 0.000976562, -0.0576172, 0.292969, -9.75098, 1.12.2022 20:28:12.624
23, 1.97416, 0.332938, 265.192, -0.000976562, 0, 0, -0.107422, 0.305664, -9.77344, 1.12.2022 20:28:12.632
24, 1.97416, 0.332938, 265.192, -0.000976562, 0.00195312, 0, -0.0458984, 0.291992, -9.79785, 1.12.2022 20:28:12.640
25, 1.97416, 0.332938, 265.192, -0.000976562, 0.00195312, 0, -0.0673828, 0.301758, -9.79688, 1.12.2022 20:28:12.648
26, 1.97416, 0.332938, 265.192, -0.000976562, 0, 0, -0.0703125, 0.27832, -9.79297, 1.12.2022 20:28:12.656
27, 1.97889, 0.32779, 265.192, -0.000976562, 0, 0, -0.0273438, 0.294922, -9.80762, 1.12.2022 20:28:12.664
28, 1.97889, 0.32779, 265.192, -0.00292969, 0.00195312, 0, -0.0908203, 0.292969, -9.75, 1.12.2022 20:28:12.672
29, 1.97889, 0.32779, 265.192, -0.00195312, 0.00292969, 0.000976562, -0.0566406, 0.306641, -9.7002, 1.12.2022 20:28:12.680
30, 1.97889, 0.32779, 265.192, -0.00292969, 0.00195312, 0, -0.0332031, 0.295898, -9.7627, 1.12.2022 20:28:12.688
31, 1.81698, 0.359333, 265.19, 0, 0, -0.000976562, -0.12207, 0.325195, -9.7793, 1.12.2022 20:28:12.696
32, 1.78735, 0.360576, 265.189, 0, 0, -0.000976562, -0.0351562, 0.297852, -9.73633, 1.12.2022 20:28:12.704
33, 1.77747, 0.360991, 265.189, -0.000976562, -0.000976562, -0.000976562, -0.0556641, 0.325195, -9.77832, 1.12.2022 20:28:12.712
34, 1.77747, 0.360991, 265.189, -0.000976562, -0.000976562, -0.000976562, -0.100586, 0.344727, -9.80273, 1.12.2022 20:28:12.720
35, 1.77747, 0.360991, 265.189, 0, -0.000976562, -0.000976562, -0.0195312, 0.296875, -9.79395, 1.12.2022 20:28:12.728
36, 1.77747, 0.360991, 265.189, 0, 0, -0.00195312, -0.0742188, 0.301758, -9.7832, 1.12.2022 20:28:12.736
37, 1.77747, 0.360991, 265.189, -0.000976562, -0.000976562, -0.000976562, -0.0527344, 0.294922, -9.79297, 1.12.2022 20:28:12.744
38, 1.77747, 0.360991, 265.189, -0.000976562, -0.000976562, -0.000976562, -0.0458984, 0.287109, -9.78418, 1.12.2022 20:28:12.752
39, 1.77747, 0.360991, 265.189, 0, 0, -0.000976562, -0.0927734, 0.327148, -9.75098, 1.12.2022 20:28:12.760
40, 1.78261, 0.365724, 265.189, -0.000976562, -0.000976562, 0, -0.0410156, 0.303711, -9.77637, 1.12.2022 20:28:12.768
41, 1.78735, 0.360576, 265.189, -0.000976562, 0, -0.000976562, -0.0517578, 0.287109, -9.70801, 1.12.2022 20:28:12.776
42, 1.78735, 0.360576, 265.189, -0.000976562, -0.000976562, -0.00195312, -0.0888672, 0.303711, -9.77832, 1.12.2022 20:28:12.784
43, 1.7822, 0.355843, 265.189, -0.000976562, 0, -0.000976562, 0.0214844, 0.279297, -9.77832, 1.12.2022 20:28:12.792
44, 1.7822, 0.355843, 265.189, -0.000976562, -0.00195312, -0.000976562, -0.0820312, 0.294922, -9.80176, 1.12.2022 20:28:12.800
45, 1.7822, 0.355843, 265.189, -0.000976562, -0.00195312, -0.00195312, -0.0546875, 0.303711, -9.76953, 1.12.2022 20:28:12.808
46, 1.7822, 0.355843, 265.189, 0, -0.000976562, -0.000976562, -0.0224609, 0.260742, -9.79688, 1.12.2022 20:28:12.816
47, 1.7822, 0.355843, 265.189, -0.000976562, -0.000976562, 0, -0.105469, 0.303711, -9.78027, 1.12.2022 20:28:12.824
48, 1.7822, 0.355843, 265.189, 0, -0.000976562, 0, -0.0195312, 0.290039, -9.80762, 1.12.2022 20:28:12.832
49, 1.77705, 0.351109, 265.189, 0, 0, -0.000976562, -0.0791016, 0.317383, -9.76855, 1.12.2022 20:28:12.840
50, 1.77705, 0.351109, 265.189, 0, 0, -0.000976562, -0.0908203, 0.307617, -9.75684, 1.12.2022 20:28:12.848
51, 1.77705, 0.351109, 265.189, 0, 0, -0.000976562, -0.0478516, 0.279297, -9.75391, 1.12.2022 20:28:12.856
52, 1.77232, 0.356257, 265.189, 0, -0.000976562, -0.000976562, -0.121094, 0.314453, -9.74902, 1.12.2022 20:28:12.864
53, 1.77232, 0.356257, 265.189, 0, 0, -0.000976562, -0.0332031, 0.295898, -9.75098, 1.12.2022 20:28:12.872
54, 1.77232, 0.356257, 265.189, 0, -0.000976562, -0.000976562, -0.0478516, 0.264648, -9.75879, 1.12.2022 20:28:12.880
55, 1.77232, 0.356257, 265.189, -0.000976562, 0, -0.000976562, -0.113281, 0.329102, -9.81445, 1.12.2022 20:28:12.888
56, 1.77232, 0.356257, 265.189, -0.000976562, -0.000976562, 0, -0.0107422, 0.296875, -9.80566, 1.12.2022 20:28:12.896
57, 1.77232, 0.356257, 265.189, -0.000976562, -0.000976562, -0.000976562, -0.0654297, 0.282227, -9.7959, 1.12.2022 20:28:12.904
58, 1.77232, 0.356257, 265.189, -0.000976562, 0, -0.00195312, -0.0673828, 0.325195, -9.76855, 1.12.2022 20:28:12.912
59, 1.76718, 0.351524, 265.189, -0.000976562, 0, -0.000976562, -0.03125, 0.271484, -9.75391, 1.12.2022 20:28:12.918
60, 1.76718, 0.351524, 265.189, -0.000976562, 0, -0.000976562, -0.102539, 0.286133, -9.76172, 1.12.2022 20:28:12.926
61, 1.76245, 0.356672, 265.189, -0.000976562, -0.000976562, -0.000976562, -0.0673828, 0.291016, -9.76465, 1.12.2022 20:28:12.934
62, 1.76245, 0.356672, 265.189, -0.000976562, 0, 0.000976562, -0.0263672, 0.293945, -9.7627, 1.12.2022 20:28:12.942
63, 1.76245, 0.356672, 265.189, -0.000976562, 0.000976562, -0.00195312, -0.0742188, 0.327148, -9.77539, 1.12.2022 20:28:12.952
64, 1.76245, 0.356672, 265.189, -0.000976562, 0, 0, -0.0341797, 0.313477, -9.78125, 1.12.2022 20:28:12.958
65, 1.76245, 0.356672, 265.189, 0, -0.000976562, 0.000976562, -0.0615234, 0.322266, -9.84668, 1.12.2022 20:28:12.966
66, 1.76718, 0.351524, 265.189, 0, 0, 0, -0.0839844, 0.334961, -9.77246, 1.12.2022 20:28:12.974
67, 1.76718, 0.351524, 265.189, 0, 0, 0, -0.0400391, 0.291016, -9.75293, 1.12.2022 20:28:12.982
68, 1.76718, 0.351524, 265.189, 0, 0, 0, -0.0908203, 0.290039, -9.79004, 1.12.2022 20:28:12.990
69, 1.76718, 0.351524, 265.189, 0, -0.00195312, 0.000976562, -0.0595703, 0.31543, -9.77832, 1.12.2022 20:28:12.998
70, 1.76718, 0.351524, 265.189, 0, 0, 0, -0.00292969, 0.270508, -9.79004, 1.12.2022 20:28:13.006
71, 1.76718, 0.351524, 265.189, -0.000976562, 0, 0, -0.0908203, 0.334961, -9.76562, 1.12.2022 20:28:13.014
72, 1.76718, 0.351524, 265.189, 0, 0, -0.00195312, -0.0361328, 0.311523, -9.79004, 1.12.2022 20:28:13.022
73, 1.76718, 0.351524, 265.189, -0.000976562, 0, 0, -0.0820312, 0.296875, -9.78516, 1.12.2022 20:28:13.030
74, 1.76718, 0.351524, 265.189, 0, 0, 0, -0.0712891, 0.269531, -9.75586, 1.12.2022 20:28:13.038
75, 1.76203, 0.34679, 265.189, 0, 0, 0, -0.00976562, 0.269531, -9.76562, 1.12.2022 20:28:13.046
76, 1.76203, 0.34679, 265.189, 0, 0, 0, -0.0917969, 0.300781, -9.82812, 1.12.2022 20:28:13.054
77, 1.76203, 0.34679, 265.189, 0, 0, 0, -0.0439453, 0.31543, -9.83984, 1.12.2022 20:28:13.062
78, 1.76203, 0.34679, 265.189, -0.000976562, -0.000976562, -0.000976562, -0.0419922, 0.301758, -9.72266, 1.12.2022 20:28:13.070
79, 1.76203, 0.34679, 265.189, -0.000976562, -0.00195312, 0.000976562, -0.0849609, 0.316406, -9.81836, 1.12.2022 20:28:13.078
80, 1.76203, 0.34679, 265.189, -0.000976562, 0, 0, 0.0205078, 0.303711, -9.80078, 1.12.2022 20:28:13.086
81, 1.76203, 0.34679, 265.189, -0.000976562, 0, 0, -0.0605469, 0.31543, -9.7832, 1.12.2022 20:28:13.094
82, 1.76676, 0.341643, 265.189, -0.000976562, 0, 0, -0.0810547, 0.3125, -9.75391, 1.12.2022 20:28:13.102
83, 1.76676, 0.341643, 265.189, -0.000976562, 0, 0, -0.0322266, 0.291992, -9.79785, 1.12.2022 20:28:13.110
84, 1.76676, 0.341643, 265.189, 0, 0, 0, -0.120117, 0.314453, -9.80762, 1.12.2022 20:28:13.118
85, 1.76162, 0.336909, 265.189, 0, 0, 0, -0.0380859, 0.305664, -9.76953, 1.12.2022 20:28:13.126
86, 1.76162, 0.336909, 265.189, 0, -0.000976562, -0.000976562, -0.0585938, 0.307617, -9.82617, 1.12.2022 20:28:13.134
87, 1.76676, 0.341643, 265.189, 0, -0.000976562, -0.000976562, -0.151367, 0.291016, -9.81543, 1.12.2022 20:28:13.142
88, 1.76676, 0.341643, 265.189, -0.000976562, 0, 0, -0.0292969, 0.291992, -9.7793, 1.12.2022 20:28:13.150
89, 1.76676, 0.341643, 265.189, 0, -0.000976562, -0.000976562, -0.0791016, 0.270508, -9.77246, 1.12.2022 20:28:13.158
90, 1.76203, 0.34679, 265.189, 0, -0.000976562, -0.000976562, -0.0839844, 0.285156, -9.79297, 1.12.2022 20:28:13.166
91, 1.76203, 0.34679, 265.189, 0, 0, 0.000976562, -0.0166016, 0.305664, -9.77637, 1.12.2022 20:28:13.174
92, 1.76203, 0.34679, 265.189, -0.000976562, -0.000976562, -0.000976562, -0.108398, 0.3125, -9.82031, 1.12.2022 20:28:13.182
93, 1.76203, 0.34679, 265.189, 0, 0, 0.000976562, -0.0693359, 0.329102, -9.74902, 1.12.2022 20:28:13.190
94, 1.76203, 0.34679, 265.189, -0.000976562, -0.000976562, -0.000976562, -0.0693359, 0.287109, -9.78613, 1.12.2022 20:28:13.198
95, 1.7573, 0.351938, 265.189, 0, -0.000976562, -0.000976562, -0.0986328, 0.31543, -9.78027, 1.12.2022 20:28:13.206
96, 1.7573, 0.351938, 265.189, -0.000976562, -0.000976562, -0.000976562, -0.0117188, 0.301758, -9.72266, 1.12.2022 20:28:13.214
97, 1.76245, 0.356672, 265.189, -0.000976562, -0.000976562, -0.00195312, -0.0712891, 0.310547, -9.7666, 1.12.2022 20:28:13.222
98, 1.76245, 0.356672, 265.189, 0, -0.000976562, -0.000976562, -0.0595703, 0.34375, -9.74219, 1.12.2022 20:28:13.230
99, 1.76245, 0.356672, 265.189, 0, -0.000976562, 0, -0.0146484, 0.317383, -9.76465, 1.12.2022 20:28:13.238
100, 1.76245, 0.356672, 265.189, 0, -0.000976562, 0, -0.0878906, 0.295898, -9.75684, 1.12.2022 20:28:13.246
101, 1.76245, 0.356672, 265.189, 0, 0, 0, -0.0361328, 0.293945, -9.78906, 1.12.2022 20:28:13.254
102, 1.76718, 0.351524, 265.189, 0, 0, -0.000976562, -0.0458984, 0.253906, -9.79199, 1.12.2022 20:28:13.262
103, 1.76245, 0.356672, 265.189, 0, 0.000976562, -0.000976562, -0.109375, 0.276367, -9.74512, 1.12.2022 20:28:13.270
104, 1.76245, 0.356672, 265.189, -0.000976562, 0, -0.00195312, -0.0664062, 0.297852, -9.74805, 1.12.2022 20:28:13.278
105, 1.76245, 0.356672, 265.189, 0, 0.000976562, -0.00195312, -0.104492, 0.302734, -9.73535, 1.12.2022 20:28:13.286
106, 1.76245, 0.356672, 265.189, 0, 0, -0.000976562, -0.0761719, 0.302734, -9.75, 1.12.2022 20:28:13.294
107, 1.76245, 0.356672, 265.189, -0.000976562, -0.000976562, -0.000976562, -0.0332031, 0.279297, -9.75391, 1.12.2022 20:28:13.302
108, 1.76245, 0.356672, 265.189, -0.000976562, 0, -0.000976562, -0.107422, 0.302734, -9.74707, 1.12.2022 20:28:13.310
109, 1.76245, 0.356672, 265.189, 0, -0.000976562, -0.000976562, -0.0263672, 0.299805, -9.74121, 1.12.2022 20:28:13.318
110, 1.75772, 0.36182, 265.189, -0.00195312, -0.000976562, -0.000976562, -0.0488281, 0.277344, -9.84277, 1.12.2022 20:28:13.326
111, 1.75772, 0.36182, 265.189, -0.000976562, -0.000976562, -0.00195312, -0.0791016, 0.31543, -9.75391, 1.12.2022 20:28:13.334
112, 1.75772, 0.36182, 265.189, -0.00195312, -0.000976562, -0.00195312, 0.0146484, 0.300781, -9.76367, 1.12.2022 20:28:13.342
113, 1.75772, 0.36182, 265.189, -0.00195312, 0, -0.000976562, -0.0507812, 0.318359, -9.79199, 1.12.2022 20:28:13.350
114, 1.76245, 0.356672, 265.189, -0.000976562, -0.000976562, 0, -0.0673828, 0.328125, -9.78711, 1.12.2022 20:28:13.358
115, 1.76245, 0.356672, 265.189, -0.000976562, 0, -0.000976562, -0.0126953, 0.306641, -9.78906, 1.12.2022 20:28:13.366
116, 1.76245, 0.356672, 265.189, -0.000976562, 0, -0.00195312, -0.105469, 0.334961, -9.76758, 1.12.2022 20:28:13.374
117, 1.76245, 0.356672, 265.189, -0.000976562, 0, -0.000976562, -0.0703125, 0.291992, -9.80273, 1.12.2022 20:28:13.382
118, 1.76245, 0.356672, 265.189, 0, 0, -0.000976562, -0.0595703, 0.295898, -9.76953, 1.12.2022 20:28:13.390
119, 1.76759, 0.361405, 265.189, 0, 0, -0.00195312, -0.125977, 0.316406, -9.7207, 1.12.2022 20:28:13.398
120, 1.77232, 0.356257, 265.189, 0, 0, -0.000976562, -0.0244141, 0.308594, -9.78418, 1.12.2022 20:28:13.406
121, 1.77232, 0.356257, 265.189, 0, 0, -0.000976562, -0.0576172, 0.306641, -9.78809, 1.12.2022 20:28:13.414
122, 1.77232, 0.356257, 265.189, -0.000976562, 0, -0.000976562, -0.107422, 0.305664, -9.76367, 1.12.2022 20:28:13.422
123, 1.77232, 0.356257, 265.189, 0, 0, 0, -0.0576172, 0.275391, -9.80078, 1.12.2022 20:28:13.430
124, 1.76759, 0.361405, 265.189, 0, -0.000976562, -0.000976562, -0.128906, 0.274414, -9.75684, 1.12.2022 20:28:13.438
125, 1.76759, 0.361405, 265.189, -0.000976562, 0, -0.000976562, -0.0654297, 0.300781, -9.83984, 1.12.2022 20:28:13.446
126, 1.76759, 0.361405, 265.189, -0.000976562, -0.000976562, -0.000976562, -0.0439453, 0.291992, -9.7959, 1.12.2022 20:28:13.454
127, 1.77274, 0.366139, 265.189, -0.00195312, -0.000976562, -0.000976562, -0.0908203, 0.318359, -9.78027, 1.12.2022 20:28:13.462
128, 1.7725, 0.366233, 265.199, -0.000976562, -0.000976562, -0.00195312, -0.0253906, 0.314453, -9.82812, 1.12.2022 20:28:13.470
129, 1.7725, 0.366233, 265.199, -0.000976562, -0.000976562, 0, -0.0576172, 0.313477, -9.78809, 1.12.2022 20:28:13.478
130, 1.76801, 0.371287, 265.189, -0.000976562, -0.000976562, 0.000976562, -0.0791016, 0.295898, -9.75293, 1.12.2022 20:28:13.486
131, 1.76801, 0.371287, 265.189, -0.000976562, -0.000976562, 0, -0.0205078, 0.316406, -9.81641, 1.12.2022 20:28:13.494
132, 1.77274, 0.366139, 265.189, -0.000976562, 0, 0.000976562, -0.0791016, 0.302734, -9.75684, 1.12.2022 20:28:13.502
133, 1.77274, 0.366139, 265.189, -0.000976562, -0.000976562, 0.000976562, -0.0224609, 0.293945, -9.79102, 1.12.2022 20:28:13.510
134, 1.77274, 0.366139, 265.189, 0, 0, 0, -0.0761719, 0.300781, -9.75977, 1.12.2022 20:28:13.518
135, 1.77274, 0.366139, 265.189, 0, 0, 0.000976562, -0.0791016, 0.298828, -9.77637, 1.12.2022 20:28:13.526
136, 1.77274, 0.366139, 265.189, 0, 0.000976562, 0.000976562, -0.00488281, 0.251953, -9.73633, 1.12.2022 20:28:13.534
137, 1.76759, 0.361405, 265.189, 0, 0, 0, -0.0625, 0.279297, -9.76074, 1.12.2022 20:28:13.542
138, 1.76759, 0.361405, 265.189, 0, -0.000976562, 0, -0.0546875, 0.28418, -9.7627, 1.12.2022 20:28:13.550
139, 1.76759, 0.361405, 265.189, -0.000976562, -0.000976562, 0.000976562, -0.0332031, 0.305664, -9.75977, 1.12.2022 20:28:13.558
140, 1.76759, 0.361405, 265.189, -0.000976562, -0.00195312, 0.000976562, -0.0976562, 0.330078, -9.76758, 1.12.2022 20:28:13.566
141, 1.76759, 0.361405, 265.189, -0.000976562, -0.00195312, 0, -0.0283203, 0.299805, -9.73926, 1.12.2022 20:28:13.574
142, 1.76759, 0.361405, 265.189, -0.000976562, -0.000976562, -0.00195312, -0.03125, 0.290039, -9.79102, 1.12.2022 20:28:13.582
143, 1.76245, 0.356672, 265.189, -0.000976562, -0.000976562, 0, -0.103516, 0.323242, -9.79395, 1.12.2022 20:28:13.590
144, 1.76245, 0.356672, 265.189, -0.000976562, -0.000976562, 0, -0.0488281, 0.301758, -9.80273, 1.12.2022 20:28:13.598
145, 1.76245, 0.356672, 265.189, -0.000976562, 0.000976562, 0, -0.0507812, 0.287109, -9.77246, 1.12.2022 20:28:13.606
146, 1.76245, 0.356672, 265.189, 0, 0, 0, -0.0625, 0.305664, -9.77832, 1.12.2022 20:28:13.614
147, 1.76245, 0.356672, 265.189, 0, 0, 0.000976562, -0.0400391, 0.291016, -9.74805, 1.12.2022 20:28:13.622
148, 1.76245, 0.356672, 265.189, 0, 0, 0.000976562, -0.131836, 0.298828, -9.76855, 1.12.2022 20:28:13.630
149, 1.76245, 0.356672, 265.189, 0, -0.000976562, 0.000976562, -0.0546875, 0.314453, -9.75195, 1.12.2022 20:28:13.638
150, 1.76245, 0.356672, 265.189, 0.000976562, -0.000976562, 0, -0.0576172, 0.293945, -9.76953, 1.12.2022 20:28:13.646
151, 1.76245, 0.356672, 265.189, 0, -0.000976562, 0, -0.09375, 0.316406, -9.79395, 1.12.2022 20:28:13.654
152, 1.76245, 0.356672, 265.189, 0.000976562, -0.000976562, 0, 0.00878906, 0.272461, -9.76855, 1.12.2022 20:28:13.662
153, 1.7573, 0.351938, 265.189, -0.000976562, -0.000976562, -0.00195312, -0.0380859, 0.24707, -9.74023, 1.12.2022 20:28:13.670
154, 1.7573, 0.351938, 265.189, -0.000976562, -0.00195312, -0.00195312, -0.0380859, 0.292969, -9.72754, 1.12.2022 20:28:13.678
155, 1.7573, 0.351938, 265.189, -0.00195312, -0.000976562, 0, 0.00488281, 0.286133, -9.75684, 1.12.2022 20:28:13.686
156, 1.7573, 0.351938, 265.189, -0.00195312, -0.00195312, 0.000976562, -0.112305, 0.31543, -9.77051, 1.12.2022 20:28:13.694
157, 1.7573, 0.351938, 265.189, -0.00292969, -0.00195312, 0.00195312, -0.0117188, 0.298828, -9.7627, 1.12.2022 20:28:13.702
158, 1.7573, 0.351938, 265.189, -0.00195312, -0.00195312, 0, -0.0351562, 0.299805, -9.73926, 1.12.2022 20:28:13.710
159, 1.7573, 0.351938, 265.189, -0.00292969, -0.00390625, -0.000976562, -0.0771484, 0.337891, -9.78711, 1.12.2022 20:28:13.718
160, 1.7573, 0.351938, 265.189, -0.00195312, -0.00292969, 0, -0.0126953, 0.308594, -9.79785, 1.12.2022 20:28:13.726
161, 1.76245, 0.356672, 265.189, -0.000976562, -0.00292969, 0, -0.0595703, 0.293945, -9.77637, 1.12.2022 20:28:13.734
162, 1.75772, 0.36182, 265.189, -0.00195312, -0.00195312, 0, -0.0615234, 0.316406, -9.72656, 1.12.2022 20:28:13.742
163, 1.75772, 0.36182, 265.189, -0.00195312, -0.00292969, 0.000976562, -0.00488281, 0.267578, -9.77832, 1.12.2022 20:28:13.750
164, 1.75772, 0.36182, 265.189, -0.00195312, -0.00390625, -0.000976562, -0.0732422, 0.295898, -9.83496, 1.12.2022 20:28:13.758
165, 1.75772, 0.36182, 265.189, -0.00195312, -0.00390625, -0.000976562, -0.00585938, 0.275391, -9.79199, 1.12.2022 20:28:13.766
166, 1.75772, 0.36182, 265.189, -0.00292969, -0.00292969, 0.000976562, -0.0507812, 0.259766, -9.82031, 1.12.2022 20:28:13.774
167, 1.75749, 0.361763, 265.189, -0.00292969, -0.00292969, 0.000976562, -0.0888672, 0.290039, -9.79492, 1.12.2022 20:28:13.782
168, 1.76264, 0.366497, 265.189, -0.00292969, -0.00292969, 0, 0.0107422, 0.280273, -9.79688, 1.12.2022 20:28:13.790
169, 1.76264, 0.366497, 265.189, -0.00488281, -0.00292969, 0, -0.0791016, 0.308594, -9.77832, 1.12.2022 20:28:13.798
170, 1.76264, 0.366497, 265.189, -0.00488281, -0.00292969, 0, -0.0898438, 0.297852, -9.73828, 1.12.2022 20:28:13.806
171, 1.76264, 0.366497, 265.189, -0.00390625, -0.00195312, 0.000976562, -0.0429688, 0.288086, -9.74121, 1.12.2022 20:28:13.814
172, 1.76778, 0.37123, 265.189, -0.00292969, -0.00292969, 0, -0.138672, 0.336914, -9.75293, 1.12.2022 20:28:13.822
173, 1.76778, 0.37123, 265.189, -0.00195312, -0.00195312, 0.000976562, -0.0761719, 0.332031, -9.77246, 1.12.2022 20:28:13.830
174, 1.76778, 0.37123, 265.189, -0.000976562, -0.000976562, 0, -0.0615234, 0.34375, -9.74219, 1.12.2022 20:28:13.838
175, 1.76778, 0.37123, 265.189, 0, -0.00195312, 0, -0.108398, 0.385742, -9.80176, 1.12.2022 20:28:13.846
176, 1.76778, 0.37123, 265.189, 0.00195312, -0.000976562, -0.00195312, -0.0107422, 0.301758, -9.81055, 1.12.2022 20:28:13.854
177, 1.76778, 0.37123, 265.189, 0.00195312, 0, 0, -0.0986328, 0.299805, -9.81836, 1.12.2022 20:28:13.862
178, 1.76264, 0.366497, 265.189, 0.00195312, 0.00195312, -0.000976562, -0.0917969, 0.298828, -9.8418, 1.12.2022 20:28:13.868
179, 1.76264, 0.366497, 265.189, 0.00195312, 0.00195312, -0.000976562, -0.0576172, 0.290039, -9.7998, 1.12.2022 20:28:13.876
180, 1.76264, 0.366497, 265.189, 0.00195312, 0.00292969, 0, -0.165039, 0.28418, -9.76758, 1.12.2022 20:28:13.884
181, 1.76264, 0.366497, 265.189, 0.000976562, 0.00292969, 0, -0.128906, 0.286133, -9.75684, 1.12.2022 20:28:13.892
182, 1.75749, 0.361763, 265.189, 0.000976562, 0.00292969, 0, -0.0908203, 0.298828, -9.75684, 1.12.2022 20:28:13.900
183, 1.75749, 0.361763, 265.189, 0.000976562, 0.00195312, 0, -0.158203, 0.301758, -9.78613, 1.12.2022 20:28:13.908
184, 1.75749, 0.361763, 265.189, 0, 0.000976562, 0, -0.0839844, 0.277344, -9.7793, 1.12.2022 20:28:13.916
185, 1.75749, 0.361763, 265.189, 0, -0.000976562, 0, -0.110352, 0.245117, -9.80078, 1.12.2022 20:28:13.924
186, 1.75749, 0.361763, 265.189, 0, 0, 0, -0.0654297, 0.268555, -9.78906, 1.12.2022 20:28:13.932
187, 1.75749, 0.361763, 265.189, 0, -0.000976562, 0, -0.0175781, 0.255859, -9.77832, 1.12.2022 20:28:13.940
188, 1.75749, 0.361763, 265.189, 0, -0.000976562, -0.00195312, -0.121094, 0.313477, -9.85254, 1.12.2022 20:28:13.948
189, 1.75749, 0.361763, 265.189, -0.000976562, 0.00195312, -0.000976562, -0.0341797, 0.310547, -9.77832, 1.12.2022 20:28:13.956
190, 1.75235, 0.35703, 265.189, 0, 0.00292969, 0.000976562, -0.0732422, 0.313477, -9.85645, 1.12.2022 20:28:13.964
191, 1.75708, 0.351882, 265.189, 0.000976562, 0.00390625, 0, -0.155273, 0.380859, -9.79395, 1.12.2022 20:28:13.972
192, 1.75708, 0.351882, 265.189, 0.00292969, 0.00585938, 0, -0.078125, 0.321289, -9.72363, 1.12.2022 20:28:13.980
193, 1.75193, 0.347148, 265.189, 0.00488281, 0.0078125, -0.000976562, -0.0888672, 0.331055, -9.65723, 1.12.2022 20:28:13.988
194, 1.75193, 0.347148, 265.189, 0.00585938, 0.00195312, 0, -0.102539, 0.338867, -9.74414, 1.12.2022 20:28:13.996
195, 1.74679, 0.342415, 265.189, 0.00585938, 0.00195312, 0, -0.0546875, 0.358398, -9.77734, 1.12.2022 20:28:14.004
196, 1.74679, 0.342415, 265.189, 0.0078125, 0.00292969, 0.000976562, -0.0498047, 0.280273, -9.72754, 1.12.2022 20:28:14.012
197, 1.73691, 0.34283, 265.189, 0.00585938, 0.000976562, 0, -0.00292969, 0.249023, -9.78809, 1.12.2022 20:28:14.020
198, 1.73691, 0.34283, 265.189, 0.00292969, 0.000976562, 0, -0.0224609, 0.235352, -9.82812, 1.12.2022 20:28:14.028
199, 1.73691, 0.34283, 265.189, 0.00292969, 0.00390625, 0, 0.00585938, 0.225586, -9.82422, 1.12.2022 20:28:14.036
200, 1.73177, 0.338096, 265.189, -0.000976562, 0.00488281, 0, 0.0859375, 0.227539, -9.72656, 1.12.2022 20:28:14.044
201, 1.7365, 0.332948, 265.189, -0.000976562, 0.00292969, -0.000976562, -0.100586, 0.304688, -9.80859, 1.12.2022 20:28:14.052
202, 1.7365, 0.332948, 265.189, -0.000976562, 0.00488281, 0, -0.0742188, 0.333008, -9.78223, 1.12.2022 20:28:14.060
203, 1.7365, 0.332948, 265.189, -0.000976562, 0.00292969, 0.000976562, -0.00585938, 0.289062, -9.68262, 1.12.2022 20:28:14.068
204, 1.7365, 0.332948, 265.189, -0.000976562, 0, 0.000976562, -0.108398, 0.333008, -9.70801, 1.12.2022 20:28:14.076
205, 1.7365, 0.332948, 265.189, 0, -0.00292969, -0.000976562, -0.0302734, 0.288086, -9.72949, 1.12.2022 20:28:14.084
206, 1.7365, 0.332948, 265.189, 0.000976562, -0.00292969, -0.000976562, -0.00878906, 0.271484, -9.73047, 1.12.2022 20:28:14.092
207, 1.7365, 0.332948, 265.189, 0, -0.00390625, -0.00195312, -0.0341797, 0.28418, -9.77441, 1.12.2022 20:28:14.100
208, 1.7365, 0.332948, 265.189, 0, -0.00683594, -0.00195312, 0.0527344, 0.241211, -9.85059, 1.12.2022 20:28:14.108
209, 1.73177, 0.338096, 265.189, -0.00195312, -0.00585938, -0.000976562, -0.0273438, 0.256836, -9.81348, 1.12.2022 20:28:14.116
210, 1.73177, 0.338096, 265.189, -0.00292969, -0.00195312, 0, -0.0175781, 0.269531, -9.8252, 1.12.2022 20:28:14.124
211, 1.73177, 0.338096, 265.189, -0.00292969, -0.000976562, 0.000976562, 0.0214844, 0.267578, -9.76855, 1.12.2022 20:28:14.132
212, 1.73691, 0.34283, 265.189, -0.00390625, -0.00195312, 0.000976562, -0.12207, 0.330078, -9.7793, 1.12.2022 20:28:14.140
213, 1.73691, 0.34283, 265.189, -0.00390625, -0.00195312, 0.000976562, -0.0615234, 0.338867, -9.74414, 1.12.2022 20:28:14.148
214, 1.74187, 0.337589, 265.18, -0.00390625, -0.00195312, 0.000976562, -0.0878906, 0.299805, -9.72852, 1.12.2022 20:28:14.156
215, 1.74187, 0.337589, 265.18, -0.00390625, -0.00585938, 0.000976562, -0.111328, 0.337891, -9.70312, 1.12.2022 20:28:14.164
216, 1.74229, 0.347471, 265.179, -0.00292969, -0.00683594, 0.000976562, -0.0664062, 0.362305, -9.75098, 1.12.2022 20:28:14.172
217, 1.74229, 0.347471, 265.179, -0.000976562, -0.00585938, -0.000976562, -0.0605469, 0.318359, -9.78711, 1.12.2022 20:28:14.180
218, 1.74229, 0.347471, 265.179, -0.00195312, -0.00390625, -0.00195312, -0.0605469, 0.291992, -9.7998, 1.12.2022 20:28:14.188
219, 1.74229, 0.347471, 265.179, -0.000976562, -0.00390625, 0.000976562, -0.0351562, 0.313477, -9.87598, 1.12.2022 20:28:14.196
220, 1.74743, 0.352203, 265.179, -0.000976562, -0.000976562, 0, -0.116211, 0.31543, -9.84082, 1.12.2022 20:28:14.204
221, 1.74229, 0.347471, 265.179, 0, 0.000976562, 0.000976562, -0.0625, 0.287109, -9.78125, 1.12.2022 20:28:14.212
222, 1.74229, 0.347471, 265.179, -0.000976562, 0.00195312, 0.000976562, -0.0966797, 0.291016, -9.83301, 1.12.2022 20:28:14.220
223, 1.74229, 0.347471, 265.179, 0, 0.00292969, -0.000976562, -0.128906, 0.322266, -9.74902, 1.12.2022 20:28:14.228
224, 1.74229, 0.347471, 265.179, 0, 0.00390625, 0, -0.078125, 0.307617, -9.74512, 1.12.2022 20:28:14.236
225, 1.74229, 0.347471, 265.179, 0.000976562, 0.00195312, 0, -0.15918, 0.319336, -9.72461, 1.12.2022 20:28:14.244
226, 1.74229, 0.347471, 265.179, 0.00195312, 0.000976562, -0.000976562, -0.116211, 0.332031, -9.74805, 1.12.2022 20:28:14.252
227, 1.73714, 0.342738, 265.179, 0.00195312, 0, 0, -0.0654297, 0.288086, -9.80273, 1.12.2022 20:28:14.260
228, 1.73714, 0.342738, 265.179, 0.00195312, 0, 0, -0.0791016, 0.301758, -9.78809, 1.12.2022 20:28:14.268
229, 1.73714, 0.342738, 265.179, 0.000976562, -0.000976562, 0, -0.0224609, 0.258789, -9.79492, 1.12.2022 20:28:14.276
230, 1.73714, 0.342738, 265.179, 0.000976562, -0.000976562, 0, -0.0585938, 0.257812, -9.8457, 1.12.2022 20:28:14.284
231, 1.73714, 0.342738, 265.179, 0, 0, 0, -0.0410156, 0.267578, -9.78711, 1.12.2022 20:28:14.292
232, 1.73714, 0.342738, 265.179, -0.000976562, 0.000976562, 0, 0.0234375, 0.238281, -9.74609, 1.12.2022 20:28:14.300
233, 1.73714, 0.342738, 265.179, -0.00195312, 0.00195312, -0.000976562, -0.0742188, 0.291992, -9.79785, 1.12.2022 20:28:14.308
234, 1.73714, 0.342738, 265.179, -0.00195312, 0.000976562, 0, -0.0507812, 0.321289, -9.81152, 1.12.2022 20:28:14.316
235, 1.73714, 0.342738, 265.179, -0.00195312, 0, 0, -0.0146484, 0.307617, -9.75098, 1.12.2022 20:28:14.324
236, 1.73714, 0.342738, 265.179, -0.000976562, -0.00195312, 0, -0.104492, 0.34375, -9.73926, 1.12.2022 20:28:14.332
237, 1.73714, 0.342738, 265.179, -0.000976562, -0.00195312, 0, -0.0166016, 0.319336, -9.75781, 1.12.2022 20:28:14.340
238, 1.73714, 0.342738, 265.179, 0, -0.00195312, 0, -0.00683594, 0.288086, -9.73926, 1.12.2022 20:28:14.348
239, 1.73714, 0.342738, 265.179, 0, -0.00292969, 0.000976562, -0.0693359, 0.305664, -9.77832, 1.12.2022 20:28:14.356
240, 1.73714, 0.342738, 265.179, 0, -0.00195312, -0.00195312, 0.0136719, 0.267578, -9.77637, 1.12.2022 20:28:14.364
241, 1.73714, 0.342738, 265.179, 0, -0.000976562, 0, -0.0390625, 0.261719, -9.83008, 1.12.2022 20:28:14.372
242, 1.73714, 0.342738, 265.179, 0, 0, 0, -0.0458984, 0.268555, -9.80762, 1.12.2022 20:28:14.380
243, 1.73714, 0.342738, 265.179, -0.000976562, 0.000976562, 0.000976562, -0.046875, 0.286133, -9.82129, 1.12.2022 20:28:14.388
244, 1.73714, 0.342738, 265.179, -0.000976562, 0.000976562, 0.000976562, -0.130859, 0.286133, -9.75, 1.12.2022 20:28:14.396
245, 1.73714, 0.342738, 265.179, -0.000976562, 0.000976562, 0.000976562, -0.0615234, 0.288086, -9.73438, 1.12.2022 20:28:14.404
246, 1.73714, 0.342738, 265.179, -0.000976562, 0, 0, -0.105469, 0.300781, -9.75879, 1.12.2022 20:28:14.412
247, 1.73714, 0.342738, 265.179, -0.000976562, -0.000976562, 0, -0.113281, 0.342773, -9.71777, 1.12.2022 20:28:14.420
248, 1.73714, 0.342738, 265.179, 0, -0.00195312, 0, -0.0478516, 0.260742, -9.76855, 1.12.2022 20:28:14.428
249, 1.73714, 0.342738, 265.179, 0, -0.00195312, 0, -0.100586, 0.260742, -9.77441, 1.12.2022 20:28:14.436
250, 1.73714, 0.342738, 265.179, 0, -0.00292969, -0.00195312, -0.0488281, 0.319336, -9.81836, 1.12.2022 20:28:14.444
251, 1.73714, 0.342738, 265.179, 0, -0.000976562, 0, -0.0273438, 0.283203, -9.81055, 1.12.2022 20:28:14.452
252, 1.73714, 0.342738, 265.179, -0.000976562, 0, 0.000976562, -0.103516, 0.297852, -9.81836, 1.12.2022 20:28:14.460
253, 1.73714, 0.342738, 265.179, -0.000976562, 0, 0, -0.0273438, 0.304688, -9.79785, 1.12.2022 20:28:14.468
254, 1.73714, 0.342738, 265.179, -0.000976562, 0, 0, -0.0810547, 0.313477, -9.77832, 1.12.2022 20:28:14.476
255, 1.73714, 0.342738, 265.179, 0, 0.00195312, 0, -0.0810547, 0.305664, -9.75195, 1.12.2022 20:28:14.484
256, 1.73714, 0.342738, 265.179, 0, 0.000976562, -0.000976562, -0.03125, 0.333984, -9.76172, 1.12.2022 20:28:14.492
257, 1.73714, 0.342738, 265.179, 0, 0, 0, -0.0927734, 0.34375, -9.74609, 1.12.2022 20:28:14.500
258, 1.73714, 0.342738, 265.179, 0, 0, 0, -0.0791016, 0.320312, -9.75684, 1.12.2022 20:28:14.508
259, 1.73714, 0.342738, 265.179, 0.000976562, -0.000976562, 0, -0.03125, 0.3125, -9.75488, 1.12.2022 20:28:14.516
260, 1.73714, 0.342738, 265.179, 0.000976562, -0.000976562, -0.00195312, -0.0996094, 0.333984, -9.74609, 1.12.2022 20:28:14.524
261, 1.73241, 0.347886, 265.179, 0, -0.00195312, 0, 0.00195312, 0.272461, -9.77832, 1.12.2022 20:28:14.532
262, 1.73241, 0.347886, 265.179, 0.000976562, -0.000976562, 0, -0.0263672, 0.276367, -9.76074, 1.12.2022 20:28:14.540
263, 1.72727, 0.343153, 265.179, 0, 0, 0, -0.0625, 0.313477, -9.79199, 1.12.2022 20:28:14.548
264, 1.72727, 0.343153, 265.179, -0.000976562, 0.000976562, 0, -0.00585938, 0.306641, -9.80566, 1.12.2022 20:28:14.556
265, 1.72727, 0.343153, 265.179, -0.000976562, 0.00195312, -0.000976562, -0.0996094, 0.31543, -9.75195, 1.12.2022 20:28:14.564
266, 1.732, 0.338005, 265.179, -0.00195312, 0.000976562, 0, -0.0908203, 0.324219, -9.75391, 1.12.2022 20:28:14.572
267, 1.732, 0.338005, 265.179, -0.000976562, 0, 0, -0.0625, 0.305664, -9.76855, 1.12.2022 20:28:14.580
268, 1.732, 0.338005, 265.179, 0, -0.000976562, 0, -0.124023, 0.317383, -9.74902, 1.12.2022 20:28:14.588
269, 1.732, 0.338005, 265.179, 0.000976562, -0.000976562, 0, -0.0185547, 0.298828, -9.70605, 1.12.2022 20:28:14.596
270, 1.72727, 0.343153, 265.179, 0, -0.00292969, -0.000976562, -0.0380859, 0.279297, -9.7627, 1.12.2022 20:28:14.604
271, 1.72727, 0.343153, 265.179, 0, -0.00195312, 0, -0.0908203, 0.320312, -9.77539, 1.12.2022 20:28:14.612
272, 1.72727, 0.343153, 265.179, -0.000976562, -0.00195312, -0.00195312, 0.00390625, 0.282227, -9.77539, 1.12.2022 20:28:14.620
273, 1.73241, 0.347886, 265.179, -0.00195312, -0.00195312, -0.00195312, -0.0742188, 0.313477, -9.77051, 1.12.2022 20:28:14.628
274, 1.73241, 0.347886, 265.179, -0.000976562, -0.000976562, 0, -0.0458984, 0.291992, -9.79102, 1.12.2022 20:28:14.636
275, 1.73241, 0.347886, 265.179, -0.000976562, 0.000976562, 0.000976562, -0.00976562, 0.28125, -9.75879, 1.12.2022 20:28:14.644
276, 1.73241, 0.347886, 265.179, -0.000976562, 0, 0.000976562, -0.109375, 0.30957, -9.73535, 1.12.2022 20:28:14.652
277, 1.73241, 0.347886, 265.179, -0.000976562, -0.000976562, 0, -0.0302734, 0.329102, -9.7334, 1.12.2022 20:28:14.660
278, 1.73241, 0.347886, 265.179, 0, -0.000976562, -0.00195312, -0.0839844, 0.303711, -9.7666, 1.12.2022 20:28:14.668
279, 1.73241, 0.347886, 265.179, 0.000976562, 0, -0.00195312, -0.0820312, 0.34668, -9.69629, 1.12.2022 20:28:14.676
280, 1.73241, 0.347886, 265.179, 0, 0, 0, -0.0166016, 0.298828, -9.76953, 1.12.2022 20:28:14.684
281, 1.73241, 0.347886, 265.179, -0.000976562, -0.00195312, 0, -0.0986328, 0.316406, -9.8125, 1.12.2022 20:28:14.692
282, 1.73241, 0.347886, 265.179, 0, -0.000976562, 0, -0.0439453, 0.335938, -9.80664, 1.12.2022 20:28:14.700
283, 1.73241, 0.347886, 265.179, 0.000976562, 0, 0, -0.0224609, 0.273438, -9.79883, 1.12.2022 20:28:14.708
284, 1.72727, 0.343153, 265.179, 0, 0, 0.000976562, -0.0839844, 0.303711, -9.76855, 1.12.2022 20:28:14.716
285, 1.72727, 0.343153, 265.179, 0, 0.000976562, 0, -0.0341797, 0.28418, -9.77734, 1.12.2022 20:28:14.724
286, 1.72727, 0.343153, 265.179, -0.000976562, 0.000976562, 0, -0.0527344, 0.288086, -9.74316, 1.12.2022 20:28:14.732
287, 1.72727, 0.343153, 265.179, 0, 0.00195312, 0.000976562, -0.0664062, 0.307617, -9.74023, 1.12.2022 20:28:14.740
288, 1.72727, 0.343153, 265.179, -0.000976562, 0, 0.000976562, -0.0478516, 0.298828, -9.7832, 1.12.2022 20:28:14.748
289, 1.72727, 0.343153, 265.179, 0, 0, 0, -0.104492, 0.326172, -9.73242, 1.12.2022 20:28:14.756
290, 1.72727, 0.343153, 265.179, 0, -0.000976562, 0, -0.0498047, 0.310547, -9.75684, 1.12.2022 20:28:14.764
291, 1.72727, 0.343153, 265.179, -0.000976562, -0.000976562, 0, 0.00878906, 0.251953, -9.81152, 1.12.2022 20:28:14.772
292, 1.72727, 0.343153, 265.179, 0, -0.000976562, -0.00195312, -0.0449219, 0.306641, -9.71289, 1.12.2022 20:28:14.780
293, 1.72727, 0.343153, 265.179, 0, -0.00292969, -0.00195312, -0.0400391, 0.28418, -9.85742, 1.12.2022 20:28:14.788
294, 1.72727, 0.343153, 265.179, -0.000976562, 0, 0, -0.0410156, 0.303711, -9.7832, 1.12.2022 20:28:14.796
295, 1.72727, 0.343153, 265.179, -0.000976562, 0, 0.000976562, -0.0810547, 0.295898, -9.76172, 1.12.2022 20:28:14.804
296, 1.72727, 0.343153, 265.179, -0.000976562, 0, 0.000976562, -0.0341797, 0.276367, -9.81055, 1.12.2022 20:28:14.812
297, 1.72727, 0.343153, 265.179, -0.000976562, 0, 0.00195312, -0.0869141, 0.27832, -9.80762, 1.12.2022 20:28:14.818
298, 1.72727, 0.343153, 265.179, -0.000976562, 0, 0.000976562, -0.0673828, 0.299805, -9.81641, 1.12.2022 20:28:14.826
299, 1.72727, 0.343153, 265.179, -0.000976562, 0.00195312, -0.000976562, -0.0419922, 0.321289, -9.72168, 1.12.2022 20:28:14.834
300, 1.72727, 0.343153, 265.179, -0.000976562, -0.000976562, -0.00195312, -0.120117, 0.323242, -9.79102, 1.12.2022 20:28:14.842
301, 1.72727, 0.343153, 265.179, 0, -0.000976562, 0, -0.0126953, 0.31543, -9.7832, 1.12.2022 20:28:14.850
302, 1.72727, 0.343153, 265.179, 0, 0, 0, -0.0576172, 0.295898, -9.75, 1.12.2022 20:28:14.858
303, 1.72727, 0.343153, 265.179, 0, 0, 0, -0.0556641, 0.301758, -9.7998, 1.12.2022 20:28:14.866
304, 1.72727, 0.343153, 265.179, -0.000976562, -0.000976562, 0.000976562, -0.0166016, 0.269531, -9.77344, 1.12.2022 20:28:14.874
305, 1.72727, 0.343153, 265.179, -0.000976562, -0.000976562, 0.000976562, -0.0986328, 0.333008, -9.80273, 1.12.2022 20:28:14.882
306, 1.72705, 0.343097, 265.18, 0, 0, 0, -0.0791016, 0.298828, -9.77344, 1.12.2022 20:28:14.890
307, 1.72727, 0.343153, 265.179, -0.000976562, -0.000976562, -0.00195312, -0.0527344, 0.297852, -9.74609, 1.12.2022 20:28:14.898
308, 1.72727, 0.343153, 265.179, -0.000976562, -0.000976562, -0.00195312, -0.119141, 0.313477, -9.7793, 1.12.2022 20:28:14.906
309, 1.72727, 0.343153, 265.179, -0.000976562, 0, 0, -0.0478516, 0.274414, -9.74609, 1.12.2022 20:28:14.914
310, 1.72727, 0.343153, 265.179, -0.000976562, -0.000976562, 0, -0.0839844, 0.310547, -9.77539, 1.12.2022 20:28:14.922
311, 1.72727, 0.343153, 265.179, 0, -0.000976562, 0.000976562, -0.0859375, 0.3125, -9.74512, 1.12.2022 20:28:14.930
312, 1.72705, 0.343097, 265.18, 0, -0.000976562, 0.000976562, -0.00585938, 0.27832, -9.80566, 1.12.2022 20:28:14.938
313, 1.72705, 0.343097, 265.18, 0, 0, 0, -0.0742188, 0.296875, -9.78809, 1.12.2022 20:28:14.946
314, 1.72705, 0.343097, 265.18, 0, -0.000976562, -0.00195312, -0.0400391, 0.295898, -9.74609, 1.12.2022 20:28:14.954
315, 1.72727, 0.343153, 265.179, 0, -0.000976562, -0.00195312, 0.00488281, 0.28418, -9.75391, 1.12.2022 20:28:14.962
316, 1.72727, 0.343153, 265.179, 0, -0.000976562, -0.00195312, -0.0966797, 0.297852, -9.81543, 1.12.2022 20:28:14.970
317, 1.72727, 0.343153, 265.179, -0.000976562, 0, -0.000976562, -0.03125, 0.308594, -9.78613, 1.12.2022 20:28:14.978
318, 1.72727, 0.343153, 265.179, 0, 0, 0, -0.0556641, 0.275391, -9.80078, 1.12.2022 20:28:14.986
319, 1.72727, 0.343153, 265.179, 0, 0, 0, -0.0742188, 0.329102, -9.74902, 1.12.2022 20:28:14.994
320, 1.72727, 0.343153, 265.179, 0, 0, 0.000976562, -0.0185547, 0.288086, -9.7373, 1.12.2022 20:28:15.002
321, 1.72727, 0.343153, 265.179, -0.000976562, -0.000976562, 0.000976562, -0.0888672, 0.301758, -9.80371, 1.12.2022 20:28:15.010
322, 1.72727, 0.343153, 265.179, -0.000976562, -0.000976562, -0.00195312, -0.0146484, 0.301758, -9.79785, 1.12.2022 20:28:15.018
323, 1.72727, 0.343153, 265.179, -0.000976562, 0, -0.000976562, -0.0498047, 0.269531, -9.74609, 1.12.2022 20:28:15.026
324, 1.72727, 0.343153, 265.179, -0.000976562, -0.000976562, -0.00195312, -0.0908203, 0.292969, -9.74512, 1.12.2022 20:28:15.034
325, 1.72727, 0.343153, 265.179, -0.000976562, -0.00195312, -0.00195312, -0.0361328, 0.314453, -9.80469, 1.12.2022 20:28:15.042
326, 1.72727, 0.343153, 265.179, 0, -0.000976562, 0, -0.0761719, 0.302734, -9.75488, 1.12.2022 20:28:15.050
327, 1.72727, 0.343153, 265.179, 0, -0.000976562, 0.000976562, -0.078125, 0.297852, -9.74023, 1.12.2022 20:28:15.058
328, 1.72727, 0.343153, 265.179, -0.000976562, -0.000976562, 0.000976562, -0.0175781, 0.293945, -9.78223, 1.12.2022 20:28:15.066
329, 1.72727, 0.343153, 265.179, -0.000976562, 0, 0, -0.0859375, 0.299805, -9.73535, 1.12.2022 20:28:15.074
330, 1.72727, 0.343153, 265.179, -0.000976562, 0, 0, -0.0683594, 0.293945, -9.70312, 1.12.2022 20:28:15.082
331, 1.73241, 0.347886, 265.179, -0.000976562, -0.000976562, -0.00195312, -0.0351562, 0.285156, -9.72754, 1.12.2022 20:28:15.090
332, 1.73241, 0.347886, 265.179, 0, -0.000976562, 0, -0.0839844, 0.327148, -9.77539, 1.12.2022 20:28:15.098
333, 1.73241, 0.347886, 265.179, 0, -0.000976562, 0, -0.0175781, 0.318359, -9.78125, 1.12.2022 20:28:15.106
334, 1.73241, 0.347886, 265.179, 0, -0.000976562, -0.00195312, -0.0722656, 0.325195, -9.77539, 1.12.2022 20:28:15.114
335, 1.73241, 0.347886, 265.179, 0, -0.000976562, 0, -0.0664062, 0.299805, -9.7334, 1.12.2022 20:28:15.122
336, 1.73241, 0.347886, 265.179, 0, -0.000976562, 0, -0.000976562, 0.261719, -9.82031, 1.12.2022 20:28:15.130
337, 1.72727, 0.343153, 265.179, 0, 0.000976562, 0, -0.0751953, 0.276367, -9.80762, 1.12.2022 20:28:15.138
338, 1.72727, 0.343153, 265.179, 0, 0, -0.000976562, -0.0439453, 0.27832, -9.81738, 1.12.2022 20:28:15.146
339, 1.72727, 0.343153, 265.179, -0.000976562, 0, 0, -0.0361328, 0.279297, -9.76074, 1.12.2022 20:28:15.154
340, 1.72727, 0.343153, 265.179, -0.000976562, 0, 0, -0.0966797, 0.318359, -9.7207, 1.12.2022 20:28:15.162
341, 1.72727, 0.343153, 265.179, -0.000976562, 0, 0, -0.03125, 0.329102, -9.75, 1.12.2022 20:28:15.170
342, 1.72727, 0.343153, 265.179, -0.000976562, 0, 0.000976562, -0.110352, 0.30957, -9.80859, 1.12.2022 20:28:15.178
343, 1.72727, 0.343153, 265.179, 0, 0, 0.00195312, -0.0908203, 0.308594, -9.77051, 1.12.2022 20:28:15.186
344, 1.72727, 0.343153, 265.179, 0, -0.000976562, 0.000976562, -0.0166016, 0.268555, -9.73535, 1.12.2022 20:28:15.194
345, 1.72705, 0.343097, 265.18, 0, -0.000976562, 0, -0.0722656, 0.311523, -9.78711, 1.12.2022 20:28:15.202
346, 1.72705, 0.343097, 265.18, 0, -0.000976562, 0, -0.0429688, 0.295898, -9.75293, 1.12.2022 20:28:15.210
347, 1.72705, 0.343097, 265.18, -0.000976562, -0.000976562, 0, -0.0214844, 0.291992, -9.77441, 1.12.2022 20:28:15.218
348, 1.72705, 0.343097, 265.18, -0.000976562, 0, -0.000976562, -0.0712891, 0.298828, -9.75977, 1.12.2022 20:28:15.226
349, 1.72727, 0.343153, 265.179, -0.000976562, 0, 0, -0.0224609, 0.263672, -9.79883, 1.12.2022 20:28:15.234
350, 1.72727, 0.343153, 265.179, 0, 0, 0, -0.0839844, 0.274414, -9.76465, 1.12.2022 20:28:15.242
351, 1.72727, 0.343153, 265.179, 0, 0, 0, -0.0927734, 0.28125, -9.75781, 1.12.2022 20:28:15.250
352, 1.72705, 0.343097, 265.18, 0, 0, 0, 0.00488281, 0.288086, -9.74707, 1.12.2022 20:28:15.258
353, 1.72705, 0.343097, 265.18, -0.000976562, 0, 0.000976562, -0.09375, 0.306641, -9.78223, 1.12.2022 20:28:15.266
354, 1.72705, 0.343097, 265.18, 0, 0, 0, -0.0527344, 0.274414, -9.75586, 1.12.2022 20:28:15.274
355, 1.72705, 0.343097, 265.18, -0.000976562, 0, -0.000976562, -0.03125, 0.280273, -9.78711, 1.12.2022 20:28:15.282
356, 1.72727, 0.343153, 265.179, 0, -0.000976562, -0.00195312, -0.102539, 0.298828, -9.77832, 1.12.2022 20:28:15.290
357, 1.72727, 0.343153, 265.179, -0.000976562, -0.000976562, 0, -0.0195312, 0.287109, -9.79102, 1.12.2022 20:28:15.298
358, 1.72727, 0.343153, 265.179, -0.000976562, 0, -0.000976562, -0.0712891, 0.300781, -9.76172, 1.12.2022 20:28:15.306
359, 1.72727, 0.343153, 265.179, -0.000976562, -0.000976562, 0, -0.0791016, 0.313477, -9.77051, 1.12.2022 20:28:15.314
360, 1.72727, 0.343153, 265.179, 0, 0, 0.000976562, -0.0146484, 0.276367, -9.76367, 1.12.2022 20:28:15.322
361, 1.72727, 0.343153, 265.179, -0.000976562, 0, 0, -0.107422, 0.28418, -9.7666, 1.12.2022 20:28:15.330
362, 1.72727, 0.343153, 265.179, -0.000976562, -0.000976562, 0, -0.0498047, 0.307617, -9.75, 1.12.2022 20:28:15.338
363, 1.72727, 0.343153, 265.179, -0.000976562, -0.000976562, -0.00195312, -0.046875, 0.314453, -9.72852, 1.12.2022 20:28:15.346
364, 1.72727, 0.343153, 265.179, -0.00195312, -0.000976562, 0, -0.107422, 0.338867, -9.73926, 1.12.2022 20:28:15.354
365, 1.72727, 0.343153, 265.179, -0.000976562, -0.00195312, -0.00195312, -0.0195312, 0.291992, -9.78613, 1.12.2022 20:28:15.362
366, 1.73241, 0.347886, 265.179, -0.000976562, -0.00195312, 0.000976562, -0.0664062, 0.289062, -9.75488, 1.12.2022 20:28:15.370
367, 1.73241, 0.347886, 265.179, 0, -0.000976562, 0, -0.0429688, 0.295898, -9.75293, 1.12.2022 20:28:15.378
368, 1.73219, 0.34783, 265.18, 0, -0.000976562, 0.00195312, -0.000976562, 0.235352, -9.81641, 1.12.2022 20:28:15.386
369, 1.73219, 0.34783, 265.18, 0, 0, 0, -0.0791016, 0.283203, -9.79785, 1.12.2022 20:28:15.394
370, 1.73219, 0.34783, 265.18, 0, 0, 0, -0.0546875, 0.28125, -9.74805, 1.12.2022 20:28:15.402
371, 1.72705, 0.343097, 265.18, -0.000976562, 0, 0, -0.0380859, 0.297852, -9.73926, 1.12.2022 20:28:15.410
372, 1.72705, 0.343097, 265.18, -0.000976562, 0, 0, -0.103516, 0.290039, -9.79688, 1.12.2022 20:28:15.418
373, 1.72705, 0.343097, 265.18, -0.000976562, -0.000976562, 0.000976562, -0.0361328, 0.291016, -9.76953, 1.12.2022 20:28:15.426
374, 1.73219, 0.34783, 265.18, -0.000976562, -0.000976562, 0, -0.0595703, 0.279297, -9.74805, 1.12.2022 20:28:15.434
375, 1.73219, 0.34783, 265.18, 0, -0.000976562, 0, -0.0576172, 0.329102, -9.75879, 1.12.2022 20:28:15.442
376, 1.73219, 0.34783, 265.18, 0, -0.000976562, 0, -0.0185547, 0.288086, -9.7373, 1.12.2022 20:28:15.450
377, 1.73219, 0.34783, 265.18, 0, -0.000976562, 0, -0.0839844, 0.325195, -9.76074, 1.12.2022 20:28:15.458
378, 1.73219, 0.34783, 265.18, 0, -0.00195312, 0, -0.0214844, 0.304688, -9.73145, 1.12.2022 20:28:15.466
379, 1.73219, 0.34783, 265.18, -0.000976562, -0.000976562, 0, -0.0292969, 0.301758, -9.80273, 1.12.2022 20:28:15.474
380, 1.73219, 0.34783, 265.18, -0.000976562, -0.000976562, -0.00195312, -0.0791016, 0.310547, -9.75195, 1.12.2022 20:28:15.482
381, 1.73219, 0.34783, 265.18, 0, 0, 0.000976562, 0, 0.289062, -9.77246, 1.12.2022 20:28:15.490
382, 1.73219, 0.34783, 265.18, 0, 0, 0.000976562, -0.0576172, 0.283203, -9.74805, 1.12.2022 20:28:15.498
383, 1.73219, 0.34783, 265.18, 0, 0, 0, -0.0615234, 0.304688, -9.73633, 1.12.2022 20:28:15.506
384, 1.72705, 0.343097, 265.18, 0, 0, 0, -0.0166016, 0.300781, -9.74902, 1.12.2022 20:28:15.514
385, 1.72705, 0.343097, 265.18, 0.000976562, -0.000976562, 0, -0.113281, 0.347656, -9.80957, 1.12.2022 20:28:15.522
386, 1.72705, 0.343097, 265.18, 0, 0, 0, -0.0458984, 0.289062, -9.77246, 1.12.2022 20:28:15.530
387, 1.72705, 0.343097, 265.18, 0, 0, 0, -0.0390625, 0.273438, -9.79395, 1.12.2022 20:28:15.538
388, 1.72705, 0.343097, 265.18, 0, -0.000976562, 0, -0.0693359, 0.318359, -9.78223, 1.12.2022 20:28:15.546
389, 1.72705, 0.343097, 265.18, 0, -0.000976562, 0, -0.0078125, 0.30957, -9.80273, 1.12.2022 20:28:15.554
390, 1.72705, 0.343097, 265.18, -0.000976562, 0, 0, -0.0839844, 0.320312, -9.76074, 1.12.2022 20:28:15.562
391, 1.72705, 0.343097, 265.18, -0.00195312, 0, 0, -0.0742188, 0.322266, -9.77344, 1.12.2022 20:28:15.570
392, 1.72705, 0.343097, 265.18, -0.000976562, 0, 0, -0.03125, 0.293945, -9.76953, 1.12.2022 20:28:15.578
393, 1.72705, 0.343097, 265.18, -0.000976562, -0.000976562, 0, -0.0791016, 0.275391, -9.79102, 1.12.2022 20:28:15.586
394, 1.72705, 0.343097, 265.18, -0.00195312, -0.000976562, -0.000976562, -0.0478516, 0.275391, -9.78613, 1.12.2022 20:28:15.594
395, 1.72705, 0.343097, 265.18, -0.000976562, 0, -0.00292969, -0.0625, 0.289062, -9.77441, 1.12.2022 20:28:15.602
396, 1.72705, 0.343097, 265.18, 0, 0, -0.000976562, -0.0986328, 0.351562, -9.78613, 1.12.2022 20:28:15.610
397, 1.72705, 0.343097, 265.18, -0.000976562, 0, 0, -0.00683594, 0.283203, -9.74902, 1.12.2022 20:28:15.618
398, 1.72705, 0.343097, 265.18, -0.000976562, 0, 0, -0.0712891, 0.273438, -9.73242, 1.12.2022 20:28:15.626
399, 1.72705, 0.343097, 265.18, 0, -0.000976562, 0, -0.0703125, 0.294922, -9.80957, 1.12.2022 20:28:15.634
400, 1.72705, 0.343097, 265.18, -0.000976562, -0.000976562, 0, -0.00976562, 0.270508, -9.77832, 1.12.2022 20:28:15.642
401, 1.72705, 0.343097, 265.18, -0.000976562, 0, 0, -0.100586, 0.330078, -9.77734, 1.12.2022 20:28:15.650
402, 1.72705, 0.343097, 265.18, -0.000976562, 0, 0, -0.0478516, 0.318359, -9.79004, 1.12.2022 20:28:15.658
403, 1.72705, 0.343097, 265.18, 0, 0, 0, -0.0576172, 0.299805, -9.80273, 1.12.2022 20:28:15.666
404, 1.72705, 0.343097, 265.18, 0, 0, 0, -0.102539, 0.332031, -9.76074, 1.12.2022 20:28:15.674
405, 1.72705, 0.343097, 265.18, -0.000976562, 0, 0, -0.0263672, 0.293945, -9.77734, 1.12.2022 20:28:15.682
406, 1.72705, 0.343097, 265.18, -0.000976562, 0, 0, -0.0810547, 0.28125, -9.75977, 1.12.2022 20:28:15.690
407, 1.72705, 0.343097, 265.18, 0, 0, 0.000976562, -0.0693359, 0.313477, -9.77344, 1.12.2022 20:28:15.698
408, 1.72705, 0.343097, 265.18, 0, -0.000976562, 0, -0.0371094, 0.30957, -9.81445, 1.12.2022 20:28:15.706
409, 1.72705, 0.343097, 265.18, 0, 0, -0.000976562, -0.103516, 0.314453, -9.8125, 1.12.2022 20:28:15.714
410, 1.72705, 0.343097, 265.18, 0, -0.000976562, -0.00195312, -0.0361328, 0.3125, -9.76465, 1.12.2022 20:28:15.722
411, 1.72705, 0.343097, 265.18, -0.000976562, 0, 0, -0.0478516, 0.289062, -9.76953, 1.12.2022 20:28:15.730
412, 1.72705, 0.343097, 265.18, -0.000976562, -0.000976562, 0.000976562, -0.0888672, 0.326172, -9.80371, 1.12.2022 20:28:15.738
413, 1.72705, 0.343097, 265.18, 0, 0, 0.000976562, -0.0341797, 0.288086, -9.80273, 1.12.2022 20:28:15.746
414, 1.72705, 0.343097, 265.18, 0, 0, 0, -0.0810547, 0.248047, -9.74219, 1.12.2022 20:28:15.754
415, 1.72705, 0.343097, 265.18, -0.000976562, 0, 0.000976562, -0.0693359, 0.297852, -9.74805, 1.12.2022 20:28:15.762
416, 1.72728, 0.343005, 265.17, -0.000976562, -0.000976562, 0, -0.0341797, 0.290039, -9.7959, 1.12.2022 20:28:15.768
417, 1.72728, 0.343005, 265.17, 0, -0.000976562, 0, -0.106445, 0.331055, -9.72266, 1.12.2022 20:28:15.776
418, 1.72705, 0.343097, 265.18, 0, -0.000976562, -0.00195312, -0.0527344, 0.285156, -9.79297, 1.12.2022 20:28:15.784
419, 1.72705, 0.343097, 265.18, 0.000976562, -0.000976562, 0, -0.046875, 0.276367, -9.83887, 1.12.2022 20:28:15.792
420, 1.72705, 0.343097, 265.18, 0, -0.000976562, 0, -0.0722656, 0.310547, -9.77539, 1.12.2022 20:28:15.800
421, 1.72705, 0.343097, 265.18, -0.000976562, 0, 0, -0.0195312, 0.296875, -9.80078, 1.12.2022 20:28:15.808
422, 1.72728, 0.343005, 265.17, -0.000976562, 0, 0.000976562, -0.0644531, 0.289062, -9.7793, 1.12.2022 20:28:15.816
423, 1.72728, 0.343005, 265.17, 0, -0.000976562, 0, -0.0839844, 0.301758, -9.77539, 1.12.2022 20:28:15.824
424, 1.72728, 0.343005, 265.17, 0, 0, 0, -0.00976562, 0.305664, -9.76758, 1.12.2022 20:28:15.832
425, 1.72728, 0.343005, 265.17, 0, 0, 0, -0.0673828, 0.298828, -9.77832, 1.12.2022 20:28:15.840
426, 1.72728, 0.343005, 265.17, 0, 0, 0, -0.0556641, 0.290039, -9.78809, 1.12.2022 20:28:15.848
427, 1.72728, 0.343005, 265.17, -0.000976562, 0, -0.000976562, -0.0712891, 0.276367, -9.75586, 1.12.2022 20:28:15.856
428, 1.72728, 0.343005, 265.17, 0, -0.000976562, 0, -0.0966797, 0.316406, -9.71191, 1.12.2022 20:28:15.864
429, 1.72728, 0.343005, 265.17, 0, -0.000976562, 0.000976562, -0.0224609, 0.296875, -9.80273, 1.12.2022 20:28:15.872
430, 1.72728, 0.343005, 265.17, 0, -0.000976562, 0.000976562, -0.0693359, 0.274414, -9.7627, 1.12.2022 20:28:15.880
431, 1.72728, 0.343005, 265.17, -0.000976562, -0.000976562, 0, -0.0595703, 0.287109, -9.77148, 1.12.2022 20:28:15.888
432, 1.72728, 0.343005, 265.17, -0.000976562, -0.000976562, 0, -0.0273438, 0.271484, -9.80859, 1.12.2022 20:28:15.896
433, 1.72728, 0.343005, 265.17, 0, -0.000976562, 0, -0.12207, 0.321289, -9.78906, 1.12.2022 20:28:15.904
434, 1.72728, 0.343005, 265.17, 0, 0, 0, -0.0332031, 0.283203, -9.7207, 1.12.2022 20:28:15.912
435, 1.72728, 0.343005, 265.17, 0, -0.000976562, 0, -0.0410156, 0.308594, -9.79297, 1.12.2022 20:28:15.920
436, 1.72728, 0.343005, 265.17, 0, 0, 0, -0.0947266, 0.34082, -9.74902, 1.12.2022 20:28:15.928
437, 1.72728, 0.343005, 265.17, -0.000976562, -0.000976562, 0.000976562, -0.00878906, 0.301758, -9.73242, 1.12.2022 20:28:15.936
438, 1.72728, 0.343005, 265.17, -0.000976562, 0, 0.000976562, -0.0742188, 0.306641, -9.7998, 1.12.2022 20:28:15.944
439, 1.72728, 0.343005, 265.17, -0.000976562, 0, 0, -0.0888672, 0.300781, -9.77148, 1.12.2022 20:28:15.952
440, 1.72728, 0.343005, 265.17, 0, -0.000976562, -0.00195312, -0.0341797, 0.297852, -9.82617, 1.12.2022 20:28:15.960
441, 1.72728, 0.343005, 265.17, 0, 0, -0.000976562, -0.0976562, 0.302734, -9.75879, 1.12.2022 20:28:15.968
442, 1.72728, 0.343005, 265.17, 0, 0, 0, -0.0175781, 0.318359, -9.79102, 1.12.2022 20:28:15.976
443, 1.72728, 0.343005, 265.17, -0.000976562, 0, 0, -0.0605469, 0.285156, -9.81445, 1.12.2022 20:28:15.984
444, 1.72728, 0.343005, 265.17, -0.000976562, 0, 0.000976562, -0.101562, 0.294922, -9.72363, 1.12.2022 20:28:15.992
445, 1.72728, 0.343005, 265.17, 0, 0, 0, -0.0351562, 0.294922, -9.73926, 1.12.2022 20:28:16.000
446, 1.72728, 0.343005, 265.17, 0, 0, 0, -0.101562, 0.292969, -9.72363, 1.12.2022 20:28:16.008
447, 1.72728, 0.343005, 265.17, -0.000976562, -0.000976562, 0, -0.104492, 0.310547, -9.75391, 1.12.2022 20:28:16.016
448, 1.72728, 0.343005, 265.17, -0.000976562, 0, 0, -0.0302734, 0.304688, -9.71973, 1.12.2022 20:28:16.024
449, 1.72728, 0.343005, 265.17, 0, 0, 0, -0.0888672, 0.318359, -9.77734, 1.12.2022 20:28:16.032
450, 1.72728, 0.343005, 265.17, -0.000976562, -0.000976562, 0, -0.0410156, 0.326172, -9.80371, 1.12.2022 20:28:16.040
451, 1.72728, 0.343005, 265.17, 0, -0.000976562, 0, -0.0195312, 0.298828, -9.76953, 1.12.2022 20:28:16.048
452, 1.72728, 0.343005, 265.17, 0, 0, 0, -0.0927734, 0.322266, -9.76758, 1.12.2022 20:28:16.056
453, 1.72728, 0.343005, 265.17, -0.000976562, 0, 0.000976562, -0.0361328, 0.272461, -9.77246, 1.12.2022 20:28:16.064
454, 1.72728, 0.343005, 265.17, -0.000976562, -0.000976562, 0, -0.0839844, 0.313477, -9.77344, 1.12.2022 20:28:16.072
455, 1.72728, 0.343005, 265.17, 0.000976562, -0.000976562, 0, -0.0546875, 0.289062, -9.75586, 1.12.2022 20:28:16.080
456, 1.72728, 0.343005, 265.17, 0, -0.000976562, -0.00195312, -0.00390625, 0.27832, -9.82227, 1.12.2022 20:28:16.088
457, 1.72728, 0.343005, 265.17, 0, -0.000976562, -0.00195312, -0.117188, 0.291992, -9.77832, 1.12.2022 20:28:16.096
458, 1.72728, 0.343005, 265.17, 0, -0.000976562, 0, -0.0664062, 0.297852, -9.75, 1.12.2022 20:28:16.104
459, 1.72728, 0.343005, 265.17, 0, -0.000976562, 0, -0.0810547, 0.296875, -9.78027, 1.12.2022 20:28:16.112
460, 1.72255, 0.348154, 265.17, 0, -0.000976562, 0.000976562, -0.114258, 0.292969, -9.73828, 1.12.2022 20:28:16.120
461, 1.72255, 0.348154, 265.17, 0, 0, 0.000976562, -0.0107422, 0.288086, -9.82422, 1.12.2022 20:28:16.128
462, 1.72255, 0.348154, 265.17, 0, 0, 0.000976562, -0.0664062, 0.295898, -9.74512, 1.12.2022 20:28:16.136
463, 1.72255, 0.348154, 265.17, 0, -0.000976562, 0, -0.0859375, 0.269531, -9.75977, 1.12.2022 20:28:16.144
464, 1.72255, 0.348154, 265.17, 0, 0, -0.000976562, -0.0292969, 0.257812, -9.7666, 1.12.2022 20:28:16.152
465, 1.72255, 0.348154, 265.17, 0, -0.000976562, -0.00292969, -0.12207, 0.28418, -9.75879, 1.12.2022 20:28:16.160
466, 1.72255, 0.348154, 265.17, 0, -0.000976562, -0.00195312, -0.0722656, 0.294922, -9.79297, 1.12.2022 20:28:16.168
467, 1.72255, 0.348154, 265.17, -0.000976562, -0.000976562, 0, -0.0332031, 0.310547, -9.7627, 1.12.2022 20:28:16.176
468, 1.72255, 0.348154, 265.17, 0, -0.000976562, 0, -0.0908203, 0.334961, -9.76758, 1.12.2022 20:28:16.184
469, 1.72255, 0.348154, 265.17, 0, -0.000976562, 0, -0.0439453, 0.313477, -9.80176, 1.12.2022 20:28:16.192
470, 1.72255, 0.348154, 265.17, 0, -0.00195312, 0.000976562, -0.102539, 0.296875, -9.77539, 1.12.2022 20:28:16.200
471, 1.72255, 0.348154, 265.17, 0.000976562, -0.000976562, 0, -0.0976562, 0.307617, -9.7334, 1.12.2022 20:28:16.208
472, 1.72255, 0.348154, 265.17, 0, -0.000976562, 0, 0.015625, 0.263672, -9.81152, 1.12.2022 20:28:16.216
473, 1.72255, 0.348154, 265.17, 0, -0.00195312, -0.00195312, -0.0908203, 0.323242, -9.7959, 1.12.2022 20:28:16.224
474, 1.72255, 0.348154, 265.17, 0, -0.000976562, -0.00195312, -0.0341797, 0.311523, -9.7998, 1.12.2022 20:28:16.232
475, 1.72255, 0.348154, 265.17, -0.000976562, 0, -0.000976562, -0.0361328, 0.300781, -9.76465, 1.12.2022 20:28:16.240
476, 1.72255, 0.348154, 265.17, -0.000976562, -0.000976562, 0, -0.0722656, 0.313477, -9.77832, 1.12.2022 20:28:16.248
477, 1.72255, 0.348154, 265.17, -0.000976562, -0.000976562, 0, -0.0078125, 0.301758, -9.80762, 1.12.2022 20:28:16.256
478, 1.72255, 0.348154, 265.17, 0, 0, 0, -0.0693359, 0.279297, -9.77637, 1.12.2022 20:28:16.264
479, 1.72255, 0.348154, 265.17, 0, 0, 0, -0.0673828, 0.269531, -9.7627, 1.12.2022 20:28:16.272
480, 1.72255, 0.348154, 265.17, 0, -0.000976562, -0.00195312, -0.015625, 0.280273, -9.80859, 1.12.2022 20:28:16.280
481, 1.72255, 0.348154, 265.17, 0, 0, -0.000976562, -0.128906, 0.318359, -9.7793, 1.12.2022 20:28:16.288
482, 1.72255, 0.348154, 265.17, 0, 0, 0, -0.0595703, 0.297852, -9.72949, 1.12.2022 20:28:16.296
483, 1.72255, 0.348154, 265.17, -0.000976562, -0.000976562, 0, -0.0576172, 0.286133, -9.75781, 1.12.2022 20:28:16.304
484, 1.72255, 0.348154, 265.17, 0, -0.000976562, 0, -0.107422, 0.298828, -9.78027, 1.12.2022 20:28:16.312
485, 1.72255, 0.348154, 265.17, 0, 0, 0.000976562, -0.0175781, 0.310547, -9.78613, 1.12.2022 20:28:16.320
486, 1.72255, 0.348154, 265.17, -0.000976562, 0, 0, -0.0957031, 0.279297, -9.74512, 1.12.2022 20:28:16.328
487, 1.72255, 0.348154, 265.17, 0, -0.00195312, 0, -0.0625, 0.289062, -9.75488, 1.12.2022 20:28:16.336
488, 1.71781, 0.353303, 265.17, -0.000976562, -0.000976562, 0, -0.0537109, 0.24707, -9.79688, 1.12.2022 20:28:16.344
489, 1.71781, 0.353303, 265.17, -0.000976562, 0, -0.000976562, -0.0810547, 0.322266, -9.76562, 1.12.2022 20:28:16.352
490, 1.71781, 0.353303, 265.17, -0.000976562, 0, -0.000976562, -0.0292969, 0.305664, -9.77148, 1.12.2022 20:28:16.360
491, 1.72255, 0.348154, 265.17, 0, 0.000976562, -0.000976562, -0.0791016, 0.31543, -9.76367, 1.12.2022 20:28:16.368
492, 1.72255, 0.348154, 265.17, 0, 0, 0, -0.0957031, 0.330078, -9.77246, 1.12.2022 20:28:16.376
493, 1.72255, 0.348154, 265.17, -0.000976562, -0.000976562, 0.000976562, -0.0234375, 0.292969, -9.74609, 1.12.2022 20:28:16.384
494, 1.72255, 0.348154, 265.17, -0.000976562, 0, 0.000976562, -0.100586, 0.298828, -9.76172, 1.12.2022 20:28:16.392
495, 1.72255, 0.348154, 265.17, 0, 0.000976562, 0, -0.0595703, 0.307617, -9.74805, 1.12.2022 20:28:16.400
496, 1.72255, 0.348154, 265.17, 0, 0, -0.000976562, -0.0214844, 0.27832, -9.74707, 1.12.2022 20:28:16.408
497, 1.72255, 0.348154, 265.17, 0, -0.000976562, -0.00195312, -0.0927734, 0.319336, -9.73242, 1.12.2022 20:28:16.416
498, 1.72255, 0.348154, 265.17, 0, -0.000976562, 0, -0.0410156, 0.3125, -9.76172, 1.12.2022 20:28:16.424
499, 1.71781, 0.353303, 265.17, 0, -0.000976562, -0.00195312, -0.0761719, 0.310547, -9.75195, 1.12.2022 20:28:16.432
500, 1.71759, 0.353395, 265.179, 0, -0.000976562, 0, -0.0898438, 0.321289, -9.71387, 1.12.2022 20:28:16.440
501, 1.71759, 0.353395, 265.179, 0, 0, 0, -0.015625, 0.273438, -9.81348, 1.12.2022 20:28:16.448
502, 1.71759, 0.353395, 265.179, 0, -0.000976562, 0, -0.0722656, 0.313477, -9.77344, 1.12.2022 20:28:16.456
503, 1.71759, 0.353395, 265.179, -0.000976562, -0.000976562, 0, -0.0722656, 0.303711, -9.7832, 1.12.2022 20:28:16.464
504, 1.71781, 0.353303, 265.17, -0.000976562, -0.00195312, 0, -0.0283203, 0.301758, -9.71094, 1.12.2022 20:28:16.472
505, 1.71781, 0.353303, 265.17, -0.000976562, -0.00195312, 0, -0.110352, 0.337891, -9.80078, 1.12.2022 20:28:16.480
506, 1.71781, 0.353303, 265.17, 0, -0.000976562, 0, -0.0234375, 0.30957, -9.75293, 1.12.2022 20:28:16.488
507, 1.71759, 0.353395, 265.179, -0.000976562, -0.000976562, -0.00195312, -0.03125, 0.295898, -9.75781, 1.12.2022 20:28:16.496
508, 1.71759, 0.353395, 265.179, 0.000976562, -0.00195312, 0, -0.09375, 0.357422, -9.80762, 1.12.2022 20:28:16.504
509, 1.71759, 0.353395, 265.179, 0, -0.000976562, 0, -0.0117188, 0.262695, -9.75879, 1.12.2022 20:28:16.512
510, 1.71759, 0.353395, 265.179, -0.000976562, 0, 0, -0.0791016, 0.336914, -9.77246, 1.12.2022 20:28:16.520
511, 1.71759, 0.353395, 265.179, 0, -0.000976562, 0, -0.0839844, 0.308594, -9.78711, 1.12.2022 20:28:16.528
512, 1.71759, 0.353395, 265.179, 0, -0.000976562, 0, -0.0332031, 0.291016, -9.76074, 1.12.2022 20:28:16.536
513, 1.71781, 0.353303, 265.17, 0, 0, 0.000976562, -0.0976562, 0.302734, -9.75391, 1.12.2022 20:28:16.544
514, 1.71781, 0.353303, 265.17, 0, 0, 0, -0.0576172, 0.322266, -9.76172, 1.12.2022 20:28:16.552
515, 1.71781, 0.353303, 265.17, 0, 0, 0, -0.0595703, 0.300781, -9.75977, 1.12.2022 20:28:16.560
516, 1.71781, 0.353303, 265.17, -0.000976562, 0, 0, -0.0986328, 0.316406, -9.78516, 1.12.2022 20:28:16.568
517, 1.71781, 0.353303, 265.17, 0, 0, 0, -0.00292969, 0.302734, -9.7627, 1.12.2022 20:28:16.576
518, 1.71781, 0.353303, 265.17, 0, -0.000976562, 0, -0.0585938, 0.306641, -9.80664, 1.12.2022 20:28:16.584
519, 1.71781, 0.353303, 265.17, 0, 0, 0, -0.0800781, 0.296875, -9.72363, 1.12.2022 20:28:16.592
520, 1.71781, 0.353303, 265.17, 0, -0.000976562, 0, -0.0214844, 0.265625, -9.77344, 1.12.2022 20:28:16.600
521, 1.71781, 0.353303, 265.17, 0, -0.000976562, 0, -0.0947266, 0.304688, -9.7373, 1.12.2022 20:28:16.608
522, 1.71781, 0.353303, 265.17, 0, -0.00195312, 0, -0.0380859, 0.288086, -9.72461, 1.12.2022 20:28:16.616
523, 1.71781, 0.353303, 265.17, 0, 0, 0, -0.00292969, 0.275391, -9.78711, 1.12.2022 20:28:16.624
524, 1.71781, 0.353303, 265.17, -0.000976562, -0.000976562, 0.000976562, -0.0957031, 0.3125, -9.75879, 1.12.2022 20:28:16.632
525, 1.71781, 0.353303, 265.17, -0.000976562, -0.000976562, 0, -0.0195312, 0.296875, -9.78223, 1.12.2022 20:28:16.640
526, 1.72296, 0.358035, 265.17, -0.000976562, -0.000976562, 0, -0.0527344, 0.307617, -9.74805, 1.12.2022 20:28:16.648
527, 1.72296, 0.358035, 265.17, -0.000976562, -0.000976562, 0, -0.0771484, 0.298828, -9.77832, 1.12.2022 20:28:16.656
528, 1.72296, 0.358035, 265.17, -0.000976562, -0.000976562, 0, -0.0292969, 0.287109, -9.78418, 1.12.2022 20:28:16.664
529, 1.72296, 0.358035, 265.17, 0, -0.000976562, 0, -0.107422, 0.27832, -9.74023, 1.12.2022 20:28:16.672
530, 1.72296, 0.358035, 265.17, 0, 0, 0, -0.0263672, 0.300781, -9.75781, 1.12.2022 20:28:16.680
531, 1.72296, 0.358035, 265.17, 0, -0.000976562, 0, -0.0576172, 0.298828, -9.76172, 1.12.2022 20:28:16.688
532, 1.72296, 0.358035, 265.17, -0.000976562, -0.000976562, 0, -0.110352, 0.318359, -9.77246, 1.12.2022 20:28:16.696
533, 1.72296, 0.358035, 265.17, -0.000976562, -0.000976562, 0.000976562, -0.0234375, 0.286133, -9.75879, 1.12.2022 20:28:16.704
534, 1.72296, 0.358035, 265.17, -0.000976562, 0, 0, -0.0761719, 0.296875, -9.72168, 1.12.2022 20:28:16.712
535, 1.72296, 0.358035, 265.17, 0, -0.000976562, -0.00195312, -0.0878906, 0.295898, -9.75977, 1.12.2022 20:28:16.720
536, 1.72296, 0.358035, 265.17, 0, 0, 0, -0.0361328, 0.279297, -9.75879, 1.12.2022 20:28:16.726
537, 1.72296, 0.358035, 265.17, 0, 0.000976562, 0, -0.124023, 0.307617, -9.75391, 1.12.2022 20:28:16.734
538, 1.72296, 0.358035, 265.17, 0, -0.000976562, 0, -0.0253906, 0.306641, -9.72949, 1.12.2022 20:28:16.742
539, 1.72296, 0.358035, 265.17, -0.000976562, -0.000976562, -0.00195312, -0.0605469, 0.323242, -9.80371, 1.12.2022 20:28:16.750
540, 1.72296, 0.358035, 265.17, 0, 0, -0.000976562, -0.0986328, 0.318359, -9.79883, 1.12.2022 20:28:16.758
541, 1.72296, 0.358035, 265.17, 0, 0, 0, -0.0117188, 0.271484, -9.75684, 1.12.2022 20:28:16.766
542, 1.72296, 0.358035, 265.17, 0, 0, 0, -0.09375, 0.320312, -9.78027, 1.12.2022 20:28:16.774
543, 1.72296, 0.358035, 265.17, 0.000976562, 0, 0, -0.0859375, 0.301758, -9.77539, 1.12.2022 20:28:16.782
544, 1.71823, 0.363184, 265.169, 0.000976562, -0.000976562, -0.00195312, -0.0341797, 0.28418, -9.77441, 1.12.2022 20:28:16.790
545, 1.71823, 0.363184, 265.169, 0, -0.000976562, -0.00195312, -0.119141, 0.313477, -9.77051, 1.12.2022 20:28:16.798
546, 1.718, 0.363276, 265.179, 0, -0.000976562, -0.00195312, -0.0576172, 0.3125, -9.76855, 1.12.2022 20:28:16.806
547, 1.718, 0.363276, 265.179, -0.000976562, 0, 0, -0.0410156, 0.296875, -9.77637, 1.12.2022 20:28:16.814
548, 1.718, 0.363276, 265.179, 0, -0.000976562, 0, -0.0927734, 0.321289, -9.73242, 1.12.2022 20:28:16.822
549, 1.71823, 0.363184, 265.169, -0.000976562, -0.00195312, 0.000976562, -0.0292969, 0.275391, -9.78027, 1.12.2022 20:28:16.830
550, 1.71823, 0.363184, 265.169, -0.00195312, -0.00195312, 0, -0.0625, 0.272461, -9.76758, 1.12.2022 20:28:16.838
551, 1.71823, 0.363184, 265.169, 0, 0, 0, -0.0595703, 0.289062, -9.77441, 1.12.2022 20:28:16.846
552, 1.71823, 0.363184, 265.169, 0, 0, 0, -0.0292969, 0.304688, -9.7998, 1.12.2022 20:28:16.854
553, 1.71823, 0.363184, 265.169, 0, -0.00195312, -0.00195312, -0.103516, 0.347656, -9.80957, 1.12.2022 20:28:16.862
554, 1.718, 0.363276, 265.179, 0, -0.000976562, -0.00195312, -0.0390625, 0.308594, -9.78613, 1.12.2022 20:28:16.870
555, 1.718, 0.363276, 265.179, 0, -0.000976562, 0, -0.0722656, 0.285156, -9.80273, 1.12.2022 20:28:16.878
556, 1.718, 0.363276, 265.179, -0.000976562, -0.000976562, 0, -0.103516, 0.301758, -9.79395, 1.12.2022 20:28:16.886
557, 1.718, 0.363276, 265.179, 0, -0.000976562, 0, -0.0146484, 0.271484, -9.75391, 1.12.2022 20:28:16.894
558, 1.718, 0.363276, 265.179, 0, -0.000976562, 0, -0.0878906, 0.290039, -9.71973, 1.12.2022 20:28:16.902
559, 1.718, 0.363276, 265.179, 0, -0.000976562, -0.00195312, -0.0839844, 0.318359, -9.77344, 1.12.2022 20:28:16.910
560, 1.718, 0.363276, 265.179, -0.000976562, -0.000976562, 0, -0.0263672, 0.300781, -9.77246, 1.12.2022 20:28:16.918
561, 1.718, 0.363276, 265.179, 0, -0.000976562, 0.000976562, -0.113281, 0.290039, -9.7998, 1.12.2022 20:28:16.926
562, 1.718, 0.363276, 265.179, 0, -0.000976562, 0, -0.0214844, 0.291016, -9.75098, 1.12.2022 20:28:16.934
563, 1.718, 0.363276, 265.179, -0.000976562, 0, 0, -0.0566406, 0.271484, -9.83594, 1.12.2022 20:28:16.942
564, 1.718, 0.363276, 265.179, -0.000976562, 0, 0, -0.105469, 0.331055, -9.80273, 1.12.2022 20:28:16.950
565, 1.71823, 0.363184, 265.169, -0.000976562, 0, 0.000976562, -0.0332031, 0.289062, -9.7627, 1.12.2022 20:28:16.958
566, 1.71823, 0.363184, 265.169, -0.000976562, -0.000976562, 0.000976562, -0.0673828, 0.296875, -9.7832, 1.12.2022 20:28:16.966
567, 1.71823, 0.363184, 265.169, -0.000976562, -0.00195312, 0, -0.0673828, 0.320312, -9.77051, 1.12.2022 20:28:16.974
568, 1.71823, 0.363184, 265.169, -0.000976562, -0.000976562, 0, -0.0527344, 0.263672, -9.78711, 1.12.2022 20:28:16.982
569, 1.71823, 0.363184, 265.169, -0.000976562, -0.000976562, 0, -0.102539, 0.313477, -9.78418, 1.12.2022 20:28:16.990
570, 1.71823, 0.363184, 265.169, -0.000976562, -0.000976562, 0, -0.0458984, 0.291016, -9.76953, 1.12.2022 20:28:16.998
571, 1.71823, 0.363184, 265.169, -0.000976562, -0.000976562, -0.00195312, -0.0625, 0.303711, -9.7666, 1.12.2022 20:28:17.006
572, 1.72338, 0.367917, 265.169, -0.000976562, -0.000976562, 0, -0.0839844, 0.303711, -9.77539, 1.12.2022 20:28:17.014
573, 1.72338, 0.367917, 265.169, -0.000976562, -0.000976562, 0, -0.0263672, 0.291992, -9.77441, 1.12.2022 20:28:17.022
574, 1.72338, 0.367917, 265.169, 0, -0.000976562, 0, -0.0908203, 0.276367, -9.74805, 1.12.2022 20:28:17.030
575, 1.72338, 0.367917, 265.169, 0, 0, 0, -0.0830078, 0.290039, -9.7334, 1.12.2022 20:28:17.038
576, 1.72338, 0.367917, 265.169, -0.000976562, -0.000976562, -0.00195312, -0.0302734, 0.297852, -9.73438, 1.12.2022 20:28:17.046
577, 1.72338, 0.367917, 265.169, -0.000976562, -0.000976562, -0.00195312, -0.110352, 0.31543, -9.77246, 1.12.2022 20:28:17.054
578, 1.72315, 0.368009, 265.179, 0, -0.000976562, -0.00195312, -0.00292969, 0.287109, -9.79688, 1.12.2022 20:28:17.062
579, 1.72315, 0.368009, 265.179, 0, -0.000976562, 0, -0.0361328, 0.296875, -9.78418, 1.12.2022 20:28:17.070
580, 1.72315, 0.368009, 265.179, -0.000976562, 0, 0, -0.09375, 0.313477, -9.77734, 1.12.2022 20:28:17.078
581, 1.72315, 0.368009, 265.179, -0.000976562, 0, 0, -0.0146484, 0.272461, -9.77539, 1.12.2022 20:28:17.086
582, 1.72315, 0.368009, 265.179, 0, -0.000976562, 0, -0.0566406, 0.268555, -9.7373, 1.12.2022 20:28:17.094
583, 1.72315, 0.368009, 265.179, 0, -0.000976562, 0, -0.0556641, 0.289062, -9.78418, 1.12.2022 20:28:17.102
584, 1.72315, 0.368009, 265.179, 0, -0.000976562, 0, -0.0253906, 0.297852, -9.8291, 1.12.2022 20:28:17.110
585, 1.72315, 0.368009, 265.179, 0, -0.000976562, 0, -0.12207, 0.339844, -9.7793, 1.12.2022 20:28:17.118
586, 1.72315, 0.368009, 265.179, -0.000976562, 0, 0, -0.0263672, 0.295898, -9.74414, 1.12.2022 20:28:17.126
587, 1.72338, 0.367917, 265.169, -0.000976562, -0.000976562, 0.000976562, -0.0507812, 0.289062, -9.76953, 1.12.2022 20:28:17.134
588, 1.72338, 0.367917, 265.169, -0.000976562, -0.000976562, 0, -0.110352, 0.301758, -9.78711, 1.12.2022 20:28:17.142
589, 1.72338, 0.367917, 265.169, 0, -0.000976562, 0, -0.0195312, 0.256836, -9.80371, 1.12.2022 20:28:17.150
590, 1.72338, 0.367917, 265.169, -0.000976562, -0.000976562, -0.00195312, -0.0771484, 0.301758, -9.77637, 1.12.2022 20:28:17.158
591, 1.72315, 0.368009, 265.179, -0.000976562, -0.000976562, -0.00195312, -0.0742188, 0.336914, -9.78418, 1.12.2022 20:28:17.166
592, 1.72315, 0.368009, 265.179, -0.000976562, 0, 0, -0.0625, 0.308594, -9.78027, 1.12.2022 20:28:17.174
593, 1.72315, 0.368009, 265.179, -0.000976562, 0, 0, -0.109375, 0.297852, -9.75, 1.12.2022 20:28:17.182
594, 1.72315, 0.368009, 265.179, -0.000976562, -0.000976562, 0, -0.0644531, 0.298828, -9.7666, 1.12.2022 20:28:17.190
595, 1.72315, 0.368009, 265.179, -0.000976562, -0.000976562, 0, -0.0595703, 0.272461, -9.76758, 1.12.2022 20:28:17.198
596, 1.72315, 0.368009, 265.179, 0, -0.000976562, 0, -0.0878906, 0.287109, -9.70801, 1.12.2022 20:28:17.206
597, 1.72315, 0.368009, 265.179, 0, 0, -0.000976562, -0.0195312, 0.290039, -9.80078, 1.12.2022 20:28:17.214
598, 1.72315, 0.368009, 265.179, 0, 0, -0.000976562, -0.0644531, 0.308594, -9.78809, 1.12.2022 20:28:17.222
599, 1.72315, 0.368009, 265.179, 0, 0, -0.000976562, -0.0576172, 0.320312, -9.7666, 1.12.2022 20:28:17.230
600, 1.72315, 0.368009, 265.179, 0.000976562, -0.000976562, 0, -0.0478516, 0.289062, -9.75293, 1.12.2022 20:28:17.238
601, 1.71842, 0.373158, 265.179, 0, 0, 0, -0.131836, 0.333008, -9.79297, 1.12.2022 20:28:17.246
602, 1.71842, 0.373158, 265.179, 0, -0.000976562, 0, -0.00488281, 0.299805, -9.73438, 1.12.2022 20:28:17.254
603, 1.71842, 0.373158, 265.179, 0, -0.00195312, 0, -0.0439453, 0.272461, -9.78711, 1.12.2022 20:28:17.262
604, 1.71842, 0.373158, 265.179, 0, -0.000976562, 0, -0.105469, 0.320312, -9.77539, 1.12.2022 20:28:17.270
605, 1.71842, 0.373158, 265.179, -0.000976562, -0.000976562, 0, -0.0146484, 0.296875, -9.78418, 1.12.2022 20:28:17.278
606, 1.71842, 0.373158, 265.179, -0.000976562, 0, 0, -0.0712891, 0.300781, -9.76855, 1.12.2022 20:28:17.286
607, 1.71842, 0.373158, 265.179, 0, -0.000976562, -0.00195312, -0.0546875, 0.307617, -9.75293, 1.12.2022 20:28:17.294
608, 1.71842, 0.373158, 265.179, 0, -0.00195312, -0.00195312, -0.0292969, 0.321289, -9.79785, 1.12.2022 20:28:17.302
609, 1.71842, 0.373158, 265.179, -0.000976562, -0.000976562, 0, -0.120117, 0.316406, -9.80762, 1.12.2022 20:28:17.310
610, 1.71842, 0.373158, 265.179, -0.000976562, -0.000976562, 0, -0.0263672, 0.292969, -9.74902, 1.12.2022 20:28:17.318
611, 1.71842, 0.373158, 265.179, 0, 0, 0, -0.0664062, 0.292969, -9.75, 1.12.2022 20:28:17.326
612, 1.71842, 0.373158, 265.179, -0.000976562, -0.000976562, 0, -0.0957031, 0.305664, -9.77344, 1.12.2022 20:28:17.334
613, 1.71842, 0.373158, 265.179, 0, 0, 0, -0.00195312, 0.266602, -9.73047, 1.12.2022 20:28:17.342
614, 1.71842, 0.373158, 265.179, 0, -0.000976562, -0.00195312, -0.0664062, 0.286133, -9.75293, 1.12.2022 20:28:17.350
615, 1.71842, 0.373158, 265.179, 0, -0.000976562, -0.00195312, -0.09375, 0.318359, -9.78516, 1.12.2022 20:28:17.358
616, 1.71863, 0.373212, 265.179, -0.000976562, -0.000976562, -0.00195312, -0.0263672, 0.287109, -9.78906, 1.12.2022 20:28:17.366
617, 1.71863, 0.373212, 265.179, 0, 0.000976562, -0.000976562, -0.0859375, 0.349609, -9.78613, 1.12.2022 20:28:17.374
618, 1.71863, 0.373212, 265.179, 0, -0.000976562, -0.00195312, -0.0380859, 0.314453, -9.74805, 1.12.2022 20:28:17.382
619, 1.71863, 0.373212, 265.179, 0, 0, 0.000976562, -0.0458984, 0.304688, -9.79785, 1.12.2022 20:28:17.390
620, 1.71863, 0.373212, 265.179, 0, 0, 0, -0.102539, 0.291992, -9.77344, 1.12.2022 20:28:17.398
621, 1.71863, 0.373212, 265.179, 0, 0, 0, -0.0292969, 0.289062, -9.76953, 1.12.2022 20:28:17.406
622, 1.71863, 0.373212, 265.179, 0, -0.000976562, 0, -0.0839844, 0.302734, -9.81152, 1.12.2022 20:28:17.414
623, 1.71863, 0.373212, 265.179, 0, -0.000976562, -0.00195312, -0.0546875, 0.314453, -9.72656, 1.12.2022 20:28:17.422
624, 1.71863, 0.373212, 265.179, 0, -0.000976562, 0, -0.0341797, 0.296875, -9.78613, 1.12.2022 20:28:17.430
625, 1.71863, 0.373212, 265.179, 0.000976562, 0, -0.00195312, -0.0849609, 0.30957, -9.72363, 1.12.2022 20:28:17.438
626, 1.71863, 0.373212, 265.179, -0.000976562, -0.000976562, 0, -0.0253906, 0.298828, -9.71289, 1.12.2022 20:28:17.446
627, 1.71863, 0.373212, 265.179, 0, -0.000976562, -0.00195312, -0.0214844, 0.287109, -9.77734, 1.12.2022 20:28:17.454
628, 1.71863, 0.373212, 265.179, 0, -0.000976562, 0, -0.0546875, 0.292969, -9.73633, 1.12.2022 20:28:17.462
629, 1.71863, 0.373212, 265.179, -0.00195312, -0.000976562, -0.000976562, -0.03125, 0.305664, -9.75293, 1.12.2022 20:28:17.470
630, 1.71863, 0.373212, 265.179, -0.000976562, -0.000976562, -0.00195312, -0.0839844, 0.296875, -9.79297, 1.12.2022 20:28:17.478
631, 1.71863, 0.373212, 265.179, 0, -0.000976562, 0, -0.0761719, 0.288086, -9.7334, 1.12.2022 20:28:17.486
632, 1.71863, 0.373212, 265.179, 0, -0.00195312, 0, -0.0693359, 0.28125, -9.75293, 1.12.2022 20:28:17.494
633, 1.71863, 0.373212, 265.179, 0, -0.000976562, 0, -0.118164, 0.337891, -9.70117, 1.12.2022 20:28:17.502
634, 1.71863, 0.373212, 265.179, -0.000976562, 0, 0, -0.0332031, 0.289062, -9.7627, 1.12.2022 20:28:17.510
635, 1.71863, 0.373212, 265.179, 0, -0.000976562, 0, -0.0693359, 0.28418, -9.76465, 1.12.2022 20:28:17.518
636, 1.71863, 0.373212, 265.179, 0, -0.000976562, 0, -0.0966797, 0.299805, -9.81543, 1.12.2022 20:28:17.526
637, 1.71863, 0.373212, 265.179, 0, -0.000976562, 0, -0.0224609, 0.272461, -9.78516, 1.12.2022 20:28:17.534
638, 1.71863, 0.373212, 265.179, 0, 0, 0, -0.0595703, 0.291016, -9.75488, 1.12.2022 20:28:17.542
639, 1.71863, 0.373212, 265.179, 0, -0.000976562, 0, -0.0576172, 0.287109, -9.7959, 1.12.2022 20:28:17.550
640, 1.71863, 0.373212, 265.179, 0, -0.000976562, 0, -0.0078125, 0.296875, -9.78906, 1.12.2022 20:28:17.558
641, 1.71863, 0.373212, 265.179, 0, 0, -0.000976562, -0.0976562, 0.303711, -9.76367, 1.12.2022 20:28:17.566
642, 1.71863, 0.373212, 265.179, 0, -0.000976562, -0.00195312, -0.0195312, 0.313477, -9.77441, 1.12.2022 20:28:17.574
643, 1.71863, 0.373212, 265.179, -0.000976562, -0.000976562, 0, -0.0576172, 0.291992, -9.79102, 1.12.2022 20:28:17.582
644, 1.71863, 0.373212, 265.179, -0.000976562, -0.000976562, 0, -0.0820312, 0.311523, -9.79688, 1.12.2022 20:28:17.590
645, 1.72378, 0.377945, 265.179, 0, -0.000976562, 0.000976562, -0.0146484, 0.289062, -9.76562, 1.12.2022 20:28:17.598
646, 1.71905, 0.383094, 265.179, -0.000976562, -0.00195312, 0, -0.0839844, 0.289062, -9.77148, 1.12.2022 20:28:17.606
647, 1.71905, 0.383094, 265.179, 0, -0.000976562, -0.00195312, -0.0761719, 0.320312, -9.77051, 1.12.2022 20:28:17.614
648, 1.71905, 0.383094, 265.179, -0.000976562, 0.000976562, -0.000976562, -0.0234375, 0.27832, -9.72754, 1.12.2022 20:28:17.622
649, 1.72378, 0.377945, 265.179, -0.000976562, -0.000976562, -0.00195312, -0.125, 0.331055, -9.7959, 1.12.2022 20:28:17.630
650, 1.72378, 0.377945, 265.179, -0.000976562, -0.000976562, 0, -0.0322266, 0.314453, -9.81152, 1.12.2022 20:28:17.638
651, 1.72378, 0.377945, 265.179, -0.000976562, -0.000976562, 0, -0.0693359, 0.303711, -9.78809, 1.12.2022 20:28:17.646
652, 1.71905, 0.383094, 265.179, 0, -0.000976562, 0, -0.107422, 0.317383, -9.74219, 1.12.2022 20:28:17.654
653, 1.71905, 0.383094, 265.179, 0, -0.000976562, 0, -0.0361328, 0.265625, -9.78027, 1.12.2022 20:28:17.660
654, 1.71905, 0.383094, 265.179, 0, -0.000976562, 0, -0.0810547, 0.28125, -9.73633, 1.12.2022 20:28:17.668
655, 1.71905, 0.383094, 265.179, 0, -0.000976562, 0, -0.0253906, 0.258789, -9.72852, 1.12.2022 20:28:17.676
656, 1.71905, 0.383094, 265.179, -0.000976562, -0.00195312, 0, -0.0410156, 0.285156, -9.79785, 1.12.2022 20:28:17.684
657, 1.71905, 0.383094, 265.179, -0.000976562, -0.000976562, 0, -0.103516, 0.311523, -9.80566, 1.12.2022 20:28:17.692
658, 1.71905, 0.383094, 265.179, -0.000976562, -0.000976562, 0, -0.0078125, 0.289062, -9.77051, 1.12.2022 20:28:17.700
659, 1.71905, 0.383094, 265.179, -0.00195312, -0.000976562, 0, -0.0595703, 0.291992, -9.7793, 1.12.2022 20:28:17.708
660, 1.71905, 0.383094, 265.179, -0.000976562, 0, -0.000976562, -0.0869141, 0.311523, -9.80859, 1.12.2022 20:28:17.716
661, 1.71905, 0.383094, 265.179, -0.000976562, 0, 0, 0.00292969, 0.3125, -9.75098, 1.12.2022 20:28:17.724
662, 1.71905, 0.383094, 265.179, -0.000976562, -0.000976562, 0, -0.0908203, 0.318359, -9.77246, 1.12.2022 20:28:17.732
663, 1.71905, 0.383094, 265.179, 0, -0.000976562, 0, -0.0664062, 0.319336, -9.74023, 1.12.2022 20:28:17.740
664, 1.71905, 0.383094, 265.179, 0, -0.000976562, -0.00195312, -0.0576172, 0.293945, -9.78613, 1.12.2022 20:28:17.748
665, 1.71905, 0.383094, 265.179, -0.000976562, -0.000976562, 0, -0.12207, 0.293945, -9.77539, 1.12.2022 20:28:17.756
666, 1.71905, 0.383094, 265.179, 0, -0.000976562, 0, -0.0361328, 0.289062, -9.75781, 1.12.2022 20:28:17.764
667, 1.71905, 0.383094, 265.179, 0, -0.000976562, 0, -0.0576172, 0.306641, -9.78125, 1.12.2022 20:28:17.772
668, 1.71905, 0.383094, 265.179, -0.000976562, 0, 0.000976562, -0.0527344, 0.327148, -9.77051, 1.12.2022 20:28:17.780
669, 1.71905, 0.383094, 265.179, 0, -0.000976562, 0, 0.00976562, 0.28125, -9.76172, 1.12.2022 20:28:17.788
670, 1.71905, 0.383094, 265.179, 0, -0.000976562, 0, -0.0810547, 0.307617, -9.76172, 1.12.2022 20:28:17.796
671, 1.71905, 0.383094, 265.179, -0.000976562, -0.000976562, 0, -0.0498047, 0.327148, -9.76367, 1.12.2022 20:28:17.804
672, 1.71905, 0.383094, 265.179, -0.000976562, 0, 0, -0.0390625, 0.293945, -9.78418, 1.12.2022 20:28:17.812
673, 1.71905, 0.383094, 265.179, -0.000976562, 0, 0, -0.121094, 0.317383, -9.73926, 1.12.2022 20:28:17.820
674, 1.71905, 0.383094, 265.179, 0, -0.000976562, 0, -0.0380859, 0.295898, -9.76758, 1.12.2022 20:28:17.828
675, 1.71905, 0.383094, 265.179, -0.000976562, -0.000976562, 0, -0.0791016, 0.289062, -9.77637, 1.12.2022 20:28:17.836
676, 1.71905, 0.383094, 265.179, 0, -0.000976562, 0, -0.0839844, 0.320312, -9.78027, 1.12.2022 20:28:17.844
677, 1.71905, 0.383094, 265.179, 0, -0.000976562, -0.00195312, -0.00488281, 0.297852, -9.74219, 1.12.2022 20:28:17.852
678, 1.71905, 0.383094, 265.179, -0.000976562, 0, -0.000976562, -0.0732422, 0.347656, -9.73926, 1.12.2022 20:28:17.860
679, 1.71905, 0.383094, 265.179, -0.000976562, 0, -0.000976562, -0.0458984, 0.301758, -9.7793, 1.12.2022 20:28:17.868
680, 1.71905, 0.383094, 265.179, 0, 0, -0.000976562, -0.0361328, 0.307617, -9.7627, 1.12.2022 20:28:17.876
681, 1.71905, 0.383094, 265.179, -0.000976562, -0.000976562, 0, -0.0947266, 0.294922, -9.73535, 1.12.2022 20:28:17.884
682, 1.71905, 0.383094, 265.179, 0, 0.000976562, 0, -0.03125, 0.289062, -9.77246, 1.12.2022 20:28:17.892
683, 1.72378, 0.377945, 265.179, 0, 0, 0, -0.0507812, 0.287109, -9.79297, 1.12.2022 20:28:17.900
684, 1.72378, 0.377945, 265.179, -0.000976562, 0, 0, -0.0751953, 0.321289, -9.71191, 1.12.2022 20:28:17.908
685, 1.72378, 0.377945, 265.179, 0, -0.00195312, -0.00195312, -0.00683594, 0.286133, -9.75391, 1.12.2022 20:28:17.916
686, 1.72378, 0.377945, 265.179, 0, -0.000976562, -0.00195312, -0.0722656, 0.298828, -9.77344, 1.12.2022 20:28:17.924
687, 1.71905, 0.383094, 265.179, 0, -0.000976562, 0, -0.0351562, 0.302734, -9.74805, 1.12.2022 20:28:17.932
688, 1.71905, 0.383094, 265.179, 0, -0.000976562, 0, -0.0449219, 0.291016, -9.75293, 1.12.2022 20:28:17.940
689, 1.71905, 0.383094, 265.179, -0.000976562, -0.000976562, 0, -0.109375, 0.302734, -9.75195, 1.12.2022 20:28:17.948
690, 1.71905, 0.383094, 265.179, -0.000976562, -0.000976562, 0, -0.03125, 0.291016, -9.74902, 1.12.2022 20:28:17.956
691, 1.71905, 0.383094, 265.179, -0.00195312, -0.000976562, 0, -0.0595703, 0.293945, -9.76465, 1.12.2022 20:28:17.964
692, 1.72378, 0.377945, 265.179, -0.000976562, 0, 0, -0.0888672, 0.328125, -9.7793, 1.12.2022 20:28:17.972
693, 1.72378, 0.377945, 265.179, 0, 0, -0.000976562, -0.0244141, 0.298828, -9.78418, 1.12.2022 20:28:17.980
694, 1.72378, 0.377945, 265.179, -0.000976562, 0, 0, -0.0888672, 0.311523, -9.78516, 1.12.2022 20:28:17.988
695, 1.72378, 0.377945, 265.179, -0.000976562, -0.000976562, 0, -0.0566406, 0.307617, -9.7334, 1.12.2022 20:28:17.996
696, 1.72378, 0.377945, 265.179, -0.000976562, 0, 0, -0.046875, 0.273438, -9.7207, 1.12.2022 20:28:18.004
697, 1.72378, 0.377945, 265.179, 0, -0.000976562, 0, -0.117188, 0.306641, -9.78418, 1.12.2022 20:28:18.012
698, 1.72378, 0.377945, 265.179, 0, -0.000976562, 0, -0.03125, 0.322266, -9.75684, 1.12.2022 20:28:18.020
699, 1.72378, 0.377945, 265.179, -0.000976562, -0.000976562, -0.00195312, -0.0390625, 0.282227, -9.78906, 1.12.2022 20:28:18.028
700, 1.72893, 0.382678, 265.179, 0, -0.000976562, 0, -0.0673828, 0.298828, -9.77148, 1.12.2022 20:28:18.036
701, 1.72893, 0.382678, 265.179, -0.000976562, -0.000976562, 0, -0.0126953, 0.287109, -9.78418, 1.12.2022 20:28:18.044
702, 1.72893, 0.382678, 265.179, -0.000976562, -0.000976562, 0, -0.104492, 0.307617, -9.74219, 1.12.2022 20:28:18.052
703, 1.72893, 0.382678, 265.179, -0.000976562, 0, 0, -0.0566406, 0.295898, -9.74805, 1.12.2022 20:28:18.060
704, 1.72893, 0.382678, 265.179, -0.000976562, -0.000976562, 0, -0.0410156, 0.295898, -9.77148, 1.12.2022 20:28:18.068
705, 1.72893, 0.382678, 265.179, -0.000976562, 0, 0.000976562, -0.124023, 0.302734, -9.73047, 1.12.2022 20:28:18.076
706, 1.72893, 0.382678, 265.179, 0, -0.000976562, 0, -0.0078125, 0.274414, -9.77344, 1.12.2022 20:28:18.084
707, 1.72893, 0.382678, 265.179, 0, -0.00195312, 0, -0.0244141, 0.272461, -9.76855, 1.12.2022 20:28:18.092
708, 1.72893, 0.382678, 265.179, -0.000976562, -0.000976562, -0.00195312, -0.0761719, 0.293945, -9.77344, 1.12.2022 20:28:18.100
709, 1.72893, 0.382678, 265.179, -0.000976562, -0.000976562, -0.00195312, -0.0361328, 0.28418, -9.77441, 1.12.2022 20:28:18.108
710, 1.72893, 0.382678, 265.179, 0, -0.000976562, 0, -0.0986328, 0.318359, -9.78027, 1.12.2022 20:28:18.116
711, 1.72893, 0.382678, 265.179, 0, -0.000976562, 0, -0.0429688, 0.310547, -9.75977, 1.12.2022 20:28:18.124
712, 1.72893, 0.382678, 265.179, -0.000976562, -0.000976562, 0, -0.0117188, 0.310547, -9.76953, 1.12.2022 20:28:18.132
713, 1.72893, 0.382678, 265.179, -0.000976562, -0.000976562, 0, -0.126953, 0.324219, -9.80957, 1.12.2022 20:28:18.140
714, 1.72893, 0.382678, 265.179, 0, 0, 0, -0.0263672, 0.298828, -9.78418, 1.12.2022 20:28:18.148
715, 1.72893, 0.382678, 265.179, 0, -0.000976562, 0, -0.0859375, 0.301758, -9.78809, 1.12.2022 20:28:18.156
716, 1.72893, 0.382678, 265.179, -0.000976562, -0.000976562, 0, -0.0888672, 0.323242, -9.79395, 1.12.2022 20:28:18.164
717, 1.72893, 0.382678, 265.179, -0.000976562, 0, -0.000976562, -0.00976562, 0.288086, -9.73926, 1.12.2022 20:28:18.172
718, 1.72869, 0.382772, 265.189, 0, -0.000976562, -0.00195312, -0.0712891, 0.305664, -9.76172, 1.12.2022 20:28:18.180
719, 1.72869, 0.382772, 265.189, -0.000976562, 0, 0, -0.0703125, 0.306641, -9.81152, 1.12.2022 20:28:18.188
720, 1.72869, 0.382772, 265.189, -0.000976562, 0, 0, -0.0234375, 0.292969, -9.74902, 1.12.2022 20:28:18.196
721, 1.72869, 0.382772, 265.189, 0, 0, -0.000976562, -0.0908203, 0.289062, -9.76465, 1.12.2022 20:28:18.204
722, 1.72869, 0.382772, 265.189, 0, -0.000976562, -0.00195312, -0.0195312, 0.28125, -9.75586, 1.12.2022 20:28:18.212
723, 1.72869, 0.382772, 265.189, 0, -0.000976562, 0, -0.0410156, 0.318359, -9.77832, 1.12.2022 20:28:18.220
724, 1.72869, 0.382772, 265.189, -0.000976562, -0.000976562, -0.00195312, -0.0996094, 0.317383, -9.74219, 1.12.2022 20:28:18.228
725, 1.72869, 0.382772, 265.189, 0, 0, -0.000976562, -0.0175781, 0.289062, -9.7793, 1.12.2022 20:28:18.236
726, 1.72869, 0.382772, 265.189, 0, -0.000976562, 0, -0.104492, 0.307617, -9.75879, 1.12.2022 20:28:18.244
727, 1.72869, 0.382772, 265.189, -0.000976562, -0.000976562, 0.000976562, -0.104492, 0.293945, -9.75488, 1.12.2022 20:28:18.252
728, 1.72869, 0.382772, 265.189, 0, 0, 0.000976562, -0.03125, 0.303711, -9.77441, 1.12.2022 20:28:18.260
729, 1.72869, 0.382772, 265.189, -0.000976562, -0.000976562, -0.00195312, -0.112305, 0.298828, -9.76855, 1.12.2022 20:28:18.268
730, 1.72869, 0.382772, 265.189, -0.000976562, -0.000976562, -0.00195312, -0.0078125, 0.31543, -9.77637, 1.12.2022 20:28:18.276
731, 1.72869, 0.382772, 265.189, 0, -0.000976562, 0, -0.0478516, 0.291016, -9.75977, 1.12.2022 20:28:18.284
732, 1.72869, 0.382772, 265.189, 0, 0, 0, -0.0878906, 0.321289, -9.73242, 1.12.2022 20:28:18.292
733, 1.72869, 0.382772, 265.189, 0.000976562, -0.000976562, 0, -0.0126953, 0.289062, -9.78418, 1.12.2022 20:28:18.300
734, 1.72869, 0.382772, 265.189, 0, 0, 0.000976562, -0.103516, 0.308594, -9.78711, 1.12.2022 20:28:18.308
735, 1.72869, 0.382772, 265.189, 0, -0.000976562, 0.000976562, -0.0615234, 0.31543, -9.75488, 1.12.2022 20:28:18.316
736, 1.72869, 0.382772, 265.189, 0, -0.000976562, 0, -0.0527344, 0.295898, -9.7666, 1.12.2022 20:28:18.324
737, 1.72869, 0.382772, 265.189, 0, -0.000976562, 0, -0.110352, 0.327148, -9.77246, 1.12.2022 20:28:18.332
738, 1.72869, 0.382772, 265.189, 0, -0.000976562, 0.000976562, -0.0332031, 0.302734, -9.75781, 1.12.2022 20:28:18.340
739, 1.72869, 0.382772, 265.189, 0, -0.000976562, -0.00195312, -0.0810547, 0.298828, -9.78027, 1.12.2022 20:28:18.348
740, 1.72869, 0.382772, 265.189, 0, -0.000976562, -0.00195312, -0.0644531, 0.305664, -9.75684, 1.12.2022 20:28:18.356
741, 1.72869, 0.382772, 265.189, 0, -0.000976562, -0.00195312, -0.0126953, 0.279297, -9.78027, 1.12.2022 20:28:18.364
742, 1.72396, 0.38792, 265.189, 0, -0.000976562, 0, -0.0908203, 0.3125, -9.76562, 1.12.2022 20:28:18.372
743, 1.72396, 0.38792, 265.189, 0, 0, 0, -0.0429688, 0.310547, -9.76172, 1.12.2022 20:28:18.380
744, 1.72869, 0.382772, 265.189, -0.000976562, 0, -0.000976562, -0.0390625, 0.270508, -9.78906, 1.12.2022 20:28:18.388
745, 1.72869, 0.382772, 265.189, -0.000976562, 0, 0, -0.0869141, 0.313477, -9.79395, 1.12.2022 20:28:18.396
746, 1.72869, 0.382772, 265.189, 0, 0, 0, -0.0283203, 0.276367, -9.75586, 1.12.2022 20:28:18.404
747, 1.72869, 0.382772, 265.189, 0, -0.000976562, 0, -0.0361328, 0.286133, -9.7627, 1.12.2022 20:28:18.412
748, 1.72869, 0.382772, 265.189, 0, 0, -0.000976562, -0.0947266, 0.307617, -9.74219, 1.12.2022 20:28:18.420
749, 1.72869, 0.382772, 265.189, 0, 0, -0.000976562, -0.0195312, 0.302734, -9.76465, 1.12.2022 20:28:18.428
750, 1.72869, 0.382772, 265.189, 0, 0, -0.000976562, -0.0986328, 0.304688, -9.79883, 1.12.2022 20:28:18.436
751, 1.72869, 0.382772, 265.189, 0, -0.000976562, 0, -0.0410156, 0.320312, -9.7666, 1.12.2022 20:28:18.444
752, 1.72869, 0.382772, 265.189, 0, -0.000976562, 0, -0.0361328, 0.279297, -9.77734, 1.12.2022 20:28:18.452
753, 1.72869, 0.382772, 265.189, 0, 0, 0, -0.0927734, 0.30957, -9.74707, 1.12.2022 20:28:18.460
754, 1.72869, 0.382772, 265.189, -0.000976562, -0.000976562, 0, -0.0263672, 0.27832, -9.73535, 1.12.2022 20:28:18.468
755, 1.72869, 0.382772, 265.189, -0.000976562, -0.000976562, -0.00195312, -0.0644531, 0.279297, -9.75586, 1.12.2022 20:28:18.476
756, 1.72869, 0.382772, 265.189, -0.000976562, 0, 0, -0.0664062, 0.322266, -9.75, 1.12.2022 20:28:18.484
757, 1.72869, 0.382772, 265.189, 0, -0.000976562, 0, -0.0263672, 0.275391, -9.78418, 1.12.2022 20:28:18.492
758, 1.72869, 0.382772, 265.189, 0, 0, 0, -0.114258, 0.308594, -9.76367, 1.12.2022 20:28:18.500
759, 1.72869, 0.382772, 265.189, 0, -0.000976562, 0, -0.0830078, 0.3125, -9.74707, 1.12.2022 20:28:18.508
760, 1.72869, 0.382772, 265.189, 0, -0.000976562, 0, -0.0478516, 0.283203, -9.74902, 1.12.2022 20:28:18.516
761, 1.72869, 0.382772, 265.189, 0, -0.000976562, 0, -0.0888672, 0.311523, -9.78711, 1.12.2022 20:28:18.524
762, 1.72869, 0.382772, 265.189, 0, -0.000976562, 0.000976562, -0.0458984, 0.299805, -9.80469, 1.12.2022 20:28:18.532
763, 1.72869, 0.382772, 265.189, 0, 0, 0, -0.00976562, 0.303711, -9.78125, 1.12.2022 20:28:18.540
764, 1.72355, 0.378038, 265.189, -0.000976562, 0, 0, -0.0566406, 0.324219, -9.73535, 1.12.2022 20:28:18.548
765, 1.72869, 0.382772, 265.189, -0.000976562, -0.00195312, 0, -0.0341797, 0.311523, -9.80664, 1.12.2022 20:28:18.556
766, 1.72869, 0.382772, 265.189, -0.000976562, -0.000976562, 0, -0.0869141, 0.286133, -9.81641, 1.12.2022 20:28:18.564
767, 1.72869, 0.382772, 265.189, 0, 0, 0.000976562, -0.0419922, 0.286133, -9.82422, 1.12.2022 20:28:18.572
768, 1.72869, 0.382772, 265.189, 0, -0.000976562, 0, -0.0527344, 0.277344, -9.77441, 1.12.2022 20:28:18.580
769, 1.72869, 0.382772, 265.189, -0.000976562, -0.000976562, 0, -0.107422, 0.307617, -9.74902, 1.12.2022 20:28:18.588
770, 1.72869, 0.382772, 265.189, -0.000976562, -0.000976562, 0, -0.0498047, 0.27832, -9.72754, 1.12.2022 20:28:18.596
771, 1.72869, 0.382772, 265.189, 0, -0.000976562, 0, -0.0712891, 0.291016, -9.75977, 1.12.2022 20:28:18.604
772, 1.72869, 0.382772, 265.189, 0, -0.000976562, 0, -0.09375, 0.30957, -9.81348, 1.12.2022 20:28:18.612
773, 1.72869, 0.382772, 265.189, -0.000976562, -0.000976562, 0, -0.015625, 0.265625, -9.80176, 1.12.2022 20:28:18.620
774, 1.72869, 0.382772, 265.189, -0.000976562, -0.00195312, 0, -0.0957031, 0.310547, -9.76562, 1.12.2022 20:28:18.626
775, 1.72396, 0.38792, 265.189, -0.000976562, -0.00292969, 0, -0.0830078, 0.319336, -9.75391, 1.12.2022 20:28:18.634
776, 1.72396, 0.38792, 265.189, 0, -0.00195312, 0, -0.0517578, 0.299805, -9.73633, 1.12.2022 20:28:18.642
777, 1.72396, 0.38792, 265.189, 0, -0.000976562, 0, -0.104492, 0.3125, -9.75391, 1.12.2022 20:28:18.650
778, 1.72396, 0.38792, 265.189, -0.000976562, -0.000976562, 0, -0.0263672, 0.31543, -9.77441, 1.12.2022 20:28:18.658
779, 1.72396, 0.38792, 265.189, -0.000976562, -0.000976562, 0, -0.0761719, 0.322266, -9.77344, 1.12.2022 20:28:18.666
780, 1.72396, 0.38792, 265.189, -0.000976562, 0, 0, -0.0810547, 0.297852, -9.75684, 1.12.2022 20:28:18.674
781, 1.72396, 0.38792, 265.189, 0, -0.000976562, 0, -0.0224609, 0.283203, -9.81738, 1.12.2022 20:28:18.682
782, 1.72396, 0.38792, 265.189, 0, -0.000976562, 0, -0.105469, 0.31543, -9.76758, 1.12.2022 20:28:18.690
783, 1.72396, 0.38792, 265.189, 0, 0, 0, -0.0722656, 0.293945, -9.77148, 1.12.2022 20:28:18.698
784, 1.72396, 0.38792, 265.189, -0.000976562, -0.000976562, 0, -0.0712891, 0.291016, -9.76465, 1.12.2022 20:28:18.706
785, 1.72396, 0.38792, 265.189, -0.000976562, -0.000976562, 0.000976562, -0.0908203, 0.313477, -9.79199, 1.12.2022 20:28:18.714
786, 1.72396, 0.38792, 265.189, 0, 0, 0, -0.0146484, 0.280273, -9.79395, 1.12.2022 20:28:18.722
787, 1.72396, 0.38792, 265.189, -0.000976562, 0, 0, -0.0478516, 0.305664, -9.77441, 1.12.2022 20:28:18.730
788, 1.72396, 0.38792, 265.189, -0.000976562, -0.000976562, -0.00195312, -0.115234, 0.322266, -9.82422, 1.12.2022 20:28:18.738
789, 1.72396, 0.38792, 265.189, 0, -0.000976562, 0, -0.0576172, 0.293945, -9.75781, 1.12.2022 20:28:18.746
790, 1.72396, 0.38792, 265.189, 0, 0, 0, -0.115234, 0.320312, -9.77734, 1.12.2022 20:28:18.754
791, 1.72396, 0.38792, 265.189, -0.000976562, 0, 0.000976562, -0.0429688, 0.324219, -9.75195, 1.12.2022 20:28:18.762
792, 1.72396, 0.38792, 265.189, -0.000976562, -0.000976562, 0, -0.0351562, 0.280273, -9.72266, 1.12.2022 20:28:18.770
793, 1.72396, 0.38792, 265.189, 0, -0.000976562, 0, -0.115234, 0.34668, -9.7793, 1.12.2022 20:28:18.778
794, 1.72396, 0.38792, 265.189, -0.000976562, 0, 0, -0.00878906, 0.285156, -9.72754, 1.12.2022 20:28:18.786
795, 1.72396, 0.38792, 265.189, -0.000976562, 0, 0, -0.0732422, 0.300781, -9.82812, 1.12.2022 20:28:18.794
796, 1.72396, 0.38792, 265.189, -0.000976562, -0.00195312, 0, -0.0742188, 0.313477, -9.78027, 1.12.2022 20:28:18.802
797, 1.72396, 0.38792, 265.189, -0.000976562, -0.000976562, 0, -0.0283203, 0.273438, -9.71387, 1.12.2022 20:28:18.810
798, 1.72396, 0.38792, 265.189, 0, 0, 0, -0.0888672, 0.305664, -9.77051, 1.12.2022 20:28:18.818
799, 1.7242, 0.387827, 265.179, 0, -0.000976562, 0, -0.0498047, 0.310547, -9.75488, 1.12.2022 20:28:18.826
800, 1.72396, 0.38792, 265.189, 0, -0.000976562, -0.00195312, -0.0166016, 0.319336, -9.75977, 1.12.2022 20:28:18.834
801, 1.72396, 0.38792, 265.189, 0, -0.000976562, 0, -0.109375, 0.332031, -9.76074, 1.12.2022 20:28:18.842
802, 1.72396, 0.38792, 265.189, -0.000976562, 0, -0.000976562, -0.00195312, 0.304688, -9.74121, 1.12.2022 20:28:18.850
803, 1.72396, 0.38792, 265.189, -0.000976562, -0.000976562, 0, -0.0595703, 0.270508, -9.77441, 1.12.2022 20:28:18.858
804, 1.72396, 0.38792, 265.189, -0.000976562, -0.000976562, 0, -0.0888672, 0.291992, -9.77637, 1.12.2022 20:28:18.866
805, 1.72396, 0.38792, 265.189, -0.000976562, -0.000976562, 0, -0.00976562, 0.291992, -9.77734, 1.12.2022 20:28:18.874
806, 1.72911, 0.392654, 265.189, -0.000976562, -0.000976562, 0, -0.112305, 0.291992, -9.78027, 1.12.2022 20:28:18.882
807, 1.72911, 0.392654, 265.189, -0.000976562, -0.000976562, 0, -0.0673828, 0.311523, -9.78516, 1.12.2022 20:28:18.890
808, 1.73384, 0.387505, 265.189, 0, 0, 0, -0.0195312, 0.298828, -9.79102, 1.12.2022 20:28:18.898
809, 1.73384, 0.387505, 265.189, -0.000976562, 0, 0, -0.0771484, 0.299805, -9.81152, 1.12.2022 20:28:18.906
810, 1.73384, 0.387505, 265.189, -0.000976562, -0.000976562, -0.00195312, -0.0166016, 0.295898, -9.77441, 1.12.2022 20:28:18.914
811, 1.73384, 0.387505, 265.189, -0.00195312, -0.000976562, 0.000976562, -0.0859375, 0.298828, -9.76172, 1.12.2022 20:28:18.922
812, 1.73384, 0.387505, 265.189, 0, 0, 0, -0.0839844, 0.310547, -9.76855, 1.12.2022 20:28:18.930
813, 1.73384, 0.387505, 265.189, 0, -0.000976562, 0.000976562, -0.03125, 0.269531, -9.77051, 1.12.2022 20:28:18.938
814, 1.73407, 0.387411, 265.179, -0.000976562, -0.000976562, 0, -0.0957031, 0.268555, -9.79297, 1.12.2022 20:28:18.946
815, 1.73407, 0.387411, 265.179, -0.000976562, -0.000976562, 0, -0.00976562, 0.3125, -9.7627, 1.12.2022 20:28:18.954
816, 1.73407, 0.387411, 265.179, -0.000976562, -0.000976562, -0.00195312, -0.0244141, 0.298828, -9.76758, 1.12.2022 20:28:18.962
817, 1.73384, 0.387505, 265.189, -0.000976562, -0.000976562, -0.00195312, -0.107422, 0.316406, -9.78418, 1.12.2022 20:28:18.970
818, 1.73384, 0.387505, 265.189, 0, 0, -0.000976562, -0.0410156, 0.327148, -9.7666, 1.12.2022 20:28:18.978
819, 1.73384, 0.387505, 265.189, 0, 0, 0.000976562, -0.0957031, 0.311523, -9.79004, 1.12.2022 20:28:18.986
820, 1.73384, 0.387505, 265.189, 0, 0, 0.000976562, -0.0820312, 0.30957, -9.79883, 1.12.2022 20:28:18.994
821, 1.73407, 0.387411, 265.179, 0, -0.000976562, 0, -0.0146484, 0.260742, -9.77539, 1.12.2022 20:28:19.002
822, 1.73407, 0.387411, 265.179, 0, -0.000976562, 0, -0.0976562, 0.283203, -9.74023, 1.12.2022 20:28:19.010
823, 1.73384, 0.387505, 265.189, -0.000976562, 0, -0.000976562, -0.0527344, 0.335938, -9.74707, 1.12.2022 20:28:19.018
824, 1.73384, 0.387505, 265.189, 0, -0.000976562, -0.00195312, -0.0458984, 0.318359, -9.79688, 1.12.2022 20:28:19.026
825, 1.73384, 0.387505, 265.189, -0.000976562, 0, -0.000976562, -0.078125, 0.295898, -9.74316, 1.12.2022 20:28:19.034
826, 1.73384, 0.387505, 265.189, -0.000976562, -0.000976562, 0, -0.0537109, 0.27832, -9.80566, 1.12.2022 20:28:19.042
827, 1.73384, 0.387505, 265.189, 0, -0.000976562, 0, -0.0527344, 0.301758, -9.78809, 1.12.2022 20:28:19.050
828, 1.73384, 0.387505, 265.189, 0, -0.000976562, 0, -0.0927734, 0.292969, -9.74805, 1.12.2022 20:28:19.058
829, 1.73384, 0.387505, 265.189, -0.000976562, 0, 0, -0.0332031, 0.294922, -9.73438, 1.12.2022 20:28:19.066
830, 1.73384, 0.387505, 265.189, 0, -0.000976562, 0, -0.128906, 0.313477, -9.77051, 1.12.2022 20:28:19.074
831, 1.73384, 0.387505, 265.189, 0, -0.000976562, -0.00195312, -0.078125, 0.3125, -9.75195, 1.12.2022 20:28:19.082
832, 1.73384, 0.387505, 265.189, -0.000976562, -0.000976562, 0, -0.0361328, 0.305664, -9.75488, 1.12.2022 20:28:19.090
833, 1.73384, 0.387505, 265.189, 0, -0.00195312, -0.00195312, -0.119141, 0.317383, -9.75586, 1.12.2022 20:28:19.098
834, 1.73384, 0.387505, 265.189, 0, -0.00195312, 0, -0.0263672, 0.295898, -9.76953, 1.12.2022 20:28:19.106
835, 1.72911, 0.392654, 265.189, 0, -0.000976562, 0.000976562, -0.0478516, 0.275391, -9.78613, 1.12.2022 20:28:19.114
836, 1.72911, 0.392654, 265.189, 0, -0.000976562, 0, -0.0263672, 0.308594, -9.76953, 1.12.2022 20:28:19.122
837, 1.72911, 0.392654, 265.189, -0.000976562, 0, 0, -0.0175781, 0.311523, -9.80469, 1.12.2022 20:28:19.130
838, 1.72911, 0.392654, 265.189, -0.000976562, -0.000976562, 0, -0.0927734, 0.295898, -9.76172, 1.12.2022 20:28:19.138
839, 1.73384, 0.387505, 265.189, -0.000976562, 0, -0.000976562, -0.046875, 0.294922, -9.72656, 1.12.2022 20:28:19.146
840, 1.73384, 0.387505, 265.189, -0.000976562, -0.000976562, 0, -0.0507812, 0.285156, -9.78418, 1.12.2022 20:28:19.154
841, 1.73384, 0.387505, 265.189, -0.000976562, -0.00195312, 0, -0.110352, 0.308594, -9.76855, 1.12.2022 20:28:19.162
842, 1.73384, 0.387505, 265.189, 0, 0, 0, -0.0371094, 0.280273, -9.70898, 1.12.2022 20:28:19.170
843, 1.73384, 0.387505, 265.189, -0.000976562, 0, 0, -0.0791016, 0.295898, -9.75488, 1.12.2022 20:28:19.178
844, 1.73384, 0.387505, 265.189, -0.000976562, -0.000976562, -0.00195312, -0.0380859, 0.317383, -9.74121, 1.12.2022 20:28:19.186
845, 1.73384, 0.387505, 265.189, 0, -0.000976562, 0, -0.0195312, 0.251953, -9.79492, 1.12.2022 20:28:19.194
846, 1.73384, 0.387505, 265.189, 0, -0.000976562, -0.00195312, -0.119141, 0.273438, -9.73633, 1.12.2022 20:28:19.202
847, 1.73384, 0.387505, 265.189, -0.000976562, -0.000976562, -0.00195312, -0.0644531, 0.288086, -9.74121, 1.12.2022 20:28:19.210
848, 1.73384, 0.387505, 265.189, 0, 0, 0, -0.0595703, 0.288086, -9.74316, 1.12.2022 20:28:19.218
849, 1.73384, 0.387505, 265.189, 0, 0, 0, -0.112305, 0.28418, -9.75977, 1.12.2022 20:28:19.226
850, 1.73384, 0.387505, 265.189, 0, -0.000976562, 0, 0.0195312, 0.285156, -9.72852, 1.12.2022 20:28:19.234
851, 1.72911, 0.392654, 265.189, 0, -0.000976562, 0, -0.0839844, 0.267578, -9.77441, 1.12.2022 20:28:19.242
852, 1.72911, 0.392654, 265.189, 0, -0.000976562, 0, -0.105469, 0.313477, -9.78223, 1.12.2022 20:28:19.250
853, 1.72911, 0.392654, 265.189, 0, -0.000976562, 0, 0.00292969, 0.27832, -9.72363, 1.12.2022 20:28:19.258
854, 1.72911, 0.392654, 265.189, 0, -0.000976562, 0.000976562, -0.114258, 0.317383, -9.75391, 1.12.2022 20:28:19.266
855, 1.72911, 0.392654, 265.189, -0.000976562, -0.000976562, -0.00195312, -0.0673828, 0.341797, -9.78223, 1.12.2022 20:28:19.274
856, 1.72911, 0.392654, 265.189, 0, -0.000976562, 0, -0.0195312, 0.325195, -9.79492, 1.12.2022 20:28:19.282
857, 1.72911, 0.392654, 265.189, -0.000976562, 0, 0, -0.0498047, 0.322266, -9.76367, 1.12.2022 20:28:19.290
858, 1.72911, 0.392654, 265.189, -0.000976562, 0, 0, -0.0117188, 0.307617, -9.74609, 1.12.2022 20:28:19.298
859, 1.72911, 0.392654, 265.189, -0.000976562, -0.000976562, 0, -0.0869141, 0.288086, -9.80176, 1.12.2022 20:28:19.306
860, 1.72911, 0.392654, 265.189, 0, -0.000976562, 0, -0.0693359, 0.304688, -9.74023, 1.12.2022 20:28:19.314
861, 1.72911, 0.392654, 265.189, -0.000976562, -0.000976562, 0, -0.0361328, 0.255859, -9.78516, 1.12.2022 20:28:19.322
862, 1.72911, 0.392654, 265.189, -0.000976562, -0.000976562, 0, -0.119141, 0.305664, -9.76074, 1.12.2022 20:28:19.330
863, 1.72911, 0.392654, 265.189, 0, -0.000976562, 0, -0.0664062, 0.286133, -9.75781, 1.12.2022 20:28:19.338
864, 1.72911, 0.392654, 265.189, 0, -0.000976562, 0, -0.0664062, 0.292969, -9.7334, 1.12.2022 20:28:19.346
865, 1.72911, 0.392654, 265.189, 0, -0.000976562, 0, -0.112305, 0.3125, -9.76074, 1.12.2022 20:28:19.354
866, 1.72911, 0.392654, 265.189, 0, -0.000976562, 0, -0.0214844, 0.262695, -9.76367, 1.12.2022 20:28:19.362
867, 1.72911, 0.392654, 265.189, 0, -0.000976562, 0.000976562, -0.0742188, 0.286133, -9.75977, 1.12.2022 20:28:19.370
868, 1.72911, 0.392654, 265.189, -0.000976562, -0.000976562, 0, -0.0615234, 0.316406, -9.73535, 1.12.2022 20:28:19.378
869, 1.72911, 0.392654, 265.189, -0.000976562, 0, 0, -0.0244141, 0.296875, -9.79785, 1.12.2022 20:28:19.386
870, 1.72911, 0.392654, 265.189, -0.000976562, -0.000976562, 0, -0.100586, 0.318359, -9.77051, 1.12.2022 20:28:19.394
871, 1.72911, 0.392654, 265.189, 0, -0.00195312, 0, -0.0341797, 0.28418, -9.77734, 1.12.2022 20:28:19.402
872, 1.72911, 0.392654, 265.189, 0, -0.000976562, 0, -0.0390625, 0.314453, -9.82129, 1.12.2022 20:28:19.410
873, 1.72911, 0.392654, 265.189, 0, -0.000976562, 0, -0.0810547, 0.31543, -9.77051, 1.12.2022 20:28:19.418
874, 1.72911, 0.392654, 265.189, 0, -0.000976562, 0, -0.0341797, 0.297852, -9.80957, 1.12.2022 20:28:19.426
875, 1.72911, 0.392654, 265.189, 0, 0, 0, -0.0605469, 0.280273, -9.79297, 1.12.2022 20:28:19.434
876, 1.72911, 0.392654, 265.189, -0.000976562, -0.000976562, 0, -0.0595703, 0.3125, -9.74316, 1.12.2022 20:28:19.442
877, 1.72911, 0.392654, 265.189, 0, 0, -0.000976562, -0.00195312, 0.288086, -9.7373, 1.12.2022 20:28:19.450
878, 1.72911, 0.392654, 265.189, 0, 0, 0, -0.0859375, 0.31543, -9.76562, 1.12.2022 20:28:19.458
879, 1.72911, 0.392654, 265.189, 0, -0.000976562, 0, -0.0673828, 0.301758, -9.79688, 1.12.2022 20:28:19.466
880, 1.72911, 0.392654, 265.189, -0.000976562, 0, 0, -0.0478516, 0.280273, -9.78223, 1.12.2022 20:28:19.474
881, 1.72911, 0.392654, 265.189, -0.000976562, -0.000976562, 0, -0.0908203, 0.317383, -9.74414, 1.12.2022 20:28:19.482
882, 1.72911, 0.392654, 265.189, -0.000976562, 0, -0.000976562, -0.0292969, 0.291016, -9.77246, 1.12.2022 20:28:19.490
883, 1.72911, 0.392654, 265.189, -0.000976562, 0, 0, -0.0644531, 0.325195, -9.79004, 1.12.2022 20:28:19.498
884, 1.72911, 0.392654, 265.189, -0.000976562, -0.00195312, 0, -0.103516, 0.320312, -9.78711, 1.12.2022 20:28:19.506
885, 1.72911, 0.392654, 265.189, -0.000976562, -0.000976562, 0, -0.0117188, 0.279297, -9.75684, 1.12.2022 20:28:19.514
886, 1.72911, 0.392654, 265.189, 0, -0.00195312, 0, -0.103516, 0.292969, -9.8252, 1.12.2022 20:28:19.522
887, 1.72911, 0.392654, 265.189, -0.000976562, -0.000976562, 0, -0.0371094, 0.291992, -9.70801, 1.12.2022 20:28:19.530
888, 1.72911, 0.392654, 265.189, -0.000976562, -0.00195312, 0, -0.0576172, 0.298828, -9.76172, 1.12.2022 20:28:19.538
889, 1.73425, 0.397387, 265.189, -0.000976562, -0.000976562, -0.00195312, -0.0927734, 0.320312, -9.76074, 1.12.2022 20:28:19.546
890, 1.73425, 0.397387, 265.189, -0.000976562, -0.000976562, 0, -0.0341797, 0.298828, -9.7793, 1.12.2022 20:28:19.554
891, 1.73425, 0.397387, 265.189, 0.000976562, -0.000976562, 0, -0.0527344, 0.293945, -9.75781, 1.12.2022 20:28:19.562
892, 1.72911, 0.392654, 265.189, 0.000976562, 0, 0.000976562, -0.0615234, 0.283203, -9.73633, 1.12.2022 20:28:19.570
893, 1.72911, 0.392654, 265.189, 0, -0.000976562, 0, -0.0175781, 0.283203, -9.81738, 1.12.2022 20:28:19.578
894, 1.72911, 0.392654, 265.189, 0, 0, 0, -0.0664062, 0.277344, -9.71094, 1.12.2022 20:28:19.584
895, 1.72911, 0.392654, 265.189, 0.000976562, 0.000976562, -0.000976562, -0.0517578, 0.28125, -9.73926, 1.12.2022 20:28:19.592
896, 1.72911, 0.392654, 265.189, -0.000976562, 0, -0.000976562, -0.0214844, 0.294922, -9.73926, 1.12.2022 20:28:19.600
897, 1.72911, 0.392654, 265.189, 0, 0, -0.000976562, -0.0986328, 0.335938, -9.80078, 1.12.2022 20:28:19.608
898, 1.72911, 0.392654, 265.189, 0, -0.000976562, 0.000976562, 0.0302734, 0.291992, -9.78711, 1.12.2022 20:28:19.616
899, 1.72911, 0.392654, 265.189, 0.000976562, -0.000976562, 0.000976562, -0.0693359, 0.269531, -9.74121, 1.12.2022 20:28:19.624
900, 1.72911, 0.392654, 265.189, 0, -0.000976562, 0, -0.103516, 0.283203, -9.79688, 1.12.2022 20:28:19.632
901, 1.72911, 0.392654, 265.189, 0, 0, 0, -0.0078125, 0.283203, -9.80566, 1.12.2022 20:28:19.640
902, 1.72911, 0.392654, 265.189, 0, 0, 0, -0.0976562, 0.314453, -9.72559, 1.12.2022 20:28:19.648
903, 1.72911, 0.392654, 265.189, -0.000976562, -0.000976562, 0, -0.0546875, 0.317383, -9.75977, 1.12.2022 20:28:19.656
904, 1.72911, 0.392654, 265.189, -0.000976562, -0.000976562, 0, -0.0507812, 0.328125, -9.7832, 1.12.2022 20:28:19.664
905, 1.72911, 0.392654, 265.189, -0.000976562, -0.000976562, 0.000976562, -0.114258, 0.332031, -9.75293, 1.12.2022 20:28:19.672
906, 1.72911, 0.392654, 265.189, -0.000976562, 0, 0, 0.015625, 0.280273, -9.70508, 1.12.2022 20:28:19.680
907, 1.72911, 0.392654, 265.189, 0, -0.000976562, 0, -0.115234, 0.318359, -9.78906, 1.12.2022 20:28:19.688
908, 1.72911, 0.392654, 265.189, 0, 0, 0, -0.0722656, 0.31543, -9.77344, 1.12.2022 20:28:19.696
909, 1.72911, 0.392654, 265.189, -0.000976562, 0, 0, -0.0292969, 0.308594, -9.76953, 1.12.2022 20:28:19.704
910, 1.72911, 0.392654, 265.189, -0.000976562, -0.000976562, 0, -0.112305, 0.301758, -9.77734, 1.12.2022 20:28:19.712
911, 1.72911, 0.392654, 265.189, 0, -0.000976562, 0, -0.0693359, 0.313477, -9.78711, 1.12.2022 20:28:19.720
912, 1.72911, 0.392654, 265.189, 0, 0, 0, -0.0722656, 0.288086, -9.81934, 1.12.2022 20:28:19.728
913, 1.72911, 0.392654, 265.189, 0.000976562, 0, 0, -0.105469, 0.308594, -9.77734, 1.12.2022 20:28:19.736
914, 1.72911, 0.392654, 265.189, 0, -0.000976562, 0, -0.0175781, 0.279297, -9.77734, 1.12.2022 20:28:19.744
915, 1.72911, 0.392654, 265.189, 0.000976562, -0.000976562, 0.000976562, -0.0722656, 0.293945, -9.78125, 1.12.2022 20:28:19.752
916, 1.72911, 0.392654, 265.189, 0, -0.000976562, 0, -0.0615234, 0.291016, -9.74609, 1.12.2022 20:28:19.760
917, 1.72911, 0.392654, 265.189, 0, -0.000976562, 0, -0.0380859, 0.286133, -9.76562, 1.12.2022 20:28:19.768
918, 1.72934, 0.39256, 265.179, -0.000976562, 0, 0, -0.105469, 0.3125, -9.76367, 1.12.2022 20:28:19.776
919, 1.72911, 0.392654, 265.189, -0.000976562, -0.000976562, -0.00195312, -0.0693359, 0.298828, -9.77148, 1.12.2022 20:28:19.784
920, 1.72911, 0.392654, 265.189, -0.000976562, -0.000976562, -0.00195312, -0.0556641, 0.325195, -9.78516, 1.12.2022 20:28:19.792
921, 1.72911, 0.392654, 265.189, -0.000976562, 0, 0, -0.112305, 0.332031, -9.7627, 1.12.2022 20:28:19.800
922, 1.72911, 0.392654, 265.189, -0.000976562, 0, 0, -0.0117188, 0.290039, -9.73438, 1.12.2022 20:28:19.808
923, 1.72911, 0.392654, 265.189, -0.000976562, -0.000976562, 0.000976562, -0.0556641, 0.301758, -9.79004, 1.12.2022 20:28:19.816
924, 1.72911, 0.392654, 265.189, 0, -0.000976562, 0, -0.0410156, 0.305664, -9.7627, 1.12.2022 20:28:19.824
925, 1.72911, 0.392654, 265.189, 0, 0, -0.000976562, 0.00585938, 0.27832, -9.81348, 1.12.2022 20:28:19.832
926, 1.72911, 0.392654, 265.189, -0.000976562, 0, -0.000976562, -0.102539, 0.297852, -9.74707, 1.12.2022 20:28:19.840
927, 1.72911, 0.392654, 265.189, 0, 0, 0, -0.0742188, 0.301758, -9.79688, 1.12.2022 20:28:19.848
928, 1.72911, 0.392654, 265.189, -0.000976562, 0, 0, -0.0498047, 0.311523, -9.72656, 1.12.2022 20:28:19.856
929, 1.72911, 0.392654, 265.189, -0.000976562, -0.000976562, 0, -0.0986328, 0.318359, -9.79199, 1.12.2022 20:28:19.864
930, 1.72911, 0.392654, 265.189, 0, 0, 0.000976562, -0.00683594, 0.299805, -9.72559, 1.12.2022 20:28:19.872
931, 1.72911, 0.392654, 265.189, 0, 0, 0, -0.0673828, 0.282227, -9.77441, 1.12.2022 20:28:19.880
932, 1.72911, 0.392654, 265.189, 0, 0, 0, -0.0791016, 0.289062, -9.76465, 1.12.2022 20:28:19.888
933, 1.72911, 0.392654, 265.189, 0, 0, -0.000976562, -0.03125, 0.293945, -9.77441, 1.12.2022 20:28:19.896
934, 1.72911, 0.392654, 265.189, 0, -0.000976562, 0, -0.130859, 0.297852, -9.74414, 1.12.2022 20:28:19.904
935, 1.72911, 0.392654, 265.189, 0, -0.00195312, 0, -0.0527344, 0.291992, -9.77148, 1.12.2022 20:28:19.912
936, 1.72911, 0.392654, 265.189, -0.000976562, -0.000976562, 0, -0.0419922, 0.283203, -9.72266, 1.12.2022 20:28:19.920
937, 1.72911, 0.392654, 265.189, -0.000976562, -0.000976562, 0, -0.110352, 0.277344, -9.78809, 1.12.2022 20:28:19.928
938, 1.72911, 0.392654, 265.189, -0.000976562, -0.000976562, 0, -0.03125, 0.270508, -9.77539, 1.12.2022 20:28:19.936
939, 1.72911, 0.392654, 265.189, 0, 0, 0.000976562, -0.117188, 0.28125, -9.75195, 1.12.2022 20:28:19.944
940, 1.72934, 0.39256, 265.179, -0.000976562, -0.000976562, 0, -0.0810547, 0.308594, -9.77832, 1.12.2022 20:28:19.952
941, 1.72911, 0.392654, 265.189, 0, -0.000976562, -0.00195312, -0.0136719, 0.294922, -9.71777, 1.12.2022 20:28:19.960
942, 1.72911, 0.392654, 265.189, -0.000976562, -0.000976562, -0.00195312, -0.155273, 0.318359, -9.7793, 1.12.2022 20:28:19.968
943, 1.72911, 0.392654, 265.189, -0.000976562, 0, -0.000976562, -0.0761719, 0.314453, -9.75195, 1.12.2022 20:28:19.976
944, 1.72911, 0.392654, 265.189, -0.000976562, 0, 0.000976562, -0.0644531, 0.307617, -9.73633, 1.12.2022 20:28:19.984
945, 1.72911, 0.392654, 265.189, -0.000976562, -0.000976562, 0.000976562, -0.102539, 0.318359, -9.77246, 1.12.2022 20:28:19.992
946, 1.72911, 0.392654, 265.189, 0, -0.000976562, 0, -0.0273438, 0.290039, -9.7959, 1.12.2022 20:28:20.000
947, 1.72911, 0.392654, 265.189, 0, 0, 0, -0.0722656, 0.291992, -9.77637, 1.12.2022 20:28:20.008
948, 1.72911, 0.392654, 265.189, 0, -0.000976562, 0, -0.0507812, 0.299805, -9.81152, 1.12.2022 20:28:20.016
949, 1.72911, 0.392654, 265.189, -0.000976562, 0.00195312, -0.000976562, 0.166992, 0.300781, -9.76074, 1.12.2022 20:28:20.024
950, 1.72911, 0.392654, 265.189, 0, 0.00292969, -0.00195312, 0.0888672, 0.331055, -9.74512, 1.12.2022 20:28:20.032
951, 1.72869, 0.382772, 265.189, 0.000976562, 0.00292969, -0.00195312, 0.0644531, 0.387695, -9.87988, 1.12.2022 20:28:20.040
952, 1.72869, 0.382772, 265.189, 0.00195312, 0.00292969, -0.000976562, 0.0703125, 0.391602, -9.84863, 1.12.2022 20:28:20.048
953, 1.72869, 0.382772, 265.189, 0.00488281, 0.00976562, 0, 0.246094, 0.364258, -9.75293, 1.12.2022 20:28:20.056
954, 1.72355, 0.378038, 265.189, 0.00683594, 0.0126953, 0, 0.380859, 0.369141, -9.6748, 1.12.2022 20:28:20.064
955, 1.72313, 0.368157, 265.189, 0.0078125, 0.00878906, 0, 0.180664, 0.356445, -9.95801, 1.12.2022 20:28:20.072
956, 1.71799, 0.363423, 265.189, 0.00976562, 0.0117188, -0.000976562, 0.119141, 0.443359, -9.91211, 1.12.2022 20:28:20.080
957, 1.71284, 0.35869, 265.189, 0.0126953, 0.0195312, -0.000976562, 0.496094, 0.385742, -9.76855, 1.12.2022 20:28:20.088
958, 1.70728, 0.344075, 265.189, 0.0146484, 0.0244141, -0.000976562, 0.558594, 0.399414, -9.74805, 1.12.2022 20:28:20.096
959, 1.69699, 0.334608, 265.189, 0.0166016, 0.0195312, -0.000976562, 0.416992, 0.422852, -10.0547, 1.12.2022 20:28:20.104
960, 1.69143, 0.319993, 265.189, 0.0185547, 0.0234375, 0, 0.291016, 0.438477, -9.89844, 1.12.2022 20:28:20.112
961, 1.68114, 0.310526, 265.189, 0.0224609, 0.0341797, 0.00195312, 0.368164, 0.300781, -9.72656, 1.12.2022 20:28:20.120
962, 1.67043, 0.291177, 265.189, 0.0234375, 0.0351562, -0.00195312, 0.651367, 0.180664, -9.69922, 1.12.2022 20:28:20.128
963, 1.65973, 0.271829, 265.189, 0.0205078, 0.0175781, -0.00585938, 0.283203, 0.327148, -9.7832, 1.12.2022 20:28:20.136
964, 1.65479, 0.267152, 265.189, 0.0195312, 0.0146484, -0.00585938, 0.120117, 0.289062, -9.70117, 1.12.2022 20:28:20.144
965, 1.64429, 0.25777, 265.199, 0.0136719, 0.015625, -0.00292969, 0.363281, 0.0380859, -9.39355, 1.12.2022 20:28:20.152
966, 1.63914, 0.253036, 265.199, 0.0078125, -0.000976562, -0.00292969, 0.105469, 0.0820312, -9.4209, 1.12.2022 20:28:20.160
967, 1.63914, 0.253036, 265.199, -0.00195312, -0.00683594, -0.000976562, 0.268555, 0.0126953, -9.51074, 1.12.2022 20:28:20.168
968, 1.63914, 0.253036, 265.199, -0.0107422, -0.0146484, -0.00195312, 0.290039, -0.120117, -9.88086, 1.12.2022 20:28:20.176
969, 1.64429, 0.25777, 265.199, -0.0166016, -0.0146484, -0.00488281, 0.489258, -0.00683594, -9.81738, 1.12.2022 20:28:20.184
970, 1.65416, 0.257356, 265.199, -0.0205078, -0.015625, -0.00878906, 0.810547, 0.285156, -9.87598, 1.12.2022 20:28:20.192
971, 1.66445, 0.266966, 265.208, -0.0214844, -0.0126953, -0.00878906, 0.701172, 0.428711, -10.0283, 1.12.2022 20:28:20.200
972, 1.67433, 0.266553, 265.208, -0.0214844, -0.00976562, -0.00488281, 0.587891, 0.59668, -9.86621, 1.12.2022 20:28:20.208
973, 1.6842, 0.266139, 265.208, -0.0166016, -0.00683594, 0.000976562, 0.587891, 0.555664, -9.6875, 1.12.2022 20:28:20.216
974, 1.6842, 0.266139, 265.208, -0.00878906, -0.00292969, 0.00390625, 0.427734, 0.569336, -9.75098, 1.12.2022 20:28:20.224
975, 1.68916, 0.260905, 265.199, -0.00390625, -0.00488281, 0.00585938, 0.577148, 0.601562, -9.7832, 1.12.2022 20:28:20.232
976, 1.68916, 0.260905, 265.199, 0.00488281, 0.000976562, 0.00488281, 0.772461, 0.515625, -9.48633, 1.12.2022 20:28:20.240
977, 1.68894, 0.260847, 265.199, 0.0117188, -0.00585938, 0.00390625, 0.571289, 0.517578, -9.95312, 1.12.2022 20:28:20.248
978, 1.68379, 0.256113, 265.199, 0.0166016, -0.00488281, 0.00390625, 0.53125, 0.535156, -9.96582, 1.12.2022 20:28:20.256
979, 1.6735, 0.246646, 265.199, 0.0205078, 0.00292969, 0.00488281, 0.748047, 0.470703, -9.8291, 1.12.2022 20:28:20.264
980, 1.66384, 0.246975, 265.189, 0.0214844, 0.00976562, 0.00292969, 1.25977, -0.0429688, -9.94824, 1.12.2022 20:28:20.272
981, 1.65828, 0.23236, 265.189, 0.0166016, 0.0107422, -0.0078125, 1.17578, 0.116211, -9.85059, 1.12.2022 20:28:20.280
982, 1.64778, 0.222977, 265.199, 0.0175781, 0.0136719, -0.0175781, 0.818359, 0.255859, -10.0186, 1.12.2022 20:28:20.288
983, 1.64222, 0.208502, 265.209, 0.0126953, 0.0234375, -0.0185547, 1.17773, 0.296875, -10.0586, 1.12.2022 20:28:20.296
984, 1.63666, 0.194027, 265.218, 0.00976562, 0.0195312, -0.015625, 0.998047, 0.454102, -9.67773, 1.12.2022 20:28:20.304
985, 1.6311, 0.179411, 265.218, 0.00976562, 0.0126953, -0.00683594, 0.835938, 0.400391, -9.55664, 1.12.2022 20:28:20.312
986, 1.63069, 0.169529, 265.219, 0.0078125, 0.00390625, 0.00195312, 0.963867, 0.277344, -9.44824, 1.12.2022 20:28:20.320
987, 1.62555, 0.164794, 265.218, 0.00683594, 0, 0.00488281, 0.825195, 0.378906, -9.45801, 1.12.2022 20:28:20.328
988, 1.62513, 0.154913, 265.219, 0.00390625, -0.00683594, 0.00585938, 0.910156, 0.197266, -9.79492, 1.12.2022 20:28:20.336
989, 1.61999, 0.150178, 265.219, -0.00292969, -0.00878906, 0.00488281, 1.10059, 0.353516, -9.83594, 1.12.2022 20:28:20.344
990, 1.62472, 0.144892, 265.209, -0.00390625, -0.00585938, 0.00390625, 0.976562, 0.227539, -9.94629, 1.12.2022 20:28:20.352
991, 1.62945, 0.139744, 265.209, -0.0078125, 0.00195312, 0.00488281, 1.18066, 0.15918, -9.98438, 1.12.2022 20:28:20.360
992, 1.62904, 0.129863, 265.21, -0.0136719, 0.00195312, 0.00683594, 1.0918, 0.128906, -9.87012, 1.12.2022 20:28:20.368
993, 1.63871, 0.119489, 265.2, -0.015625, -0.000976562, 0.00488281, 0.826172, 0.276367, -9.98438, 1.12.2022 20:28:20.376
994, 1.64796, 0.109131, 265.201, -0.015625, 0.00292969, 0.0078125, 0.854492, 0.15332, -9.53711, 1.12.2022 20:28:20.384
995, 1.65269, 0.103983, 265.201, -0.0175781, -0.000976562, 0.00976562, 0.786133, 0.248047, -9.24805, 1.12.2022 20:28:20.392
996, 1.66214, 0.0935446, 265.192, -0.0185547, -0.00878906, 0.0107422, 0.760742, 0.322266, -9.32617, 1.12.2022 20:28:20.400
997, 1.67202, 0.0931297, 265.192, -0.0185547, -0.0126953, 0.00878906, 1.03223, 0.389648, -9.5293, 1.12.2022 20:28:20.408
998, 1.68211, 0.0926353, 265.182, -0.0166016, -0.0263672, 0.0078125, 0.813477, 0.476562, -9.87793, 1.12.2022 20:28:20.416
999, 1.68703, 0.0973029, 265.182, -0.0136719, -0.0302734, 0.00878906, 0.81543, 0.566406, -10.085, 1.12.2022 20:28:20.424
1000, 1.69712, 0.0968069, 265.173, -0.00878906, -0.0273438, 0.00976562, 0.856445, 0.490234, -9.76172, 1.12.2022 20:28:20.432
1001, 1.6969, 0.0967411, 265.173, -0.00878906, -0.0234375, 0.0107422, 0.901367, 0.485352, -9.7627, 1.12.2022 20:28:20.440
1002, 1.70699, 0.0962438, 265.163, -0.0117188, -0.0175781, 0.00976562, 1.01953, 0.636719, -10.1055, 1.12.2022 20:28:20.448
1003, 1.71149, 0.0910281, 265.164, -0.00488281, 0, 0.0117188, 1.05469, 0.360352, -9.99121, 1.12.2022 20:28:20.456
1004, 1.71129, 0.0810663, 265.154, -0.00488281, 0.0146484, 0.0117188, 0.990234, 0.27832, -10.1387, 1.12.2022 20:28:20.464
1005, 1.71044, 0.0611567, 265.145, -0.000976562, 0.0166016, 0.00976562, 1.14062, 0.300781, -9.29492, 1.12.2022 20:28:20.472
1006, 1.7096, 0.0413944, 265.145, 0.00292969, 0.00585938, 0.00683594, 0.908203, 0.192383, -9.88672, 1.12.2022 20:28:20.480
1007, 1.70918, 0.0315132, 265.145, 0.00585938, 0.00585938, 0.00292969, 0.943359, 0.411133, -9.6709, 1.12.2022 20:28:20.488
1008, 1.70833, 0.0116036, 265.136, 0.0078125, 0.000976562, 0.00488281, 0.788086, 0.458008, -9.55859, 1.12.2022 20:28:20.496
1009, 1.70791, 0.00172249, 265.136, 0.00976562, 0.00292969, 0.00585938, 1.06836, 0.320312, -9.35156, 1.12.2022 20:28:20.504
1010, 1.69761, 359.992, 265.136, 0.00683594, -0.00976562, 0.00390625, 1.21094, 0.287109, -10.0381, 1.12.2022 20:28:20.512
1011, 1.70234, 359.987, 265.136, -0.00292969, -0.00976562, 0.00195312, 1.10742, 0.598633, -10.5469, 1.12.2022 20:28:20.520
1012, 1.70642, 359.972, 265.137, -0.0078125, 0.00585938, 0.00292969, 1.27832, 0.324219, -10.1611, 1.12.2022 20:28:20.528
1013, 1.71094, 359.957, 265.128, -0.0166016, 0.0214844, 0.00195312, 1.59473, 0.107422, -9.74414, 1.12.2022 20:28:20.534
1014, 1.71955, 359.927, 265.128, -0.0195312, 0.0214844, -0.00488281, 1.42969, -0.0136719, -9.65527, 1.12.2022 20:28:20.542
1015, 1.73376, 359.912, 265.138, -0.0283203, 0.00195312, -0.00878906, 0.878906, 0.0732422, -10.0547, 1.12.2022 20:28:20.550
1016, 1.74795, 359.896, 265.139, -0.0292969, 0.0126953, -0.00878906, 0.865234, 0.0878906, -9.49023, 1.12.2022 20:28:20.558
1017, 1.75699, 359.876, 265.139, -0.0253906, 0.0078125, -0.00488281, 0.933594, -0.0292969, -9.25293, 1.12.2022 20:28:20.566
1018, 1.76644, 359.866, 265.139, -0.0224609, -0.0146484, -0.00292969, 0.989258, 0.196289, -8.81543, 1.12.2022 20:28:20.574
1019, 1.77657, 359.865, 265.139, -0.0214844, -0.0302734, -0.00292969, 0.692383, 0.743164, -9.47363, 1.12.2022 20:28:20.582
1020, 1.78623, 359.865, 265.149, -0.0146484, -0.0322266, -0.00488281, 1.39453, 0.5625, -9.26562, 1.12.2022 20:28:20.590
1021, 1.7961, 359.865, 265.149, -0.0146484, -0.0351562, -0.00292969, 1.38379, 0.607422, -9.06836, 1.12.2022 20:28:20.598
1022, 1.7961, 359.865, 265.149, -0.00683594, -0.0292969, 0.00195312, 1.28418, 1.04883, -9.74121, 1.12.2022 20:28:20.606
1023, 1.80105, 359.859, 265.14, 0, -0.0146484, 0.000976562, 1.24316, 0.693359, -10.2773, 1.12.2022 20:28:20.614
1024, 1.80536, 359.844, 265.14, -0.00390625, 0.0107422, -0.00195312, 0.954102, 0.415039, -11.6953, 1.12.2022 20:28:20.622
1025, 1.80431, 359.825, 265.15, 0.00390625, 0.0107422, -0.00585938, 0.59082, 0.40332, -10.2041, 1.12.2022 20:28:20.630
1026, 1.8082, 359.8, 265.151, 0, 0.046875, -0.00195312, 0.75, 0.723633, -9.32422, 1.12.2022 20:28:20.638
1027, 1.80138, 359.755, 265.151, 0.0126953, 0.0722656, 0.00292969, 0.759766, 0.430664, -9.52148, 1.12.2022 20:28:20.646
1028, 1.79476, 359.711, 265.142, 0.0234375, 0.0546875, 0.00683594, 1.56641, 0.134766, -8.61914, 1.12.2022 20:28:20.654
1029, 1.78852, 359.686, 265.143, 0.0195312, -0.0195312, 0.0078125, 0.0351562, 0.916016, -10.6914, 1.12.2022 20:28:20.662
1030, 1.77823, 359.677, 265.143, 0.0292969, 0.00878906, 0.0126953, 0.291016, 0.466797, -10.71, 1.12.2022 20:28:20.670
1031, 1.76746, 359.658, 265.134, 0.0322266, 0.00878906, 0.015625, 1.0957, 0.0517578, -8.13867, 1.12.2022 20:28:20.678
1032, 1.75712, 359.648, 265.124, 0.0146484, -0.0283203, 0.0136719, 0.410156, 0.286133, -8.22754, 1.12.2022 20:28:20.686
1033, 1.75197, 359.643, 265.124, 0.0078125, -0.0351562, 0.0078125, 1.59863, 0.0908203, -8.42188, 1.12.2022 20:28:20.694
1034, 1.74744, 359.648, 265.114, 0.00585938, -0.0507812, 0.00292969, 1.07812, -0.374023, -11.8535, 1.12.2022 20:28:20.702
1035, 1.75234, 359.653, 265.114, -0.015625, -0.0244141, -0.00195312, 1.40723, 0.822266, -8.6582, 1.12.2022 20:28:20.710
1036, 1.75732, 359.648, 265.114, -0.0117188, -0.0351562, -0.00683594, 0.455078, 0.143555, -12.5098, 1.12.2022 20:28:20.718
1037, 1.76678, 359.638, 265.115, -0.0253906, 0.0205078, -0.00488281, 1.44141, -0.211914, -11.7227, 1.12.2022 20:28:20.726
1038, 1.78569, 359.617, 265.115, -0.0478516, 0.0126953, -0.00195312, 1.34375, 0.730469, -7.08203, 1.12.2022 20:28:20.734
1039, 1.79924, 359.592, 265.126, -0.0185547, 0.0302734, -0.00292969, 0.932617, 0.18457, -9.87305, 1.12.2022 20:28:20.742
1040, 1.80271, 359.557, 265.127, -0.00488281, 0.0322266, 0.00292969, 0.904297, -0.0927734, -10.9131, 1.12.2022 20:28:20.750
1041, 1.81152, 359.527, 265.118, -0.00390625, 0.03125, 0.00976562, 0.75, 0.802734, -9.46777, 1.12.2022 20:28:20.758
1042, 1.80527, 359.502, 265.118, 0.0195312, 0.0234375, 0.0078125, 0.454102, 0.395508, -10.2422, 1.12.2022 20:28:20.766
1043, 1.79432, 359.473, 265.109, 0.0234375, 0.0185547, 0.00488281, 0.767578, 0.685547, -9.08887, 1.12.2022 20:28:20.774
1044, 1.7836, 359.454, 265.109, 0.0244141, -0.00878906, -0.00292969, 1.35059, 0.59082, -7.1123, 1.12.2022 20:28:20.782
1045, 1.77826, 359.449, 265.119, 0.0205078, -0.0351562, -0.00878906, 0.273438, 0.759766, -9.85156, 1.12.2022 20:28:20.790
1046, 1.77311, 359.444, 265.119, 0.0117188, -0.0195312, -0.00585938, 1.14746, 0.463867, -11.2363, 1.12.2022 20:28:20.798
1047, 1.76822, 359.44, 265.118, -0.0117188, -0.0273438, -0.00488281, 0.271484, 0.265625, -12.8105, 1.12.2022 20:28:20.806
1048, 1.7824, 359.424, 265.119, -0.0283203, 0.0126953, 0.000976562, 1.41895, 0.404297, -8.92285, 1.12.2022 20:28:20.814
1049, 1.79659, 359.409, 265.12, -0.0224609, -0.00292969, 0.00292969, 1.2666, -0.537109, -9.76172, 1.12.2022 20:28:20.822
1050, 1.8105, 359.393, 265.121, -0.0361328, -0.00683594, 0.000976562, 0.851562, -0.117188, -9.70117, 1.12.2022 20:28:20.830
1051, 1.82488, 359.378, 265.111, -0.0351562, 0.00390625, 0.000976562, 0.192383, -0.0703125, -9.7666, 1.12.2022 20:28:20.838
1052, 1.83864, 359.352, 265.112, -0.0224609, 0.0517578, 0.000976562, 1.02246, -0.0888672, -9.34863, 1.12.2022 20:28:20.846
1053, 1.84724, 359.322, 265.113, -0.0273438, -0.00390625, -0.00292969, -0.0791016, 1.16992, -10.2764, 1.12.2022 20:28:20.854
1054, 1.86143, 359.307, 265.114, -0.0244141, -0.0117188, 0.000976562, 1.03613, 0.894531, -7.66113, 1.12.2022 20:28:20.862
1055, 1.86615, 359.302, 265.114, 0.000976562, -0.0224609, 0.000976562, 0.0429688, 0.438477, -10.8838, 1.12.2022 20:28:20.870
