Seq, Rot x, Rot y, Rot z, Vel x, Vel y, Vel z, Acc x, Acc y, Acc z, Time(m.d.y h:m:s.ms)
0, 1.85248, 0.152207, -3.5711, -0.000976562, 0, -0.00195312, 0.0283203, 0.304688, -9.81152, 10.6.2021 14:1:18.387
1, 1.84549, 0.152424, -3.5711, 0, 0, -0.000976562, 0.046875, 0.327148, -9.83008, 10.6.2021 14:1:18.391
2, 1.84549, 0.152424, -3.5711, -0.000976562, 0, -0.000976562, 0.0224609, 0.3125, -9.83984, 10.6.2021 14:1:18.399
3, 1.84571, 0.159414, -3.57121, -0.000976562, 0, 0, 0.0390625, 0.351562, -9.86523, 10.6.2021 14:1:18.407
4, 1.85269, 0.159196, -3.57121, -0.000976562, -0.000976562, 0, 0.03125, 0.359375, -9.88574, 10.6.2021 14:1:18.415
5, 1.85269, 0.159196, -3.57121, 0.000976562, -0.000976562, -0.000976562, 0.0390625, 0.361328, -9.87207, 10.6.2021 14:1:18.423
6, 1.85269, 0.159196, -3.57121, -0.000976562, -0.000976562, -0.000976562, 0.0390625, 0.353516, -9.85059, 10.6.2021 14:1:18.431
7, 1.85269, 0.159196, -3.57121, -0.000976562, -0.000976562, -0.000976562, 0.00878906, 0.304688, -9.83789, 10.6.2021 14:1:18.439
8, 1.85968, 0.158978, -3.57121, 0, -0.000976562, -0.000976562, 0.0371094, 0.28125, -9.8291, 10.6.2021 14:1:18.447
9, 1.85968, 0.158978, -3.57121, 0, -0.000976562, -0.000976562, -0.00292969, 0.268555, -9.8125, 10.6.2021 14:1:18.455
10, 1.85269, 0.159196, -3.57121, 0, -0.000976562, 0, 0.0302734, 0.260742, -9.85352, 10.6.2021 14:1:18.463
11, 1.85269, 0.159196, -3.57121, -0.000976562, -0.000976562, -0.000976562, 0.0351562, 0.297852, -9.83789, 10.6.2021 14:1:18.471
12, 1.85269, 0.159196, -3.57121, -0.000976562, -0.000976562, -0.000976562, -0.00390625, 0.34375, -9.85059, 10.6.2021 14:1:18.479
13, 1.85269, 0.159196, -3.57121, -0.000976562, -0.00195312, -0.000976562, -0.0205078, 0.357422, -9.84277, 10.6.2021 14:1:18.487
14, 1.85269, 0.159196, -3.57121, 0, -0.000976562, -0.000976562, 0.0273438, 0.374023, -9.81152, 10.6.2021 14:1:18.495
15, 1.85269, 0.159196, -3.57121, 0, -0.00195312, -0.00195312, 0.00585938, 0.335938, -9.84082, 10.6.2021 14:1:18.503
16, 1.85269, 0.159196, -3.57121, -0.000976562, 0, -0.000976562, 0.0537109, 0.321289, -9.87109, 10.6.2021 14:1:18.511
17, 1.85946, 0.151989, -3.57109, -0.000976562, -0.000976562, 0, 0.00585938, 0.305664, -9.85156, 10.6.2021 14:1:18.519
18, 1.85946, 0.151989, -3.57109, -0.000976562, -0.000976562, -0.000976562, 0.015625, 0.307617, -9.83496, 10.6.2021 14:1:18.527
19, 1.85946, 0.151989, -3.57109, 0.000976562, -0.00195312, -0.00195312, 0.0322266, 0.291016, -9.85254, 10.6.2021 14:1:18.535
20, 1.85946, 0.151989, -3.57109, 0, -0.000976562, -0.00195312, -0.00585938, 0.291016, -9.84277, 10.6.2021 14:1:18.543
21, 1.85946, 0.151989, -3.57109, 0, -0.000976562, -0.000976562, 0.0205078, 0.329102, -9.83887, 10.6.2021 14:1:18.551
22, 1.85946, 0.151989, -3.57109, 0, 0, -0.000976562, 0.0175781, 0.342773, -9.87891, 10.6.2021 14:1:18.559
23, 1.85925, 0.145, -3.57098, -0.000976562, 0, 0, 0.0078125, 0.320312, -9.85352, 10.6.2021 14:1:18.567
24, 1.85925, 0.145, -3.57098, -0.000976562, 0, 0, 0.00585938, 0.34668, -9.80469, 10.6.2021 14:1:18.575
25, 1.85925, 0.145, -3.57098, -0.000976562, -0.000976562, 0, 0.00585938, 0.336914, -9.86523, 10.6.2021 14:1:18.583
26, 1.85925, 0.145, -3.57098, -0.000976562, -0.000976562, -0.00195312, 0.015625, 0.329102, -9.8418, 10.6.2021 14:1:18.591
27, 1.85903, 0.13801, -3.57087, 0, -0.00195312, -0.00195312, 0.0371094, 0.307617, -9.84473, 10.6.2021 14:1:18.599
28, 1.85903, 0.13801, -3.57087, 0, -0.00195312, -0.000976562, 0.0234375, 0.291992, -9.80469, 10.6.2021 14:1:18.607
29, 1.85903, 0.13801, -3.57087, 0, -0.000976562, 0, 0.0498047, 0.296875, -9.80762, 10.6.2021 14:1:18.615
30, 1.85903, 0.13801, -3.57087, 0, -0.000976562, 0.00195312, 0.0205078, 0.300781, -9.84961, 10.6.2021 14:1:18.623
31, 1.85903, 0.13801, -3.57087, 0, -0.000976562, -0.000976562, 0.00683594, 0.294922, -9.81348, 10.6.2021 14:1:18.631
32, 1.85903, 0.13801, -3.57087, 0, -0.000976562, -0.000976562, 0.0175781, 0.327148, -9.83496, 10.6.2021 14:1:18.639
33, 1.85881, 0.131021, -3.57076, -0.000976562, -0.000976562, -0.000976562, -0.0205078, 0.335938, -9.82129, 10.6.2021 14:1:18.647
34, 1.85881, 0.131021, -3.57076, -0.000976562, 0, -0.00195312, 0.0253906, 0.362305, -9.83301, 10.6.2021 14:1:18.655
35, 1.85881, 0.131021, -3.57076, -0.000976562, 0, -0.000976562, 0.0126953, 0.358398, -9.84082, 10.6.2021 14:1:18.663
36, 1.85881, 0.131021, -3.57076, 0, 0, 0, 0.0322266, 0.333008, -9.81543, 10.6.2021 14:1:18.671
37, 1.85881, 0.131021, -3.57076, 0, 0, -0.000976562, 0.0322266, 0.326172, -9.87793, 10.6.2021 14:1:18.679
38, 1.85881, 0.131021, -3.57076, 0, 0, -0.000976562, 0.0537109, 0.277344, -9.85156, 10.6.2021 14:1:18.687
39, 1.85881, 0.131021, -3.57076, 0, 0, -0.000976562, 0.0566406, 0.260742, -9.87109, 10.6.2021 14:1:18.695
40, 1.85881, 0.131021, -3.57076, -0.000976562, 0, -0.000976562, 0.0517578, 0.295898, -9.8291, 10.6.2021 14:1:18.703
41, 1.85903, 0.13801, -3.57087, -0.000976562, -0.000976562, -0.000976562, 0.0322266, 0.300781, -9.84766, 10.6.2021 14:1:18.711
42, 1.85903, 0.13801, -3.57087, -0.000976562, -0.000976562, -0.000976562, 0.00878906, 0.319336, -9.82227, 10.6.2021 14:1:18.719
43, 1.85204, 0.138228, -3.57087, -0.000976562, -0.00195312, -0.000976562, 0.0107422, 0.300781, -9.86133, 10.6.2021 14:1:18.727
44, 1.85204, 0.138228, -3.57087, -0.000976562, -0.00195312, -0.000976562, 0.0253906, 0.329102, -9.84668, 10.6.2021 14:1:18.735
45, 1.85204, 0.138228, -3.57087, -0.00195312, -0.00195312, -0.000976562, 0.0253906, 0.333984, -9.8418, 10.6.2021 14:1:18.743
46, 1.85204, 0.138228, -3.57087, -0.000976562, 0, -0.000976562, 0.0224609, 0.367188, -9.82812, 10.6.2021 14:1:18.751
47, 1.85204, 0.138228, -3.57087, 0, -0.000976562, -0.000976562, 0.0419922, 0.299805, -9.81641, 10.6.2021 14:1:18.759
48, 1.85204, 0.138228, -3.57087, -0.000976562, 0, -0.000976562, 0.0615234, 0.310547, -9.8457, 10.6.2021 14:1:18.767
49, 1.85226, 0.145217, -3.57098, -0.000976562, -0.000976562, -0.000976562, 0.0761719, 0.291016, -9.8418, 10.6.2021 14:1:18.775
50, 1.85226, 0.145217, -3.57098, -0.000976562, -0.00195312, 0, 0.0537109, 0.307617, -9.83789, 10.6.2021 14:1:18.783
51, 1.85226, 0.145217, -3.57098, -0.000976562, 0, 0, 0.0234375, 0.286133, -9.84277, 10.6.2021 14:1:18.791
52, 1.85248, 0.152207, -3.5711, 0, 0, -0.000976562, -0.00585938, 0.31543, -9.85156, 10.6.2021 14:1:18.799
53, 1.85248, 0.152207, -3.5711, 0, 0, -0.000976562, -0.0205078, 0.322266, -9.85742, 10.6.2021 14:1:18.807
54, 1.85248, 0.152207, -3.5711, -0.000976562, 0, -0.000976562, -0.00195312, 0.353516, -9.84766, 10.6.2021 14:1:18.815
55, 1.85248, 0.152207, -3.5711, 0, -0.000976562, 0, 0.015625, 0.34375, -9.85254, 10.6.2021 14:1:18.823
56, 1.85248, 0.152207, -3.5711, -0.000976562, -0.000976562, -0.000976562, 0.0341797, 0.328125, -9.86133, 10.6.2021 14:1:18.831
57, 1.85248, 0.152207, -3.5711, -0.000976562, 0, -0.000976562, 0.078125, 0.317383, -9.8457, 10.6.2021 14:1:18.839
58, 1.85248, 0.152207, -3.5711, -0.000976562, 0, -0.000976562, 0.0556641, 0.3125, -9.89551, 10.6.2021 14:1:18.847
59, 1.85248, 0.152207, -3.5711, -0.000976562, 0, -0.000976562, 0.0585938, 0.318359, -9.86914, 10.6.2021 14:1:18.855
60, 1.85269, 0.159196, -3.57121, -0.000976562, -0.000976562, -0.000976562, 0.046875, 0.313477, -9.85938, 10.6.2021 14:1:18.863
61, 1.85269, 0.159196, -3.57121, 0, 0, -0.000976562, 0.0175781, 0.335938, -9.83398, 10.6.2021 14:1:18.871
62, 1.85269, 0.159196, -3.57121, 0, -0.000976562, -0.000976562, -0.00292969, 0.291016, -9.83984, 10.6.2021 14:1:18.879
63, 1.85269, 0.159196, -3.57121, 0.000976562, 0, -0.000976562, 0.00585938, 0.333984, -9.82715, 10.6.2021 14:1:18.887
64, 1.85269, 0.159196, -3.57121, 0, 0.000976562, -0.000976562, -0.0146484, 0.323242, -9.80273, 10.6.2021 14:1:18.895
65, 1.85269, 0.159196, -3.57121, -0.000976562, 0, 0, 0.0371094, 0.358398, -9.83398, 10.6.2021 14:1:18.903
66, 1.85291, 0.166186, -3.57132, 0, 0, -0.000976562, 0.0458984, 0.357422, -9.88184, 10.6.2021 14:1:18.911
67, 1.85291, 0.166186, -3.57132, -0.000976562, -0.000976562, -0.000976562, 0.0498047, 0.337891, -9.81836, 10.6.2021 14:1:18.919
68, 1.8599, 0.165968, -3.57132, -0.000976562, 0, -0.000976562, 0.0585938, 0.31543, -9.85254, 10.6.2021 14:1:18.927
69, 1.8599, 0.165968, -3.57132, -0.000976562, -0.000976562, -0.00195312, 0.0546875, 0.271484, -9.81543, 10.6.2021 14:1:18.935
70, 1.8599, 0.165968, -3.57132, -0.000976562, -0.000976562, -0.000976562, 0.0126953, 0.291992, -9.87402, 10.6.2021 14:1:18.943
71, 1.8599, 0.165968, -3.57132, 0, -0.000976562, 0, 0.015625, 0.28418, -9.85938, 10.6.2021 14:1:18.951
72, 1.8599, 0.165968, -3.57132, -0.000976562, -0.000976562, -0.000976562, 0.0175781, 0.302734, -9.84473, 10.6.2021 14:1:18.959
73, 1.85291, 0.166186, -3.57132, -0.000976562, 0, -0.000976562, -0.0175781, 0.331055, -9.81738, 10.6.2021 14:1:18.967
74, 1.85291, 0.166186, -3.57132, 0, 0, -0.000976562, 0.0234375, 0.321289, -9.82031, 10.6.2021 14:1:18.975
75, 1.85291, 0.166186, -3.57132, -0.000976562, 0, -0.000976562, 0.0205078, 0.349609, -9.81445, 10.6.2021 14:1:18.983
76, 1.85291, 0.166186, -3.57132, -0.000976562, 0, -0.000976562, 0.0488281, 0.334961, -9.85352, 10.6.2021 14:1:18.991
77, 1.8599, 0.165968, -3.57132, -0.000976562, 0, -0.000976562, 0.0341797, 0.354492, -9.87207, 10.6.2021 14:1:18.999
78, 1.8599, 0.165968, -3.57132, -0.000976562, 0, -0.000976562, 0.0273438, 0.328125, -9.88672, 10.6.2021 14:1:19.007
79, 1.8599, 0.165968, -3.57132, -0.000976562, 0, -0.000976562, 0.0507812, 0.328125, -9.87305, 10.6.2021 14:1:19.015
80, 1.86012, 0.172957, -3.57143, 0, 0, -0.000976562, 0.0566406, 0.30957, -9.81641, 10.6.2021 14:1:19.023
81, 1.86012, 0.172957, -3.57143, 0, -0.000976562, -0.000976562, 0.0205078, 0.308594, -9.85938, 10.6.2021 14:1:19.031
82, 1.86012, 0.172957, -3.57143, 0, -0.00195312, -0.000976562, 0.00878906, 0.31543, -9.79883, 10.6.2021 14:1:19.039
83, 1.86012, 0.172957, -3.57143, 0, -0.000976562, -0.000976562, 0.0273438, 0.298828, -9.85742, 10.6.2021 14:1:19.047
84, 1.86012, 0.172957, -3.57143, 0, -0.00195312, 0, 0.0390625, 0.34375, -9.84375, 10.6.2021 14:1:19.055
85, 1.86012, 0.172957, -3.57143, 0, -0.000976562, 0, 0.0419922, 0.333984, -9.83691, 10.6.2021 14:1:19.063
86, 1.86012, 0.172957, -3.57143, 0, -0.000976562, -0.000976562, 0.0273438, 0.356445, -9.87402, 10.6.2021 14:1:19.071
87, 1.86012, 0.172957, -3.57143, -0.000976562, -0.000976562, 0, 0.0400391, 0.345703, -9.8291, 10.6.2021 14:1:19.079
88, 1.8671, 0.17274, -3.57143, -0.000976562, -0.000976562, 0, 0.046875, 0.295898, -9.82617, 10.6.2021 14:1:19.087
89, 1.8671, 0.17274, -3.57143, -0.000976562, -0.000976562, -0.00195312, 0.0107422, 0.30957, -9.81641, 10.6.2021 14:1:19.095
90, 1.8671, 0.17274, -3.57143, -0.000976562, 0.000976562, -0.000976562, 0.00585938, 0.279297, -9.84766, 10.6.2021 14:1:19.103
91, 1.8671, 0.17274, -3.57143, -0.000976562, 0, 0, 0.0537109, 0.277344, -9.84375, 10.6.2021 14:1:19.111
92, 1.8671, 0.17274, -3.57143, 0, 0, -0.000976562, 0.0185547, 0.303711, -9.79199, 10.6.2021 14:1:19.119
93, 1.86012, 0.172957, -3.57143, 0, 0, -0.000976562, 0.0107422, 0.322266, -9.83691, 10.6.2021 14:1:19.127
94, 1.86012, 0.172957, -3.57143, -0.000976562, 0, -0.000976562, -0.0107422, 0.350586, -9.84766, 10.6.2021 14:1:19.135
95, 1.86012, 0.172957, -3.57143, -0.000976562, 0.000976562, -0.00195312, 0.0273438, 0.370117, -9.82812, 10.6.2021 14:1:19.143
96, 1.8671, 0.17274, -3.57143, 0, 0.000976562, 0.000976562, 0.0605469, 0.351562, -9.84863, 10.6.2021 14:1:19.151
97, 1.8671, 0.17274, -3.57143, 0, 0, 0, 0.0341797, 0.37793, -9.85645, 10.6.2021 14:1:19.159
98, 1.8671, 0.17274, -3.57143, -0.000976562, 0, -0.000976562, 0.0351562, 0.290039, -9.81738, 10.6.2021 14:1:19.167
99, 1.86732, 0.179729, -3.57155, 0, 0.000976562, 0.000976562, 0.0634766, 0.272461, -9.85645, 10.6.2021 14:1:19.175
100, 1.86732, 0.179729, -3.57155, 0, 0, -0.000976562, 0.0273438, 0.297852, -9.84082, 10.6.2021 14:1:19.183
101, 1.86732, 0.179729, -3.57155, 0, -0.000976562, -0.000976562, 0.0371094, 0.289062, -9.83887, 10.6.2021 14:1:19.191
102, 1.86732, 0.179729, -3.57155, -0.000976562, -0.000976562, 0, 0.0234375, 0.265625, -9.80078, 10.6.2021 14:1:19.199
103, 1.86033, 0.179947, -3.57155, -0.000976562, -0.000976562, 0, 0.0253906, 0.332031, -9.85352, 10.6.2021 14:1:19.207
104, 1.86033, 0.179947, -3.57155, -0.000976562, -0.00195312, 0, 0.0390625, 0.31543, -9.86133, 10.6.2021 14:1:19.215
105, 1.86033, 0.179947, -3.57155, -0.000976562, -0.000976562, -0.000976562, -0.00390625, 0.350586, -9.84766, 10.6.2021 14:1:19.223
106, 1.86033, 0.179947, -3.57155, -0.000976562, -0.000976562, -0.000976562, 0.0292969, 0.370117, -9.83301, 10.6.2021 14:1:19.231
107, 1.86033, 0.179947, -3.57155, 0, -0.000976562, 0, 0.0224609, 0.339844, -9.8584, 10.6.2021 14:1:19.239
108, 1.86033, 0.179947, -3.57155, 0, 0, -0.000976562, 0.0175781, 0.308594, -9.87109, 10.6.2021 14:1:19.247
109, 1.86033, 0.179947, -3.57155, 0, -0.000976562, 0, 0.0419922, 0.298828, -9.8623, 10.6.2021 14:1:19.255
110, 1.86033, 0.179947, -3.57155, -0.000976562, -0.000976562, -0.000976562, 0.0205078, 0.297852, -9.84473, 10.6.2021 14:1:19.263
111, 1.86033, 0.179947, -3.57155, 0, -0.000976562, -0.000976562, 0.0615234, 0.282227, -9.85352, 10.6.2021 14:1:19.271
112, 1.86033, 0.179947, -3.57155, -0.000976562, 0, 0, 0.0244141, 0.320312, -9.87012, 10.6.2021 14:1:19.279
113, 1.86033, 0.179947, -3.57155, -0.000976562, 0, -0.000976562, 0.00585938, 0.30957, -9.83691, 10.6.2021 14:1:19.287
114, 1.86033, 0.179947, -3.57155, 0, 0, -0.00195312, 0.0205078, 0.316406, -9.80859, 10.6.2021 14:1:19.295
115, 1.86033, 0.179947, -3.57155, 0.000976562, -0.000976562, -0.000976562, 0.0400391, 0.350586, -9.81934, 10.6.2021 14:1:19.303
116, 1.86012, 0.172957, -3.57143, 0, -0.00195312, -0.000976562, 0.00390625, 0.331055, -9.83398, 10.6.2021 14:1:19.311
117, 1.86012, 0.172957, -3.57143, 0, -0.000976562, -0.000976562, 0.0322266, 0.336914, -9.84863, 10.6.2021 14:1:19.319
118, 1.86012, 0.172957, -3.57143, -0.000976562, -0.000976562, -0.000976562, 0.0615234, 0.322266, -9.83789, 10.6.2021 14:1:19.327
119, 1.86012, 0.172957, -3.57143, -0.000976562, -0.000976562, 0, 0.0371094, 0.304688, -9.82812, 10.6.2021 14:1:19.335
120, 1.86012, 0.172957, -3.57143, -0.000976562, -0.000976562, -0.000976562, 0.046875, 0.305664, -9.84961, 10.6.2021 14:1:19.343
121, 1.86012, 0.172957, -3.57143, -0.000976562, -0.000976562, -0.000976562, 0.0136719, 0.294922, -9.82617, 10.6.2021 14:1:19.351
122, 1.86012, 0.172957, -3.57143, -0.000976562, 0, -0.000976562, 0.0205078, 0.323242, -9.81543, 10.6.2021 14:1:19.359
123, 1.86012, 0.172957, -3.57143, -0.000976562, 0.000976562, -0.000976562, -0.0322266, 0.323242, -9.82617, 10.6.2021 14:1:19.365
124, 1.86012, 0.172957, -3.57143, -0.000976562, 0, 0, 0.0175781, 0.332031, -9.84375, 10.6.2021 14:1:19.373
125, 1.86012, 0.172957, -3.57143, 0, 0, -0.00195312, 0.0107422, 0.336914, -9.85547, 10.6.2021 14:1:19.381
126, 1.86012, 0.172957, -3.57143, 0, 0, -0.000976562, 0.0195312, 0.349609, -9.86523, 10.6.2021 14:1:19.389
127, 1.86012, 0.172957, -3.57143, 0, 0, -0.000976562, 0.0361328, 0.354492, -9.87012, 10.6.2021 14:1:19.397
128, 1.86012, 0.172957, -3.57143, -0.000976562, 0, 0, 0.0585938, 0.314453, -9.83301, 10.6.2021 14:1:19.405
129, 1.86012, 0.172957, -3.57143, -0.000976562, 0, 0, 0.0634766, 0.286133, -9.83887, 10.6.2021 14:1:19.413
130, 1.86012, 0.172957, -3.57143, -0.000976562, 0, -0.000976562, 0.0205078, 0.289062, -9.85254, 10.6.2021 14:1:19.421
131, 1.86012, 0.172957, -3.57143, -0.000976562, 0, -0.00195312, 0.0419922, 0.269531, -9.83008, 10.6.2021 14:1:19.429
132, 1.86012, 0.172957, -3.57143, -0.000976562, 0, -0.00195312, 0.0322266, 0.305664, -9.83789, 10.6.2021 14:1:19.437
133, 1.86012, 0.172957, -3.57143, -0.000976562, 0, 0, 0.0234375, 0.290039, -9.80469, 10.6.2021 14:1:19.445
134, 1.86012, 0.172957, -3.57143, -0.000976562, -0.000976562, 0, 0.0175781, 0.345703, -9.83105, 10.6.2021 14:1:19.453
135, 1.86012, 0.172957, -3.57143, -0.000976562, 0, -0.000976562, 0.0439453, 0.355469, -9.82422, 10.6.2021 14:1:19.461
136, 1.86012, 0.172957, -3.57143, 0, 0.000976562, -0.000976562, 0.0458984, 0.359375, -9.8623, 10.6.2021 14:1:19.469
137, 1.86012, 0.172957, -3.57143, 0, 0, -0.000976562, 0.0322266, 0.351562, -9.86035, 10.6.2021 14:1:19.477
138, 1.86012, 0.172957, -3.57143, 0, -0.000976562, -0.000976562, 0.0439453, 0.350586, -9.83398, 10.6.2021 14:1:19.485
139, 1.86033, 0.179947, -3.57155, -0.000976562, -0.000976562, 0, 0.078125, 0.322266, -9.84473, 10.6.2021 14:1:19.493
140, 1.86033, 0.179947, -3.57155, -0.000976562, -0.000976562, 0, 0.0585938, 0.285156, -9.87695, 10.6.2021 14:1:19.501
141, 1.86033, 0.179947, -3.57155, 0, -0.00195312, -0.000976562, 0.0136719, 0.288086, -9.82812, 10.6.2021 14:1:19.509
142, 1.86033, 0.179947, -3.57155, 0, -0.000976562, -0.000976562, -0.0224609, 0.313477, -9.81543, 10.6.2021 14:1:19.517
143, 1.86033, 0.179947, -3.57155, 0, -0.000976562, -0.000976562, -0.0205078, 0.299805, -9.83496, 10.6.2021 14:1:19.525
144, 1.86033, 0.179947, -3.57155, 0, -0.000976562, -0.000976562, 0.000976562, 0.333984, -9.83203, 10.6.2021 14:1:19.533
145, 1.86033, 0.179947, -3.57155, -0.000976562, -0.000976562, -0.000976562, 0.00878906, 0.311523, -9.82324, 10.6.2021 14:1:19.541
146, 1.86012, 0.172957, -3.57143, 0, -0.000976562, -0.00195312, 0.000976562, 0.348633, -9.83789, 10.6.2021 14:1:19.549
147, 1.86012, 0.172957, -3.57143, 0, -0.000976562, -0.00195312, 0.0341797, 0.351562, -9.85059, 10.6.2021 14:1:19.557
148, 1.86012, 0.172957, -3.57143, 0, -0.000976562, -0.000976562, 0.0244141, 0.339844, -9.8584, 10.6.2021 14:1:19.565
149, 1.86012, 0.172957, -3.57143, 0, -0.000976562, -0.000976562, 0.046875, 0.301758, -9.81152, 10.6.2021 14:1:19.573
150, 1.86012, 0.172957, -3.57143, -0.000976562, -0.000976562, 0, 0.0566406, 0.310547, -9.83594, 10.6.2021 14:1:19.581
151, 1.86689, 0.16575, -3.57132, -0.000976562, 0, 0, -0.00390625, 0.303711, -9.8584, 10.6.2021 14:1:19.589
152, 1.86689, 0.16575, -3.57132, -0.000976562, 0, -0.000976562, -0.0126953, 0.304688, -9.82031, 10.6.2021 14:1:19.597
153, 1.86689, 0.16575, -3.57132, -0.000976562, 0, -0.000976562, -0.00976562, 0.31543, -9.80371, 10.6.2021 14:1:19.605
154, 1.8599, 0.165968, -3.57132, 0, -0.00195312, -0.00195312, -0.00292969, 0.316406, -9.82227, 10.6.2021 14:1:19.613
155, 1.85968, 0.158978, -3.57121, -0.000976562, -0.000976562, -0.00195312, 0.0107422, 0.332031, -9.84375, 10.6.2021 14:1:19.621
156, 1.86667, 0.158761, -3.57121, -0.000976562, -0.000976562, -0.000976562, 0.00878906, 0.324219, -9.8252, 10.6.2021 14:1:19.629
157, 1.86645, 0.151771, -3.57109, 0, -0.000976562, -0.000976562, 0.0654297, 0.351562, -9.86035, 10.6.2021 14:1:19.637
158, 1.86645, 0.151658, -3.57807, -0.000976562, -0.000976562, -0.00195312, 0.0419922, 0.327148, -9.84473, 10.6.2021 14:1:19.645
159, 1.86645, 0.151658, -3.57807, -0.000976562, 0, -0.000976562, 0.0683594, 0.348633, -9.84375, 10.6.2021 14:1:19.653
160, 1.86645, 0.151658, -3.57807, 0, -0.000976562, 0, 0.0605469, 0.301758, -9.87207, 10.6.2021 14:1:19.661
161, 1.86645, 0.151771, -3.57109, 0, -0.000976562, -0.000976562, 0.0371094, 0.300781, -9.83594, 10.6.2021 14:1:19.669
162, 1.86667, 0.158647, -3.57818, 0, -0.000976562, -0.00195312, 0.0517578, 0.282227, -9.86523, 10.6.2021 14:1:19.677
163, 1.86667, 0.158647, -3.57818, 0, 0, 0.000976562, 0.0224609, 0.280273, -9.87891, 10.6.2021 14:1:19.685
164, 1.85968, 0.158865, -3.57818, 0, 0, -0.000976562, 0.0175781, 0.330078, -9.86328, 10.6.2021 14:1:19.693
165, 1.85968, 0.158978, -3.57121, -0.000976562, -0.00195312, 0, -0.0175781, 0.314453, -9.83203, 10.6.2021 14:1:19.701
166, 1.85968, 0.158978, -3.57121, -0.000976562, -0.000976562, 0, 0.0390625, 0.375, -9.84277, 10.6.2021 14:1:19.709
167, 1.86667, 0.158761, -3.57121, 0, -0.000976562, -0.000976562, 0.0488281, 0.375977, -9.86914, 10.6.2021 14:1:19.717
168, 1.86667, 0.158761, -3.57121, 0, 0, -0.000976562, 0.0615234, 0.34082, -9.81836, 10.6.2021 14:1:19.725
169, 1.86667, 0.158761, -3.57121, -0.000976562, 0, -0.000976562, 0.0488281, 0.360352, -9.83105, 10.6.2021 14:1:19.733
170, 1.86667, 0.158761, -3.57121, 0, 0, -0.000976562, 0.0322266, 0.298828, -9.84961, 10.6.2021 14:1:19.741
171, 1.86689, 0.16575, -3.57132, -0.000976562, -0.000976562, -0.000976562, 0.0273438, 0.280273, -9.86914, 10.6.2021 14:1:19.749
172, 1.86689, 0.16575, -3.57132, -0.000976562, -0.00195312, -0.000976562, 0.0205078, 0.301758, -9.80664, 10.6.2021 14:1:19.757
173, 1.86689, 0.16575, -3.57132, -0.000976562, -0.000976562, 0, -0.0078125, 0.297852, -9.83496, 10.6.2021 14:1:19.765
174, 1.86689, 0.16575, -3.57132, -0.000976562, 0, 0.000976562, 0.0107422, 0.329102, -9.84668, 10.6.2021 14:1:19.773
175, 1.86689, 0.16575, -3.57132, -0.000976562, 0, -0.000976562, 0.0224609, 0.334961, -9.86816, 10.6.2021 14:1:19.781
176, 1.86689, 0.16575, -3.57132, 0, 0, -0.000976562, 0.0439453, 0.353516, -9.8457, 10.6.2021 14:1:19.789
177, 1.87387, 0.165532, -3.57132, 0, -0.000976562, 0, 0.0351562, 0.333984, -9.83008, 10.6.2021 14:1:19.797
178, 1.87387, 0.165532, -3.57132, -0.000976562, -0.000976562, -0.000976562, 0.0244141, 0.349609, -9.88379, 10.6.2021 14:1:19.805
179, 1.87387, 0.165532, -3.57132, -0.000976562, -0.000976562, -0.000976562, 0.0917969, 0.341797, -9.85156, 10.6.2021 14:1:19.813
180, 1.87387, 0.165532, -3.57132, -0.000976562, -0.000976562, 0, 0.0224609, 0.320312, -9.85156, 10.6.2021 14:1:19.821
181, 1.87387, 0.165532, -3.57132, -0.000976562, -0.000976562, -0.000976562, 0.0488281, 0.293945, -9.85059, 10.6.2021 14:1:19.829
182, 1.87387, 0.165532, -3.57132, -0.000976562, 0, -0.000976562, 0.00390625, 0.286133, -9.84082, 10.6.2021 14:1:19.837
183, 1.87409, 0.172522, -3.57143, -0.000976562, 0, -0.000976562, 0.0371094, 0.274414, -9.85352, 10.6.2021 14:1:19.845
184, 1.87409, 0.172522, -3.57143, -0.000976562, -0.000976562, -0.000976562, 0.0136719, 0.301758, -9.82129, 10.6.2021 14:1:19.853
185, 1.87409, 0.172522, -3.57143, 0, 0, -0.000976562, -0.00390625, 0.329102, -9.83398, 10.6.2021 14:1:19.861
186, 1.87409, 0.172522, -3.57143, -0.000976562, -0.00195312, -0.000976562, -0.00390625, 0.37793, -9.85645, 10.6.2021 14:1:19.869
187, 1.87387, 0.165532, -3.57132, -0.000976562, -0.000976562, 0, -0.0107422, 0.331055, -9.84082, 10.6.2021 14:1:19.877
188, 1.87387, 0.165532, -3.57132, 0, 0, -0.000976562, 0.0605469, 0.341797, -9.84668, 10.6.2021 14:1:19.885
189, 1.87387, 0.165532, -3.57132, 0, -0.000976562, -0.000976562, 0.0361328, 0.328125, -9.88477, 10.6.2021 14:1:19.893
190, 1.87387, 0.165532, -3.57132, 0, 0, 0, 0.0419922, 0.308594, -9.85938, 10.6.2021 14:1:19.901
191, 1.87387, 0.165532, -3.57132, 0, -0.000976562, 0, 0.015625, 0.320312, -9.84668, 10.6.2021 14:1:19.909
192, 1.87387, 0.165532, -3.57132, 0, -0.000976562, -0.000976562, 0.0332031, 0.266602, -9.83887, 10.6.2021 14:1:19.917
193, 1.87387, 0.165532, -3.57132, -0.000976562, 0, -0.000976562, 0.00195312, 0.290039, -9.80957, 10.6.2021 14:1:19.925
194, 1.87387, 0.165532, -3.57132, -0.000976562, 0, -0.000976562, 0.0253906, 0.322266, -9.85156, 10.6.2021 14:1:19.933
195, 1.86689, 0.16575, -3.57132, -0.000976562, 0, -0.000976562, 0.0107422, 0.317383, -9.85645, 10.6.2021 14:1:19.941
196, 1.86689, 0.16575, -3.57132, 0, -0.000976562, 0, -0.00292969, 0.326172, -9.82422, 10.6.2021 14:1:19.949
197, 1.86667, 0.158761, -3.57121, 0, 0, 0, 0.0244141, 0.351562, -9.84766, 10.6.2021 14:1:19.957
198, 1.86667, 0.158761, -3.57121, 0, -0.000976562, 0.000976562, 0.046875, 0.365234, -9.8291, 10.6.2021 14:1:19.965
199, 1.86667, 0.158761, -3.57121, 0.000976562, -0.000976562, -0.000976562, 0.0390625, 0.34375, -9.83203, 10.6.2021 14:1:19.973
200, 1.86667, 0.158761, -3.57121, 0.000976562, -0.000976562, 0, 0.0703125, 0.305664, -9.84277, 10.6.2021 14:1:19.981
201, 1.86689, 0.16575, -3.57132, 0, -0.000976562, -0.000976562, 0.0830078, 0.264648, -9.83496, 10.6.2021 14:1:19.989
202, 1.86689, 0.16575, -3.57132, 0, 0, -0.000976562, 0.0390625, 0.290039, -9.87402, 10.6.2021 14:1:19.997
203, 1.86689, 0.16575, -3.57132, -0.000976562, -0.000976562, 0, 0.0537109, 0.300781, -9.83398, 10.6.2021 14:1:20.005
204, 1.86689, 0.16575, -3.57132, 0, -0.000976562, 0, 0.0253906, 0.310547, -9.84277, 10.6.2021 14:1:20.013
205, 1.86012, 0.172957, -3.57143, 0, -0.000976562, -0.00195312, 0.0205078, 0.314453, -9.83496, 10.6.2021 14:1:20.021
206, 1.86012, 0.172957, -3.57143, 0, -0.000976562, -0.000976562, 0.0341797, 0.332031, -9.84668, 10.6.2021 14:1:20.029
207, 1.86012, 0.172957, -3.57143, -0.000976562, -0.000976562, 0, 0.0390625, 0.349609, -9.86035, 10.6.2021 14:1:20.037
208, 1.86012, 0.172957, -3.57143, -0.000976562, -0.000976562, -0.000976562, 0.0390625, 0.332031, -9.8584, 10.6.2021 14:1:20.045
209, 1.86012, 0.172957, -3.57143, -0.000976562, 0, 0, 0.0537109, 0.326172, -9.87305, 10.6.2021 14:1:20.053
210, 1.86033, 0.179947, -3.57155, 0, 0, 0, 0.0498047, 0.28125, -9.82227, 10.6.2021 14:1:20.061
211, 1.86033, 0.179947, -3.57155, 0, 0, 0, 0.0175781, 0.324219, -9.83691, 10.6.2021 14:1:20.069
212, 1.86033, 0.179947, -3.57155, -0.000976562, -0.000976562, 0, 0.0185547, 0.30957, -9.83789, 10.6.2021 14:1:20.077
213, 1.86033, 0.179947, -3.57155, -0.000976562, -0.000976562, -0.000976562, 0.0136719, 0.299805, -9.80957, 10.6.2021 14:1:20.085
214, 1.85335, 0.180164, -3.57155, 0, -0.000976562, -0.00195312, -0.000976562, 0.321289, -9.82715, 10.6.2021 14:1:20.093
215, 1.85335, 0.180164, -3.57155, -0.000976562, 0, -0.000976562, 0.0078125, 0.34375, -9.83887, 10.6.2021 14:1:20.101
216, 1.85335, 0.180164, -3.57155, -0.000976562, 0, -0.000976562, -0.00390625, 0.352539, -9.81641, 10.6.2021 14:1:20.109
217, 1.86033, 0.179947, -3.57155, 0, -0.000976562, 0, 0.00585938, 0.324219, -9.83887, 10.6.2021 14:1:20.117
218, 1.86033, 0.179947, -3.57155, -0.000976562, -0.000976562, -0.00195312, 0.015625, 0.348633, -9.85742, 10.6.2021 14:1:20.125
219, 1.86012, 0.172957, -3.57143, 0, -0.000976562, -0.000976562, 0.0400391, 0.313477, -9.80664, 10.6.2021 14:1:20.133
220, 1.86012, 0.172957, -3.57143, 0, -0.000976562, -0.000976562, 0.0302734, 0.328125, -9.79883, 10.6.2021 14:1:20.141
221, 1.86012, 0.172957, -3.57143, 0, -0.000976562, -0.00195312, 0.0380859, 0.285156, -9.81445, 10.6.2021 14:1:20.149
222, 1.86012, 0.172957, -3.57143, 0, 0, -0.00195312, 0.0322266, 0.30957, -9.82812, 10.6.2021 14:1:20.157
223, 1.86012, 0.172957, -3.57143, 0, 0, -0.000976562, 0.0400391, 0.307617, -9.83105, 10.6.2021 14:1:20.165
224, 1.86012, 0.172957, -3.57143, 0, 0, -0.000976562, 0.00390625, 0.299805, -9.82324, 10.6.2021 14:1:20.173
225, 1.86012, 0.172957, -3.57143, 0, 0, -0.000976562, -0.00878906, 0.341797, -9.85547, 10.6.2021 14:1:20.181
226, 1.86012, 0.172957, -3.57143, 0, -0.000976562, 0, 0.00195312, 0.342773, -9.80469, 10.6.2021 14:1:20.189
227, 1.8599, 0.165968, -3.57132, 0, 0, -0.000976562, 0.0224609, 0.337891, -9.82227, 10.6.2021 14:1:20.197
228, 1.8599, 0.165968, -3.57132, 0, -0.000976562, -0.000976562, 0.00585938, 0.358398, -9.84473, 10.6.2021 14:1:20.205
229, 1.8599, 0.165968, -3.57132, 0, -0.00195312, -0.00195312, 0.0273438, 0.311523, -9.86621, 10.6.2021 14:1:20.213
230, 1.8599, 0.165968, -3.57132, 0, 0, -0.000976562, 0.0390625, 0.320312, -9.85449, 10.6.2021 14:1:20.221
231, 1.8599, 0.165968, -3.57132, -0.000976562, 0, -0.000976562, 0.0585938, 0.291992, -9.87695, 10.6.2021 14:1:20.229
232, 1.8599, 0.165968, -3.57132, 0, -0.000976562, -0.000976562, 0.0566406, 0.313477, -9.85254, 10.6.2021 14:1:20.237
233, 1.8599, 0.165968, -3.57132, 0, -0.000976562, -0.000976562, 0.0234375, 0.308594, -9.79492, 10.6.2021 14:1:20.245
234, 1.85968, 0.158978, -3.57121, 0, 0, -0.00195312, -0.0175781, 0.318359, -9.82031, 10.6.2021 14:1:20.253
235, 1.85968, 0.158978, -3.57121, 0, -0.000976562, -0.000976562, -0.0253906, 0.314453, -9.84375, 10.6.2021 14:1:20.261
236, 1.85968, 0.158978, -3.57121, 0, -0.000976562, -0.000976562, 0.015625, 0.350586, -9.84082, 10.6.2021 14:1:20.269
237, 1.86667, 0.158761, -3.57121, -0.000976562, -0.000976562, -0.000976562, 0.0078125, 0.353516, -9.85449, 10.6.2021 14:1:20.277
238, 1.86645, 0.151658, -3.57807, 0, -0.000976562, -0.000976562, 0.0390625, 0.352539, -9.875, 10.6.2021 14:1:20.285
239, 1.86645, 0.151658, -3.57807, -0.000976562, -0.000976562, -0.00195312, 0.0703125, 0.350586, -9.88965, 10.6.2021 14:1:20.293
240, 1.86645, 0.151658, -3.57807, -0.000976562, -0.00195312, -0.000976562, 0.0595703, 0.318359, -9.79492, 10.6.2021 14:1:20.301
241, 1.87344, 0.15144, -3.57807, -0.000976562, -0.000976562, -0.000976562, 0.0488281, 0.296875, -9.86914, 10.6.2021 14:1:20.309
242, 1.87344, 0.15144, -3.57807, -0.000976562, -0.00195312, -0.00195312, 0.0205078, 0.324219, -9.82031, 10.6.2021 14:1:20.317
243, 1.87344, 0.15144, -3.57807, -0.000976562, -0.00195312, 0, 0.0302734, 0.28418, -9.84766, 10.6.2021 14:1:20.325
244, 1.87344, 0.15144, -3.57807, -0.000976562, -0.000976562, 0, 0.000976562, 0.305664, -9.83984, 10.6.2021 14:1:20.333
245, 1.87344, 0.15144, -3.57807, -0.000976562, -0.000976562, 0, -0.046875, 0.30957, -9.8457, 10.6.2021 14:1:20.341
246, 1.87344, 0.15144, -3.57807, 0, -0.000976562, -0.000976562, -0.0449219, 0.317383, -9.85254, 10.6.2021 14:1:20.349
247, 1.87322, 0.14445, -3.57795, 0, -0.000976562, -0.000976562, 0.0205078, 0.325195, -9.85352, 10.6.2021 14:1:20.357
248, 1.87322, 0.14445, -3.57795, -0.000976562, -0.000976562, -0.000976562, 0.0273438, 0.316406, -9.8252, 10.6.2021 14:1:20.365
249, 1.87322, 0.14445, -3.57795, -0.000976562, 0, -0.000976562, 0.0322266, 0.342773, -9.82227, 10.6.2021 14:1:20.373
250, 1.87322, 0.14445, -3.57795, -0.000976562, 0, 0, 0.0400391, 0.326172, -9.83008, 10.6.2021 14:1:20.381
251, 1.87322, 0.14445, -3.57795, -0.000976562, -0.000976562, 0, 0.0488281, 0.305664, -9.83789, 10.6.2021 14:1:20.389
252, 1.87322, 0.14445, -3.57795, 0, -0.000976562, 0, 0.0517578, 0.302734, -9.82129, 10.6.2021 14:1:20.397
253, 1.87322, 0.14445, -3.57795, -0.000976562, -0.00195312, 0, 0.0322266, 0.304688, -9.83105, 10.6.2021 14:1:20.405
254, 1.873, 0.137461, -3.57784, -0.000976562, -0.00195312, 0, -0.00390625, 0.301758, -9.86816, 10.6.2021 14:1:20.413
255, 1.86601, 0.137679, -3.57784, -0.000976562, -0.00195312, 0, -0.0351562, 0.317383, -9.84375, 10.6.2021 14:1:20.421
256, 1.86601, 0.137679, -3.57784, -0.000976562, -0.000976562, 0.000976562, 0.0136719, 0.318359, -9.79395, 10.6.2021 14:1:20.429
257, 1.86601, 0.137679, -3.57784, -0.000976562, -0.000976562, 0.000976562, 0.000976562, 0.356445, -9.80957, 10.6.2021 14:1:20.437
258, 1.86601, 0.137679, -3.57784, 0, -0.000976562, 0, 0.078125, 0.350586, -9.82715, 10.6.2021 14:1:20.445
259, 1.873, 0.137461, -3.57784, 0, -0.000976562, 0, 0.0244141, 0.341797, -9.86719, 10.6.2021 14:1:20.453
260, 1.87278, 0.130471, -3.57773, 0, -0.000976562, 0, 0.0273438, 0.320312, -9.8584, 10.6.2021 14:1:20.461
261, 1.873, 0.137461, -3.57784, 0, -0.000976562, 0, 0.0556641, 0.325195, -9.86426, 10.6.2021 14:1:20.469
262, 1.873, 0.137461, -3.57784, -0.000976562, -0.000976562, -0.00195312, 0.0449219, 0.307617, -9.84082, 10.6.2021 14:1:20.477
263, 1.873, 0.137461, -3.57784, -0.000976562, -0.000976562, 0, 0.0136719, 0.300781, -9.84277, 10.6.2021 14:1:20.483
264, 1.873, 0.137461, -3.57784, -0.000976562, 0, 0, 0.00390625, 0.290039, -9.82129, 10.6.2021 14:1:20.493
265, 1.873, 0.137461, -3.57784, -0.000976562, -0.000976562, 0, 0.00878906, 0.342773, -9.81738, 10.6.2021 14:1:20.501
266, 1.873, 0.137461, -3.57784, -0.000976562, 0, 0, 0.0292969, 0.341797, -9.8584, 10.6.2021 14:1:20.507
267, 1.873, 0.137461, -3.57784, -0.000976562, -0.000976562, 0, 0.0556641, 0.366211, -9.85547, 10.6.2021 14:1:20.515
268, 1.873, 0.137461, -3.57784, -0.000976562, -0.000976562, 0, 0.0195312, 0.332031, -9.86328, 10.6.2021 14:1:20.523
269, 1.873, 0.137461, -3.57784, 0, -0.000976562, 0.000976562, 0.0439453, 0.353516, -9.83887, 10.6.2021 14:1:20.531
270, 1.88021, 0.144232, -3.57795, -0.000976562, -0.000976562, 0, 0.102539, 0.350586, -9.81348, 10.6.2021 14:1:20.539
271, 1.88021, 0.144232, -3.57795, 0, -0.000976562, 0.000976562, 0.046875, 0.316406, -9.82324, 10.6.2021 14:1:20.547
272, 1.88021, 0.144346, -3.57098, 0, -0.000976562, 0, 0.0244141, 0.330078, -9.8584, 10.6.2021 14:1:20.555
273, 1.88042, 0.151336, -3.57109, -0.000976562, 0, 0.000976562, 0.0419922, 0.27832, -9.88379, 10.6.2021 14:1:20.563
274, 1.88042, 0.151336, -3.57109, -0.000976562, -0.000976562, 0.000976562, 0.0126953, 0.310547, -9.86133, 10.6.2021 14:1:20.571
275, 1.88042, 0.151336, -3.57109, -0.000976562, -0.000976562, 0.000976562, 0.0302734, 0.330078, -9.84863, 10.6.2021 14:1:20.579
276, 1.88042, 0.151336, -3.57109, -0.000976562, -0.00195312, 0, 0.015625, 0.314453, -9.83984, 10.6.2021 14:1:20.587
277, 1.88763, 0.158108, -3.5712, -0.000976562, -0.000976562, 0, 0.0273438, 0.339844, -9.86523, 10.6.2021 14:1:20.595
278, 1.88763, 0.158108, -3.5712, -0.000976562, -0.000976562, 0, 0.0302734, 0.34082, -9.83398, 10.6.2021 14:1:20.603
279, 1.88763, 0.158108, -3.5712, 0, -0.000976562, 0, 0.0556641, 0.375, -9.83105, 10.6.2021 14:1:20.611
280, 1.88763, 0.158108, -3.5712, 0, -0.00195312, 0, 0.0556641, 0.335938, -9.875, 10.6.2021 14:1:20.619
281, 1.88763, 0.158108, -3.5712, 0, -0.00195312, 0.000976562, 0.0400391, 0.313477, -9.80664, 10.6.2021 14:1:20.627
282, 1.88785, 0.165097, -3.57132, 0, 0, -0.000976562, 0.0458984, 0.317383, -9.89941, 10.6.2021 14:1:20.635
283, 1.88785, 0.165097, -3.57132, 0, 0, -0.000976562, 0.0449219, 0.28125, -9.83203, 10.6.2021 14:1:20.643
284, 1.88785, 0.165097, -3.57132, 0, 0, -0.000976562, -0.00390625, 0.291016, -9.85645, 10.6.2021 14:1:20.651
285, 1.88785, 0.165097, -3.57132, 0, -0.000976562, -0.00195312, 0.0107422, 0.318359, -9.86523, 10.6.2021 14:1:20.659
286, 1.88806, 0.172086, -3.57143, 0, 0, -0.000976562, -0.000976562, 0.335938, -9.81738, 10.6.2021 14:1:20.667
287, 1.88806, 0.172086, -3.57143, 0, 0.000976562, 0, 0.0322266, 0.356445, -9.85742, 10.6.2021 14:1:20.675
288, 1.88806, 0.172086, -3.57143, -0.000976562, 0.000976562, -0.000976562, 0.0439453, 0.349609, -9.87207, 10.6.2021 14:1:20.683
289, 1.88806, 0.172086, -3.57143, 0, -0.000976562, -0.000976562, 0.0273438, 0.345703, -9.83398, 10.6.2021 14:1:20.691
290, 1.88806, 0.172086, -3.57143, 0, 0, -0.000976562, 0.0537109, 0.328125, -9.87793, 10.6.2021 14:1:20.699
291, 1.88806, 0.172086, -3.57143, -0.000976562, 0, -0.000976562, 0.0537109, 0.298828, -9.84766, 10.6.2021 14:1:20.707
292, 1.88806, 0.172086, -3.57143, 0, 0, -0.000976562, 0.0488281, 0.310547, -9.85938, 10.6.2021 14:1:20.715
293, 1.88828, 0.179076, -3.57155, 0, 0, -0.00195312, 0.0351562, 0.283203, -9.82715, 10.6.2021 14:1:20.723
294, 1.88828, 0.179076, -3.57155, -0.000976562, 0, -0.000976562, 0.0185547, 0.268555, -9.82715, 10.6.2021 14:1:20.731
295, 1.8813, 0.179294, -3.57155, 0, 0, -0.000976562, 0.0214844, 0.272461, -9.79395, 10.6.2021 14:1:20.739
296, 1.8813, 0.179294, -3.57155, -0.000976562, 0, -0.000976562, 0.0107422, 0.314453, -9.83008, 10.6.2021 14:1:20.747
297, 1.8813, 0.179294, -3.57155, -0.000976562, 0, -0.000976562, 0.00585938, 0.348633, -9.84277, 10.6.2021 14:1:20.755
298, 1.8813, 0.179294, -3.57155, 0, 0, -0.000976562, -0.00390625, 0.355469, -9.83594, 10.6.2021 14:1:20.763
299, 1.8813, 0.179294, -3.57155, -0.000976562, 0.000976562, -0.000976562, 0.0224609, 0.375977, -9.86621, 10.6.2021 14:1:20.771
300, 1.8813, 0.179294, -3.57155, -0.000976562, 0, -0.00195312, 0.0634766, 0.327148, -9.85449, 10.6.2021 14:1:20.779
301, 1.8813, 0.179179, -3.57852, -0.000976562, 0, -0.00195312, 0.0292969, 0.320312, -9.85645, 10.6.2021 14:1:20.787
302, 1.8813, 0.179179, -3.57852, -0.000976562, -0.00195312, 0, 0.0234375, 0.323242, -9.81543, 10.6.2021 14:1:20.795
303, 1.8813, 0.179179, -3.57852, -0.000976562, 0, -0.000976562, 0.0400391, 0.277344, -9.8457, 10.6.2021 14:1:20.803
304, 1.8813, 0.179179, -3.57852, -0.000976562, 0, -0.000976562, 0.00683594, 0.260742, -9.7959, 10.6.2021 14:1:20.811
305, 1.87431, 0.179397, -3.57852, -0.000976562, 0, -0.00195312, 0.00390625, 0.324219, -9.84863, 10.6.2021 14:1:20.819
306, 1.87409, 0.172408, -3.57841, -0.000976562, 0, -0.000976562, -0.00683594, 0.339844, -9.86914, 10.6.2021 14:1:20.827
307, 1.87409, 0.172408, -3.57841, 0, -0.000976562, -0.000976562, -0.00683594, 0.344727, -9.86914, 10.6.2021 14:1:20.835
308, 1.87409, 0.172408, -3.57841, 0, 0, -0.000976562, 0.0205078, 0.345703, -9.83887, 10.6.2021 14:1:20.843
309, 1.87387, 0.165418, -3.5783, -0.000976562, 0, 0, 0.0126953, 0.332031, -9.85547, 10.6.2021 14:1:20.851
310, 1.87387, 0.165418, -3.5783, -0.000976562, 0.000976562, -0.000976562, 0.00585938, 0.350586, -9.8291, 10.6.2021 14:1:20.859
311, 1.87387, 0.165418, -3.5783, -0.000976562, 0.000976562, -0.000976562, 0.0390625, 0.353516, -9.83887, 10.6.2021 14:1:20.867
312, 1.88086, 0.1652, -3.5783, 0, 0.000976562, -0.000976562, 0.0419922, 0.293945, -9.84766, 10.6.2021 14:1:20.875
313, 1.88086, 0.1652, -3.5783, 0, 0, -0.000976562, 0.0302734, 0.3125, -9.84277, 10.6.2021 14:1:20.883
314, 1.88086, 0.1652, -3.5783, 0, -0.000976562, 0, 0.0449219, 0.291016, -9.82422, 10.6.2021 14:1:20.891
315, 1.87387, 0.165418, -3.5783, -0.000976562, 0, 0.000976562, 0.0693359, 0.280273, -9.80566, 10.6.2021 14:1:20.899
316, 1.87387, 0.165418, -3.5783, -0.000976562, 0.000976562, 0, 0.0205078, 0.31543, -9.84668, 10.6.2021 14:1:20.907
317, 1.87387, 0.165418, -3.5783, -0.000976562, -0.00195312, 0, 0.0107422, 0.34375, -9.83105, 10.6.2021 14:1:20.915
318, 1.87387, 0.165418, -3.5783, -0.000976562, -0.000976562, 0, 0.0253906, 0.345703, -9.83887, 10.6.2021 14:1:20.923
319, 1.87387, 0.165418, -3.5783, 0, -0.000976562, 0, -0.015625, 0.364258, -9.80664, 10.6.2021 14:1:20.931
320, 1.87365, 0.158429, -3.57818, 0, 0.000976562, 0, 0.0253906, 0.348633, -9.84375, 10.6.2021 14:1:20.939
321, 1.87365, 0.158429, -3.57818, 0, 0.000976562, 0, 0.0517578, 0.305664, -9.85254, 10.6.2021 14:1:20.947
322, 1.88064, 0.158211, -3.57818, 0, 0, 0.000976562, 0.0390625, 0.328125, -9.86328, 10.6.2021 14:1:20.955
323, 1.88086, 0.1652, -3.5783, -0.000976562, 0.000976562, 0, 0.0322266, 0.279297, -9.85547, 10.6.2021 14:1:20.963
324, 1.87387, 0.165418, -3.5783, -0.000976562, -0.000976562, -0.00195312, 0.0117188, 0.290039, -9.82129, 10.6.2021 14:1:20.971
325, 1.87365, 0.158429, -3.57818, -0.000976562, -0.000976562, 0, -0.00292969, 0.301758, -9.79883, 10.6.2021 14:1:20.979
326, 1.87365, 0.158429, -3.57818, -0.000976562, -0.000976562, 0, 0.0136719, 0.302734, -9.83496, 10.6.2021 14:1:20.987
327, 1.87365, 0.158429, -3.57818, -0.000976562, 0.000976562, 0, -0.0205078, 0.313477, -9.81738, 10.6.2021 14:1:20.995
328, 1.87365, 0.158429, -3.57818, -0.000976562, -0.000976562, -0.00195312, 0.0205078, 0.329102, -9.83691, 10.6.2021 14:1:21.003
329, 1.87365, 0.158429, -3.57818, -0.000976562, -0.000976562, -0.00195312, 0.00292969, 0.348633, -9.84277, 10.6.2021 14:1:21.011
330, 1.87344, 0.15144, -3.57807, 0, 0.000976562, 0, 0.0302734, 0.30957, -9.81348, 10.6.2021 14:1:21.019
331, 1.87344, 0.15144, -3.57807, 0, 0.000976562, 0, 0.0634766, 0.331055, -9.82812, 10.6.2021 14:1:21.027
332, 1.87344, 0.15144, -3.57807, 0, -0.000976562, 0, 0.0371094, 0.310547, -9.84766, 10.6.2021 14:1:21.035
333, 1.87344, 0.15144, -3.57807, 0, -0.000976562, 0, 0.0878906, 0.316406, -9.80762, 10.6.2021 14:1:21.043
334, 1.86645, 0.151658, -3.57807, -0.000976562, -0.000976562, 0, 0.0419922, 0.305664, -9.83594, 10.6.2021 14:1:21.051
335, 1.86667, 0.158647, -3.57818, -0.000976562, 0.000976562, 0, 0.00390625, 0.289062, -9.84766, 10.6.2021 14:1:21.059
336, 1.86667, 0.158647, -3.57818, 0, -0.000976562, 0, -0.00292969, 0.282227, -9.80957, 10.6.2021 14:1:21.067
337, 1.86667, 0.158647, -3.57818, -0.000976562, -0.000976562, 0, -0.00585938, 0.322266, -9.83691, 10.6.2021 14:1:21.075
338, 1.85946, 0.151876, -3.57807, -0.000976562, -0.000976562, -0.00195312, 0.0371094, 0.299805, -9.87598, 10.6.2021 14:1:21.083
339, 1.85946, 0.151876, -3.57807, -0.000976562, -0.000976562, 0, 0.0273438, 0.332031, -9.85547, 10.6.2021 14:1:21.091
340, 1.85946, 0.151876, -3.57807, 0, 0, 0.000976562, 0.0322266, 0.349609, -9.86035, 10.6.2021 14:1:21.099
341, 1.85946, 0.151876, -3.57807, 0, 0.000976562, 0, 0.0234375, 0.330078, -9.80371, 10.6.2021 14:1:21.107
342, 1.85968, 0.158865, -3.57818, -0.000976562, -0.000976562, -0.00195312, 0.0488281, 0.325195, -9.8418, 10.6.2021 14:1:21.115
343, 1.85968, 0.158865, -3.57818, -0.000976562, 0.000976562, -0.000976562, 0.046875, 0.30957, -9.82324, 10.6.2021 14:1:21.123
344, 1.85968, 0.158865, -3.57818, 0, -0.000976562, -0.00292969, 0.0253906, 0.291992, -9.85742, 10.6.2021 14:1:21.131
345, 1.85968, 0.158865, -3.57818, -0.000976562, 0.000976562, 0, -0.000976562, 0.291016, -9.85938, 10.6.2021 14:1:21.139
346, 1.85269, 0.159083, -3.57819, -0.000976562, 0, 0.000976562, -0.0341797, 0.269531, -9.84766, 10.6.2021 14:1:21.147
347, 1.85269, 0.159083, -3.57819, -0.000976562, 0, 0, -0.000976562, 0.302734, -9.83789, 10.6.2021 14:1:21.155
348, 1.85247, 0.152094, -3.57807, -0.000976562, -0.000976562, -0.000976562, -0.000976562, 0.332031, -9.84082, 10.6.2021 14:1:21.163
349, 1.85247, 0.152094, -3.57807, -0.000976562, -0.00195312, 0, 0.000976562, 0.329102, -9.82715, 10.6.2021 14:1:21.171
350, 1.85226, 0.145105, -3.57796, 0, -0.00195312, 0, 0.0322266, 0.34375, -9.8457, 10.6.2021 14:1:21.179
351, 1.85226, 0.145105, -3.57796, -0.000976562, -0.000976562, 0, 0.0224609, 0.344727, -9.87402, 10.6.2021 14:1:21.187
352, 1.85226, 0.145105, -3.57796, -0.000976562, -0.000976562, 0, 0.0322266, 0.31543, -9.85156, 10.6.2021 14:1:21.195
353, 1.84527, 0.145323, -3.57796, 0, 0, 0.000976562, 0.00683594, 0.294922, -9.81836, 10.6.2021 14:1:21.203
354, 1.84505, 0.138333, -3.57785, 0, -0.000976562, 0, -0.000976562, 0.307617, -9.83496, 10.6.2021 14:1:21.211
355, 1.84505, 0.138333, -3.57785, -0.000976562, 0, 0, -0.00585938, 0.298828, -9.86621, 10.6.2021 14:1:21.219
356, 1.84505, 0.138333, -3.57785, -0.000976562, 0, 0.000976562, 0.0136719, 0.269531, -9.8457, 10.6.2021 14:1:21.227
357, 1.84505, 0.138333, -3.57785, 0, -0.000976562, 0, 0.0253906, 0.313477, -9.79492, 10.6.2021 14:1:21.235
358, 1.84483, 0.131344, -3.57774, -0.000976562, -0.000976562, 0, 0.0371094, 0.321289, -9.82324, 10.6.2021 14:1:21.243
359, 1.83785, 0.131562, -3.57774, -0.000976562, 0.000976562, 0, 0.0371094, 0.348633, -9.85352, 10.6.2021 14:1:21.251
360, 1.83785, 0.131562, -3.57774, -0.000976562, 0, 0, 0.0585938, 0.318359, -9.85645, 10.6.2021 14:1:21.259
361, 1.83785, 0.131562, -3.57774, -0.000976562, 0, 0, 0.0830078, 0.327148, -9.83984, 10.6.2021 14:1:21.267
362, 1.83806, 0.138551, -3.57785, 0, 0, 0.000976562, 0.0371094, 0.31543, -9.85645, 10.6.2021 14:1:21.275
363, 1.83806, 0.138551, -3.57785, -0.000976562, -0.00195312, 0, 0.0517578, 0.264648, -9.84668, 10.6.2021 14:1:21.283
364, 1.83806, 0.138551, -3.57785, -0.000976562, -0.000976562, 0.000976562, 0.00195312, 0.288086, -9.83594, 10.6.2021 14:1:21.291
365, 1.83806, 0.138551, -3.57785, -0.000976562, -0.000976562, 0.000976562, 0.0253906, 0.304688, -9.83301, 10.6.2021 14:1:21.299
366, 1.83108, 0.13877, -3.57785, -0.000976562, -0.000976562, 0.000976562, 0.0205078, 0.288086, -9.83301, 10.6.2021 14:1:21.307
367, 1.83108, 0.138881, -3.57088, 0, 0.000976562, 0, -0.00390625, 0.324219, -9.8418, 10.6.2021 14:1:21.315
368, 1.83108, 0.138881, -3.57088, -0.000976562, 0, 0, 0.0400391, 0.331055, -9.82324, 10.6.2021 14:1:21.323
369, 1.8313, 0.14587, -3.57099, -0.000976562, 0, 0.000976562, 0.0410156, 0.344727, -9.875, 10.6.2021 14:1:21.331
370, 1.8313, 0.14587, -3.57099, -0.000976562, 0, 0.000976562, 0.0537109, 0.358398, -9.84863, 10.6.2021 14:1:21.339
371, 1.8313, 0.14587, -3.57099, 0, -0.000976562, 0, 0.0341797, 0.375977, -9.85938, 10.6.2021 14:1:21.347
372, 1.8313, 0.14587, -3.57099, 0, 0, 0, 0.0419922, 0.320312, -9.85938, 10.6.2021 14:1:21.355
373, 1.8385, 0.152642, -3.5711, 0, -0.000976562, 0, 0.0244141, 0.296875, -9.88086, 10.6.2021 14:1:21.363
374, 1.8385, 0.152642, -3.5711, -0.000976562, -0.000976562, 0, 0.0429688, 0.296875, -9.8125, 10.6.2021 14:1:21.371
375, 1.8385, 0.152642, -3.5711, -0.000976562, -0.00195312, 0, 0.00390625, 0.263672, -9.8291, 10.6.2021 14:1:21.379
376, 1.8385, 0.152642, -3.5711, -0.000976562, 0, 0, -0.00488281, 0.282227, -9.7998, 10.6.2021 14:1:21.387
377, 1.83151, 0.15286, -3.5711, 0, -0.000976562, 0, -0.0175781, 0.319336, -9.83398, 10.6.2021 14:1:21.395
378, 1.83151, 0.15286, -3.5711, -0.000976562, -0.000976562, -0.000976562, 0.0078125, 0.355469, -9.83301, 10.6.2021 14:1:21.403
379, 1.83151, 0.15286, -3.5711, 0, 0, -0.000976562, 0.0322266, 0.348633, -9.84082, 10.6.2021 14:1:21.411
380, 1.8385, 0.152642, -3.5711, -0.000976562, 0, -0.000976562, 0.0390625, 0.360352, -9.83594, 10.6.2021 14:1:21.419
381, 1.8385, 0.152642, -3.5711, 0, -0.000976562, -0.000976562, 0.0322266, 0.338867, -9.82715, 10.6.2021 14:1:21.427
382, 1.8385, 0.152642, -3.5711, 0, -0.000976562, -0.00195312, 0.046875, 0.341797, -9.85547, 10.6.2021 14:1:21.435
383, 1.8385, 0.152642, -3.5711, 0, -0.000976562, -0.000976562, 0.0732422, 0.320312, -9.84766, 10.6.2021 14:1:21.443
384, 1.84549, 0.152424, -3.5711, -0.000976562, 0, -0.000976562, 0.0449219, 0.280273, -9.81055, 10.6.2021 14:1:21.451
385, 1.84549, 0.152424, -3.5711, 0, 0, -0.000976562, 0.0498047, 0.270508, -9.80859, 10.6.2021 14:1:21.459
386, 1.84571, 0.159414, -3.57121, -0.000976562, -0.000976562, -0.000976562, 0.0175781, 0.334961, -9.85547, 10.6.2021 14:1:21.467
387, 1.84571, 0.159414, -3.57121, 0, -0.00195312, 0, 0.0136719, 0.297852, -9.83496, 10.6.2021 14:1:21.475
388, 1.84571, 0.159414, -3.57121, -0.000976562, -0.000976562, 0, 0.00585938, 0.336914, -9.84375, 10.6.2021 14:1:21.483
389, 1.84571, 0.159414, -3.57121, 0, -0.000976562, -0.000976562, 0.0146484, 0.356445, -9.85742, 10.6.2021 14:1:21.491
390, 1.84571, 0.159414, -3.57121, -0.000976562, -0.000976562, -0.00195312, 0.0107422, 0.332031, -9.8584, 10.6.2021 14:1:21.499
391, 1.84571, 0.159414, -3.57121, 0, -0.000976562, -0.000976562, 0.0175781, 0.347656, -9.83105, 10.6.2021 14:1:21.507
392, 1.84571, 0.159414, -3.57121, 0, -0.000976562, -0.000976562, 0.0175781, 0.333008, -9.86523, 10.6.2021 14:1:21.515
393, 1.85269, 0.159196, -3.57121, 0, -0.000976562, 0, 0.0371094, 0.321289, -9.8252, 10.6.2021 14:1:21.523
394, 1.85269, 0.159196, -3.57121, 0, 0, 0, 0.0527344, 0.277344, -9.80078, 10.6.2021 14:1:21.531
395, 1.85269, 0.159196, -3.57121, 0, -0.000976562, -0.000976562, 0.0390625, 0.318359, -9.86621, 10.6.2021 14:1:21.539
396, 1.85269, 0.159196, -3.57121, 0, 0, -0.00195312, 0.0283203, 0.286133, -9.83594, 10.6.2021 14:1:21.547
397, 1.85269, 0.159196, -3.57121, 0, -0.000976562, -0.000976562, 0.0253906, 0.327148, -9.84668, 10.6.2021 14:1:21.555
398, 1.85269, 0.159196, -3.57121, 0, 0, -0.000976562, 0.0341797, 0.358398, -9.83594, 10.6.2021 14:1:21.563
399, 1.85269, 0.159196, -3.57121, 0, -0.000976562, -0.000976562, 0.0175781, 0.358398, -9.85742, 10.6.2021 14:1:21.571
400, 1.85269, 0.159196, -3.57121, -0.000976562, 0, 0, 0.0273438, 0.336914, -9.84375, 10.6.2021 14:1:21.579
401, 1.85269, 0.159196, -3.57121, -0.000976562, -0.000976562, -0.000976562, 0.0273438, 0.328125, -9.875, 10.6.2021 14:1:21.587
402, 1.85968, 0.158978, -3.57121, -0.000976562, -0.000976562, 0, 0.0566406, 0.317383, -9.83789, 10.6.2021 14:1:21.595
403, 1.8599, 0.165968, -3.57132, -0.000976562, 0.000976562, -0.000976562, 0.0439453, 0.305664, -9.85254, 10.6.2021 14:1:21.603
404, 1.8599, 0.165968, -3.57132, -0.000976562, 0, -0.000976562, 0.0439453, 0.294922, -9.86914, 10.6.2021 14:1:21.611
405, 1.8599, 0.165968, -3.57132, 0, -0.000976562, -0.00195312, 0.0185547, 0.293945, -9.84473, 10.6.2021 14:1:21.617
406, 1.8599, 0.165968, -3.57132, 0, 0, -0.000976562, 0.0537109, 0.298828, -9.85742, 10.6.2021 14:1:21.625
407, 1.86012, 0.172844, -3.57841, 0, 0.000976562, -0.000976562, 0.0498047, 0.306641, -9.80664, 10.6.2021 14:1:21.633
408, 1.86012, 0.172957, -3.57143, -0.000976562, 0, 0, 0.0439453, 0.327148, -9.84668, 10.6.2021 14:1:21.641
409, 1.86012, 0.172957, -3.57143, -0.000976562, 0, -0.000976562, 0.0322266, 0.348633, -9.8291, 10.6.2021 14:1:21.649
410, 1.86012, 0.172957, -3.57143, -0.000976562, -0.000976562, -0.00195312, 0.0273438, 0.341797, -9.8457, 10.6.2021 14:1:21.659
411, 1.86033, 0.179834, -3.57852, -0.000976562, -0.000976562, -0.000976562, 0.0537109, 0.339844, -9.85352, 10.6.2021 14:1:21.665
412, 1.86033, 0.179834, -3.57852, 0, -0.000976562, -0.000976562, 0.0566406, 0.331055, -9.81836, 10.6.2021 14:1:21.673
413, 1.86033, 0.179834, -3.57852, -0.000976562, -0.000976562, -0.00195312, 0.0253906, 0.31543, -9.84961, 10.6.2021 14:1:21.681
414, 1.86033, 0.179834, -3.57852, 0, -0.000976562, 0.000976562, 0.0351562, 0.297852, -9.83105, 10.6.2021 14:1:21.689
415, 1.86055, 0.186823, -3.57864, -0.000976562, 0, 0.000976562, 0.0302734, 0.31543, -9.84473, 10.6.2021 14:1:21.697
416, 1.86055, 0.186936, -3.57166, -0.000976562, 0, -0.000976562, -0.0107422, 0.297852, -9.8418, 10.6.2021 14:1:21.705
417, 1.86055, 0.186936, -3.57166, 0, -0.000976562, -0.000976562, 0.000976562, 0.322266, -9.8584, 10.6.2021 14:1:21.713
418, 1.86055, 0.186936, -3.57166, 0, 0, -0.000976562, -0.00683594, 0.328125, -9.88184, 10.6.2021 14:1:21.721
419, 1.86055, 0.186936, -3.57166, 0, 0.000976562, 0.000976562, 0.00878906, 0.326172, -9.83203, 10.6.2021 14:1:21.729
420, 1.86033, 0.179947, -3.57155, -0.000976562, 0, 0.000976562, 0.0332031, 0.358398, -9.77441, 10.6.2021 14:1:21.737
421, 1.86732, 0.179729, -3.57155, -0.000976562, -0.000976562, 0.000976562, 0.0585938, 0.368164, -9.84375, 10.6.2021 14:1:21.745
422, 1.86732, 0.179729, -3.57155, 0, -0.000976562, 0.000976562, 0.0605469, 0.341797, -9.85645, 10.6.2021 14:1:21.753
423, 1.86732, 0.179729, -3.57155, -0.000976562, 0, -0.000976562, 0.0400391, 0.292969, -9.83398, 10.6.2021 14:1:21.761
424, 1.86754, 0.186718, -3.57166, -0.000976562, 0, -0.000976562, 0.0498047, 0.291016, -9.82422, 10.6.2021 14:1:21.769
425, 1.86754, 0.186718, -3.57166, 0, 0, -0.000976562, -0.00390625, 0.314453, -9.89941, 10.6.2021 14:1:21.777
426, 1.86754, 0.186718, -3.57166, -0.000976562, -0.000976562, -0.000976562, -0.0185547, 0.300781, -9.86621, 10.6.2021 14:1:21.785
427, 1.86732, 0.179729, -3.57155, -0.000976562, -0.000976562, -0.00195312, -0.00390625, 0.319336, -9.84668, 10.6.2021 14:1:21.793
428, 1.86732, 0.179729, -3.57155, -0.000976562, 0, -0.000976562, 0.00878906, 0.319336, -9.83008, 10.6.2021 14:1:21.801
429, 1.86732, 0.179729, -3.57155, -0.000976562, -0.000976562, 0.000976562, 0.015625, 0.320312, -9.8584, 10.6.2021 14:1:21.809
430, 1.86732, 0.179729, -3.57155, -0.000976562, 0, -0.000976562, 0.0439453, 0.348633, -9.84863, 10.6.2021 14:1:21.817
431, 1.8671, 0.17274, -3.57143, 0, 0, -0.000976562, 0.0439453, 0.354492, -9.86719, 10.6.2021 14:1:21.825
432, 1.87409, 0.172522, -3.57143, 0, -0.000976562, 0.000976562, 0.0849609, 0.327148, -9.84961, 10.6.2021 14:1:21.833
433, 1.87431, 0.179511, -3.57155, -0.000976562, 0, 0.000976562, 0.0351562, 0.310547, -9.84766, 10.6.2021 14:1:21.841
434, 1.87431, 0.179511, -3.57155, -0.000976562, 0, 0.000976562, 0.0419922, 0.283203, -9.82715, 10.6.2021 14:1:21.849
435, 1.87431, 0.179511, -3.57155, -0.000976562, 0, -0.00195312, 0.0322266, 0.305664, -9.83984, 10.6.2021 14:1:21.857
436, 1.87431, 0.179511, -3.57155, -0.000976562, -0.00195312, -0.000976562, 0.0488281, 0.291992, -9.86035, 10.6.2021 14:1:21.865
437, 1.87431, 0.179511, -3.57155, -0.000976562, -0.00195312, -0.000976562, 0.015625, 0.322266, -9.83691, 10.6.2021 14:1:21.873
438, 1.86732, 0.179729, -3.57155, 0, 0, -0.000976562, 0.0292969, 0.344727, -9.8584, 10.6.2021 14:1:21.881
439, 1.86732, 0.179729, -3.57155, 0, 0, -0.000976562, 0.0322266, 0.335938, -9.81348, 10.6.2021 14:1:21.889
440, 1.86732, 0.179729, -3.57155, 0, 0, -0.000976562, 0.0556641, 0.361328, -9.84863, 10.6.2021 14:1:21.897
441, 1.87431, 0.179511, -3.57155, 0, -0.000976562, 0.000976562, 0.0585938, 0.350586, -9.83691, 10.6.2021 14:1:21.905
442, 1.87453, 0.186501, -3.57166, -0.000976562, -0.000976562, -0.000976562, 0.0654297, 0.339844, -9.87012, 10.6.2021 14:1:21.913
443, 1.87453, 0.186501, -3.57166, -0.000976562, -0.000976562, -0.000976562, 0.0488281, 0.319336, -9.83789, 10.6.2021 14:1:21.921
444, 1.87453, 0.186501, -3.57166, 0, -0.000976562, -0.000976562, 0.0205078, 0.326172, -9.82715, 10.6.2021 14:1:21.929
445, 1.87453, 0.186501, -3.57166, -0.000976562, -0.000976562, -0.000976562, 0.0253906, 0.295898, -9.84082, 10.6.2021 14:1:21.937
446, 1.87453, 0.186501, -3.57166, -0.00195312, -0.000976562, 0, -0.0175781, 0.290039, -9.83301, 10.6.2021 14:1:21.945
447, 1.87453, 0.186501, -3.57166, -0.000976562, -0.00195312, -0.000976562, 0.0126953, 0.332031, -9.84375, 10.6.2021 14:1:21.953
448, 1.87453, 0.186501, -3.57166, 0, -0.00195312, -0.000976562, -0.0078125, 0.333008, -9.82715, 10.6.2021 14:1:21.961
449, 1.87453, 0.186501, -3.57166, -0.000976562, -0.000976562, -0.000976562, 0.0205078, 0.324219, -9.83008, 10.6.2021 14:1:21.969
450, 1.88151, 0.186283, -3.57166, 0, 0, -0.000976562, 0.0175781, 0.329102, -9.84668, 10.6.2021 14:1:21.977
451, 1.88151, 0.186283, -3.57166, 0, 0.000976562, 0, 0.0224609, 0.337891, -9.86719, 10.6.2021 14:1:21.985
452, 1.8813, 0.179294, -3.57155, 0, 0, 0, 0.046875, 0.329102, -9.83984, 10.6.2021 14:1:21.993
453, 1.8813, 0.179294, -3.57155, 0, -0.000976562, -0.000976562, 0.0322266, 0.34082, -9.8291, 10.6.2021 14:1:22.001
454, 1.8813, 0.179294, -3.57155, 0, 0, -0.000976562, 0.0449219, 0.307617, -9.82324, 10.6.2021 14:1:22.009
455, 1.8813, 0.179294, -3.57155, 0, 0, -0.000976562, 0.0185547, 0.292969, -9.84277, 10.6.2021 14:1:22.017
456, 1.8813, 0.179294, -3.57155, -0.000976562, 0, -0.000976562, 0.0205078, 0.297852, -9.83594, 10.6.2021 14:1:22.025
457, 1.8813, 0.179294, -3.57155, -0.000976562, 0, -0.00195312, -0.000976562, 0.288086, -9.82812, 10.6.2021 14:1:22.033
458, 1.87431, 0.179511, -3.57155, 0.000976562, 0.000976562, -0.000976562, 0.0126953, 0.338867, -9.85059, 10.6.2021 14:1:22.041
459, 1.87431, 0.179511, -3.57155, 0, 0, -0.000976562, -0.00585938, 0.345703, -9.83301, 10.6.2021 14:1:22.049
460, 1.87409, 0.172522, -3.57143, -0.000976562, 0, 0, -0.00878906, 0.373047, -9.85352, 10.6.2021 14:1:22.057
461, 1.88108, 0.172304, -3.57143, -0.000976562, 0, -0.000976562, 0.0302734, 0.345703, -9.83691, 10.6.2021 14:1:22.065
462, 1.88108, 0.172304, -3.57143, -0.000976562, -0.000976562, -0.000976562, 0.0302734, 0.355469, -9.8291, 10.6.2021 14:1:22.073
463, 1.88108, 0.172304, -3.57143, 0, -0.000976562, -0.000976562, 0.0273438, 0.330078, -9.86816, 10.6.2021 14:1:22.081
464, 1.88086, 0.165315, -3.57132, -0.00195312, 0, 0, 0.0107422, 0.308594, -9.8584, 10.6.2021 14:1:22.089
465, 1.88086, 0.165315, -3.57132, 0, 0, -0.000976562, 0.0185547, 0.286133, -9.84277, 10.6.2021 14:1:22.097
466, 1.88086, 0.165315, -3.57132, -0.000976562, -0.000976562, 0, 0.0253906, 0.261719, -9.83203, 10.6.2021 14:1:22.105
467, 1.88086, 0.165315, -3.57132, -0.000976562, -0.000976562, -0.000976562, 0.0234375, 0.285156, -9.81738, 10.6.2021 14:1:22.113
468, 1.88064, 0.158325, -3.5712, -0.000976562, 0, -0.000976562, 0.0107422, 0.305664, -9.86133, 10.6.2021 14:1:22.121
469, 1.88064, 0.158325, -3.5712, -0.000976562, 0, -0.00195312, 0.0322266, 0.335938, -9.8252, 10.6.2021 14:1:22.129
470, 1.88064, 0.158325, -3.5712, -0.000976562, -0.000976562, -0.000976562, 0.0371094, 0.356445, -9.79297, 10.6.2021 14:1:22.137
471, 1.88064, 0.158325, -3.5712, -0.000976562, 0, -0.000976562, 0.0302734, 0.354492, -9.80762, 10.6.2021 14:1:22.145
472, 1.88064, 0.158325, -3.5712, 0, -0.000976562, -0.000976562, 0.0322266, 0.322266, -9.83984, 10.6.2021 14:1:22.153
473, 1.88064, 0.158325, -3.5712, -0.000976562, -0.000976562, -0.000976562, 0.0390625, 0.322266, -9.85449, 10.6.2021 14:1:22.161
474, 1.88064, 0.158325, -3.5712, -0.000976562, -0.000976562, -0.000976562, 0.0419922, 0.293945, -9.8623, 10.6.2021 14:1:22.169
475, 1.88064, 0.158325, -3.5712, -0.000976562, 0, 0, 0.0332031, 0.291016, -9.82617, 10.6.2021 14:1:22.177
476, 1.87366, 0.158543, -3.5712, 0, -0.00195312, -0.000976562, 0.0273438, 0.277344, -9.85547, 10.6.2021 14:1:22.185
477, 1.87366, 0.158543, -3.5712, 0, -0.00195312, -0.000976562, 0.0126953, 0.320312, -9.84668, 10.6.2021 14:1:22.193
478, 1.87366, 0.158543, -3.5712, 0, 0, 0, 0.0224609, 0.319336, -9.83203, 10.6.2021 14:1:22.201
479, 1.87366, 0.158543, -3.5712, 0, 0, -0.000976562, 0.015625, 0.362305, -9.81934, 10.6.2021 14:1:22.209
480, 1.87366, 0.158543, -3.5712, 0, 0, 0, 0.0537109, 0.367188, -9.83398, 10.6.2021 14:1:22.217
481, 1.87366, 0.158543, -3.5712, 0, -0.000976562, -0.000976562, 0.0195312, 0.37793, -9.86133, 10.6.2021 14:1:22.225
482, 1.87366, 0.158543, -3.5712, 0, -0.000976562, -0.00195312, -0.0078125, 0.316406, -9.83008, 10.6.2021 14:1:22.233
483, 1.87366, 0.158543, -3.5712, 0, 0, -0.000976562, 0.0566406, 0.296875, -9.86523, 10.6.2021 14:1:22.241
484, 1.87366, 0.158543, -3.5712, 0, -0.000976562, -0.000976562, 0.0185547, 0.276367, -9.84766, 10.6.2021 14:1:22.249
485, 1.87366, 0.158543, -3.5712, 0.000976562, 0, -0.000976562, 0.0595703, 0.306641, -9.80957, 10.6.2021 14:1:22.257
486, 1.87366, 0.158543, -3.5712, 0, -0.000976562, 0, -0.000976562, 0.313477, -9.8584, 10.6.2021 14:1:22.265
487, 1.87366, 0.158543, -3.5712, -0.000976562, 0, 0, 0.0273438, 0.319336, -9.8418, 10.6.2021 14:1:22.273
488, 1.86667, 0.158761, -3.57121, -0.000976562, 0, -0.000976562, 0.000976562, 0.342773, -9.8125, 10.6.2021 14:1:22.281
489, 1.86667, 0.158761, -3.57121, 0, 0, -0.000976562, 0.00292969, 0.333984, -9.84863, 10.6.2021 14:1:22.289
490, 1.87344, 0.151554, -3.57109, 0, -0.000976562, 0, 0.0126953, 0.356445, -9.86719, 10.6.2021 14:1:22.297
491, 1.87344, 0.151554, -3.57109, -0.000976562, -0.000976562, 0, 0.0263672, 0.349609, -9.88672, 10.6.2021 14:1:22.305
492, 1.87344, 0.151554, -3.57109, -0.000976562, -0.000976562, -0.000976562, 0.0273438, 0.318359, -9.86133, 10.6.2021 14:1:22.313
493, 1.87344, 0.151554, -3.57109, 0, 0.000976562, 0.000976562, 0.0488281, 0.3125, -9.84473, 10.6.2021 14:1:22.321
494, 1.87344, 0.151554, -3.57109, 0, 0, -0.000976562, 0.0205078, 0.289062, -9.8457, 10.6.2021 14:1:22.329
495, 1.87344, 0.151554, -3.57109, -0.000976562, 0, -0.00195312, 0.0273438, 0.28418, -9.85547, 10.6.2021 14:1:22.337
496, 1.87344, 0.151554, -3.57109, -0.000976562, 0, -0.000976562, 0.0351562, 0.271484, -9.8291, 10.6.2021 14:1:22.345
497, 1.87344, 0.151554, -3.57109, -0.000976562, 0, -0.00195312, 0.0351562, 0.329102, -9.8252, 10.6.2021 14:1:22.353
498, 1.86645, 0.151771, -3.57109, -0.000976562, -0.000976562, 0, 0.0205078, 0.317383, -9.8418, 10.6.2021 14:1:22.361
499, 1.86645, 0.151771, -3.57109, 0, -0.000976562, -0.000976562, 0.015625, 0.347656, -9.83105, 10.6.2021 14:1:22.369
500, 1.86645, 0.151771, -3.57109, 0, 0, -0.000976562, -0.00390625, 0.348633, -9.84766, 10.6.2021 14:1:22.377
501, 1.86645, 0.151771, -3.57109, -0.000976562, 0, -0.000976562, 0.0126953, 0.334961, -9.85547, 10.6.2021 14:1:22.385
502, 1.86645, 0.151771, -3.57109, -0.000976562, 0, -0.000976562, 0.0517578, 0.331055, -9.83008, 10.6.2021 14:1:22.393
503, 1.86645, 0.151771, -3.57109, -0.000976562, -0.000976562, -0.000976562, -0.00292969, 0.302734, -9.77539, 10.6.2021 14:1:22.401
504, 1.86645, 0.151771, -3.57109, 0, -0.000976562, 0, 0.0400391, 0.291016, -9.85254, 10.6.2021 14:1:22.409
505, 1.86645, 0.151771, -3.57109, 0, -0.000976562, 0, 0.0224609, 0.293945, -9.87109, 10.6.2021 14:1:22.417
506, 1.86645, 0.151771, -3.57109, 0, -0.000976562, -0.000976562, 0.0371094, 0.290039, -9.82422, 10.6.2021 14:1:22.425
507, 1.86645, 0.151771, -3.57109, -0.000976562, -0.000976562, -0.000976562, 0.0185547, 0.302734, -9.82129, 10.6.2021 14:1:22.433
508, 1.85946, 0.151989, -3.57109, -0.000976562, -0.000976562, 0, 0.0107422, 0.302734, -9.83301, 10.6.2021 14:1:22.441
509, 1.85946, 0.151989, -3.57109, -0.000976562, -0.000976562, 0, 0.0419922, 0.334961, -9.86328, 10.6.2021 14:1:22.449
510, 1.85946, 0.151989, -3.57109, 0, 0, -0.000976562, 0.0400391, 0.333984, -9.83203, 10.6.2021 14:1:22.457
511, 1.85946, 0.151989, -3.57109, -0.000976562, 0, 0, 0.0253906, 0.345703, -9.83594, 10.6.2021 14:1:22.465
512, 1.85946, 0.151989, -3.57109, -0.000976562, -0.000976562, 0, 0.0488281, 0.330078, -9.84668, 10.6.2021 14:1:22.473
513, 1.85946, 0.151989, -3.57109, 0, 0, -0.000976562, 0.046875, 0.342773, -9.82227, 10.6.2021 14:1:22.481
514, 1.85946, 0.151989, -3.57109, 0, -0.000976562, 0, 0.0302734, 0.329102, -9.83008, 10.6.2021 14:1:22.489
515, 1.85946, 0.151989, -3.57109, -0.000976562, -0.00195312, -0.000976562, 0.0283203, 0.27832, -9.82227, 10.6.2021 14:1:22.497
516, 1.85946, 0.151989, -3.57109, 0, -0.00195312, 0, -0.00585938, 0.283203, -9.83105, 10.6.2021 14:1:22.505
517, 1.85946, 0.151989, -3.57109, 0.000976562, 0, -0.000976562, 0.0849609, 0.325195, -9.84277, 10.6.2021 14:1:22.513
518, 1.85946, 0.151989, -3.57109, 0, 0, 0, 0.0322266, 0.316406, -9.81836, 10.6.2021 14:1:22.521
519, 1.85968, 0.158978, -3.57121, 0.000976562, -0.000976562, 0, -0.00292969, 0.333008, -9.81738, 10.6.2021 14:1:22.529
520, 1.85968, 0.158978, -3.57121, 0, 0, -0.000976562, 0.078125, 0.34082, -9.81348, 10.6.2021 14:1:22.537
521, 1.85968, 0.158978, -3.57121, 0, -0.00195312, -0.000976562, 0.0732422, 0.314453, -9.82617, 10.6.2021 14:1:22.545
522, 1.85968, 0.158978, -3.57121, 0, -0.000976562, -0.000976562, 0.0878906, 0.314453, -9.8291, 10.6.2021 14:1:22.553
523, 1.85291, 0.166186, -3.57132, -0.000976562, -0.000976562, -0.00195312, 0.0419922, 0.311523, -9.86621, 10.6.2021 14:1:22.561
524, 1.85291, 0.166186, -3.57132, -0.000976562, -0.000976562, -0.000976562, 0.00390625, 0.303711, -9.85938, 10.6.2021 14:1:22.569
525, 1.85313, 0.173175, -3.57143, -0.000976562, 0, -0.000976562, 0.0351562, 0.299805, -9.82617, 10.6.2021 14:1:22.577
526, 1.85313, 0.173175, -3.57143, 0, -0.000976562, 0.000976562, 0.0615234, 0.27832, -9.82715, 10.6.2021 14:1:22.585
527, 1.85313, 0.173175, -3.57143, -0.000976562, -0.000976562, 0.000976562, 0.00390625, 0.314453, -9.83496, 10.6.2021 14:1:22.593
528, 1.85313, 0.173175, -3.57143, -0.000976562, 0, -0.000976562, 0.0195312, 0.311523, -9.87305, 10.6.2021 14:1:22.601
529, 1.85335, 0.180164, -3.57155, -0.000976562, 0, -0.00195312, 0.00878906, 0.338867, -9.8291, 10.6.2021 14:1:22.609
530, 1.85335, 0.180164, -3.57155, 0, 0.000976562, -0.000976562, 0.0585938, 0.350586, -9.83203, 10.6.2021 14:1:22.617
531, 1.85335, 0.180164, -3.57155, -0.000976562, -0.000976562, -0.000976562, 0.0634766, 0.335938, -9.81348, 10.6.2021 14:1:22.625
532, 1.85356, 0.187154, -3.57166, -0.000976562, -0.000976562, 0, 0.0585938, 0.342773, -9.81348, 10.6.2021 14:1:22.633
533, 1.85356, 0.187154, -3.57166, -0.000976562, -0.000976562, -0.000976562, 0.0546875, 0.30957, -9.81445, 10.6.2021 14:1:22.641
534, 1.85356, 0.187154, -3.57166, 0, -0.00195312, 0, 0.0556641, 0.313477, -9.85938, 10.6.2021 14:1:22.649
535, 1.85356, 0.187154, -3.57166, -0.000976562, -0.000976562, -0.000976562, 0.0322266, 0.293945, -9.85938, 10.6.2021 14:1:22.657
536, 1.85378, 0.194143, -3.57177, -0.000976562, -0.000976562, -0.000976562, 0.00195312, 0.310547, -9.79688, 10.6.2021 14:1:22.665
537, 1.85378, 0.194143, -3.57177, -0.000976562, -0.00195312, 0, -0.0585938, 0.293945, -9.87012, 10.6.2021 14:1:22.673
538, 1.85356, 0.187154, -3.57166, -0.000976562, -0.000976562, -0.000976562, -0.015625, 0.331055, -9.82227, 10.6.2021 14:1:22.681
539, 1.85356, 0.187154, -3.57166, 0, 0, 0, 0.0146484, 0.328125, -9.87988, 10.6.2021 14:1:22.689
540, 1.85356, 0.187154, -3.57166, 0, -0.000976562, 0, 0.0185547, 0.342773, -9.81934, 10.6.2021 14:1:22.697
541, 1.85356, 0.187154, -3.57166, 0, 0, -0.000976562, 0.0498047, 0.335938, -9.81055, 10.6.2021 14:1:22.705
542, 1.85356, 0.187154, -3.57166, 0, -0.000976562, -0.00292969, 0.0322266, 0.329102, -9.83691, 10.6.2021 14:1:22.713
543, 1.85356, 0.187154, -3.57166, 0, 0, -0.000976562, 0.0703125, 0.316406, -9.86719, 10.6.2021 14:1:22.721
544, 1.85356, 0.187154, -3.57166, 0, 0, -0.000976562, 0.0634766, 0.289062, -9.83887, 10.6.2021 14:1:22.729
545, 1.85356, 0.187154, -3.57166, 0, -0.000976562, -0.000976562, 0.00390625, 0.286133, -9.82812, 10.6.2021 14:1:22.737
546, 1.85356, 0.187154, -3.57166, 0, -0.000976562, -0.000976562, -0.0107422, 0.291016, -9.84473, 10.6.2021 14:1:22.743
547, 1.85356, 0.187154, -3.57166, -0.000976562, 0, -0.00195312, -0.0107422, 0.291016, -9.86133, 10.6.2021 14:1:22.751
548, 1.85335, 0.180164, -3.57155, -0.00195312, 0, 0, -0.0224609, 0.338867, -9.83594, 10.6.2021 14:1:22.759
549, 1.85335, 0.180164, -3.57155, -0.000976562, 0, -0.000976562, -0.00683594, 0.353516, -9.85938, 10.6.2021 14:1:22.767
550, 1.85335, 0.180164, -3.57155, 0, 0, -0.000976562, 0.0390625, 0.355469, -9.83105, 10.6.2021 14:1:22.775
551, 1.85313, 0.173175, -3.57143, 0, 0, -0.00195312, 0.0078125, 0.352539, -9.83301, 10.6.2021 14:1:22.783
552, 1.85313, 0.173175, -3.57143, -0.000976562, -0.000976562, -0.00195312, 0.0488281, 0.34375, -9.82715, 10.6.2021 14:1:22.791
553, 1.85313, 0.173175, -3.57143, -0.000976562, -0.000976562, -0.000976562, 0.0419922, 0.320312, -9.86621, 10.6.2021 14:1:22.799
554, 1.85313, 0.173175, -3.57143, 0, 0, -0.000976562, 0.0830078, 0.293945, -9.8584, 10.6.2021 14:1:22.807
555, 1.85313, 0.173175, -3.57143, 0, 0, -0.000976562, 0.0615234, 0.31543, -9.84961, 10.6.2021 14:1:22.815
556, 1.85313, 0.173062, -3.57841, 0, -0.000976562, -0.000976562, 0.0849609, 0.279297, -9.84863, 10.6.2021 14:1:22.823
557, 1.85313, 0.173062, -3.57841, 0, -0.000976562, -0.000976562, 0.0419922, 0.291016, -9.83887, 10.6.2021 14:1:22.831
558, 1.85335, 0.180052, -3.57852, -0.000976562, -0.00195312, 0, 0.0253906, 0.310547, -9.84961, 10.6.2021 14:1:22.839
559, 1.85335, 0.180164, -3.57155, -0.000976562, -0.000976562, 0, 0.0302734, 0.345703, -9.84082, 10.6.2021 14:1:22.847
560, 1.85335, 0.180164, -3.57155, -0.000976562, 0.000976562, -0.000976562, 0.0244141, 0.338867, -9.85352, 10.6.2021 14:1:22.855
561, 1.85335, 0.180164, -3.57155, 0, -0.000976562, -0.000976562, 0.0273438, 0.355469, -9.83105, 10.6.2021 14:1:22.863
562, 1.85335, 0.180052, -3.57852, 0, -0.000976562, -0.000976562, 0.0224609, 0.34082, -9.82715, 10.6.2021 14:1:22.871
563, 1.86033, 0.179834, -3.57852, -0.000976562, -0.000976562, -0.000976562, 0.0322266, 0.325195, -9.86133, 10.6.2021 14:1:22.879
564, 1.86033, 0.179834, -3.57852, -0.000976562, 0.000976562, 0, 0.0273438, 0.295898, -9.84766, 10.6.2021 14:1:22.887
565, 1.86055, 0.186936, -3.57166, -0.000976562, 0.000976562, 0, 0.046875, 0.297852, -9.83594, 10.6.2021 14:1:22.895
566, 1.86055, 0.186936, -3.57166, 0, 0.000976562, -0.000976562, 0.0136719, 0.288086, -9.84082, 10.6.2021 14:1:22.903
567, 1.86055, 0.186823, -3.57864, 0, -0.000976562, -0.000976562, 0.0205078, 0.302734, -9.83496, 10.6.2021 14:1:22.911
568, 1.85356, 0.187041, -3.57864, 0, -0.000976562, -0.000976562, 0.0273438, 0.3125, -9.83008, 10.6.2021 14:1:22.919
569, 1.85356, 0.187041, -3.57864, 0, -0.00195312, -0.000976562, 0.0439453, 0.34668, -9.8418, 10.6.2021 14:1:22.927
570, 1.85356, 0.187041, -3.57864, 0, -0.000976562, -0.000976562, 0.015625, 0.333984, -9.8252, 10.6.2021 14:1:22.935
571, 1.85356, 0.187041, -3.57864, -0.000976562, 0, -0.000976562, 0.0273438, 0.349609, -9.8623, 10.6.2021 14:1:22.943
572, 1.86055, 0.186823, -3.57864, -0.000976562, -0.000976562, -0.000976562, 0.0126953, 0.327148, -9.86328, 10.6.2021 14:1:22.951
573, 1.86055, 0.186823, -3.57864, -0.000976562, -0.000976562, -0.000976562, 0.0273438, 0.325195, -9.85645, 10.6.2021 14:1:22.959
574, 1.86033, 0.179834, -3.57852, 0, -0.00195312, -0.000976562, 0.0224609, 0.317383, -9.85156, 10.6.2021 14:1:22.967
575, 1.86033, 0.179834, -3.57852, 0.000976562, -0.000976562, -0.000976562, 0.0566406, 0.308594, -9.85254, 10.6.2021 14:1:22.975
576, 1.86033, 0.179834, -3.57852, -0.000976562, 0, 0.000976562, 0.0117188, 0.295898, -9.78809, 10.6.2021 14:1:22.983
577, 1.86033, 0.179834, -3.57852, -0.00195312, -0.000976562, 0.000976562, 0.0078125, 0.329102, -9.8457, 10.6.2021 14:1:22.991
578, 1.86033, 0.179834, -3.57852, -0.000976562, 0, -0.000976562, 0.0273438, 0.326172, -9.82324, 10.6.2021 14:1:22.999
579, 1.86033, 0.179834, -3.57852, 0, -0.000976562, -0.000976562, 0.00292969, 0.353516, -9.8457, 10.6.2021 14:1:23.007
580, 1.86033, 0.179834, -3.57852, -0.000976562, 0, -0.00195312, 0.0253906, 0.334961, -9.85059, 10.6.2021 14:1:23.015
581, 1.86732, 0.179615, -3.57852, -0.000976562, -0.000976562, -0.000976562, 0.0341797, 0.338867, -9.85059, 10.6.2021 14:1:23.023
582, 1.86732, 0.179615, -3.57852, 0, -0.000976562, -0.000976562, 0.0273438, 0.351562, -9.87207, 10.6.2021 14:1:23.031
583, 1.8671, 0.172626, -3.57841, 0, -0.000976562, -0.000976562, 0.046875, 0.31543, -9.85645, 10.6.2021 14:1:23.039
584, 1.8671, 0.172626, -3.57841, 0, -0.00195312, -0.000976562, 0.0371094, 0.330078, -9.84668, 10.6.2021 14:1:23.047
585, 1.8671, 0.172626, -3.57841, -0.000976562, -0.000976562, 0.000976562, 0.00390625, 0.276367, -9.83789, 10.6.2021 14:1:23.055
586, 1.8671, 0.172626, -3.57841, 0, -0.000976562, -0.000976562, 0.0117188, 0.292969, -9.82129, 10.6.2021 14:1:23.063
587, 1.8671, 0.172626, -3.57841, 0, 0, -0.000976562, 0.0234375, 0.28418, -9.83887, 10.6.2021 14:1:23.071
588, 1.8671, 0.172626, -3.57841, 0, -0.000976562, -0.000976562, -0.0078125, 0.307617, -9.83984, 10.6.2021 14:1:23.079
589, 1.86688, 0.165637, -3.5783, -0.000976562, -0.000976562, -0.000976562, 0.0195312, 0.34668, -9.85742, 10.6.2021 14:1:23.087
590, 1.86688, 0.165637, -3.5783, -0.000976562, -0.000976562, -0.000976562, -0.00390625, 0.354492, -9.81934, 10.6.2021 14:1:23.095
591, 1.86688, 0.165637, -3.5783, -0.000976562, 0, -0.000976562, 0.0390625, 0.332031, -9.8418, 10.6.2021 14:1:23.103
592, 1.86688, 0.165637, -3.5783, -0.000976562, 0, 0.000976562, 0.0654297, 0.318359, -9.84961, 10.6.2021 14:1:23.111
593, 1.86688, 0.165637, -3.5783, -0.000976562, -0.000976562, -0.000976562, 0.0400391, 0.294922, -9.81934, 10.6.2021 14:1:23.119
594, 1.86688, 0.165637, -3.5783, 0, -0.000976562, -0.00195312, 0.0585938, 0.294922, -9.87012, 10.6.2021 14:1:23.127
595, 1.86688, 0.165637, -3.5783, 0, -0.00195312, -0.000976562, 0.0322266, 0.3125, -9.82812, 10.6.2021 14:1:23.135
596, 1.86688, 0.165637, -3.5783, 0, -0.000976562, 0, 0.0205078, 0.291016, -9.8457, 10.6.2021 14:1:23.143
597, 1.86667, 0.158647, -3.57818, -0.000976562, -0.00195312, 0, -0.0205078, 0.313477, -9.86523, 10.6.2021 14:1:23.151
598, 1.86667, 0.158647, -3.57818, -0.000976562, -0.000976562, -0.000976562, -0.0253906, 0.324219, -9.83887, 10.6.2021 14:1:23.159
599, 1.85968, 0.158865, -3.57818, 0, -0.000976562, -0.000976562, -0.00390625, 0.324219, -9.8457, 10.6.2021 14:1:23.167
600, 1.85946, 0.151876, -3.57807, -0.000976562, -0.000976562, -0.000976562, -0.0332031, 0.344727, -9.87598, 10.6.2021 14:1:23.175
601, 1.85946, 0.151876, -3.57807, 0, 0, -0.000976562, 0.00390625, 0.342773, -9.83105, 10.6.2021 14:1:23.183
602, 1.85946, 0.151876, -3.57807, 0, -0.000976562, -0.000976562, 0.0683594, 0.30957, -9.82422, 10.6.2021 14:1:23.191
603, 1.85924, 0.144886, -3.57796, -0.000976562, -0.000976562, -0.000976562, 0.0244141, 0.308594, -9.87109, 10.6.2021 14:1:23.199
604, 1.85924, 0.144886, -3.57796, -0.000976562, -0.000976562, -0.00195312, 0.0126953, 0.310547, -9.8584, 10.6.2021 14:1:23.207
605, 1.85924, 0.144886, -3.57796, -0.000976562, 0, -0.000976562, 0.0351562, 0.283203, -9.8125, 10.6.2021 14:1:23.215
606, 1.85924, 0.144886, -3.57796, -0.000976562, -0.000976562, -0.000976562, -0.00390625, 0.3125, -9.85352, 10.6.2021 14:1:23.223
607, 1.85903, 0.137897, -3.57785, 0, -0.00195312, -0.000976562, 0.0126953, 0.306641, -9.8877, 10.6.2021 14:1:23.231
608, 1.85903, 0.137897, -3.57785, 0, -0.000976562, -0.000976562, -0.00390625, 0.300781, -9.8418, 10.6.2021 14:1:23.239
609, 1.85903, 0.137897, -3.57785, -0.000976562, -0.000976562, -0.00195312, -0.000976562, 0.331055, -9.83887, 10.6.2021 14:1:23.247
610, 1.85182, 0.131126, -3.57774, -0.000976562, 0, -0.000976562, -0.000976562, 0.331055, -9.8291, 10.6.2021 14:1:23.255
611, 1.85182, 0.131126, -3.57774, -0.000976562, -0.000976562, -0.000976562, 0.0400391, 0.319336, -9.81836, 10.6.2021 14:1:23.263
612, 1.85182, 0.131126, -3.57774, -0.000976562, -0.000976562, -0.000976562, 0.0566406, 0.329102, -9.82812, 10.6.2021 14:1:23.271
613, 1.85182, 0.131126, -3.57774, -0.000976562, -0.000976562, -0.000976562, 0.0800781, 0.322266, -9.83301, 10.6.2021 14:1:23.279
614, 1.85182, 0.131126, -3.57774, 0, -0.00195312, 0, 0.0419922, 0.307617, -9.83301, 10.6.2021 14:1:23.287
615, 1.85182, 0.131126, -3.57774, 0, -0.000976562, -0.000976562, 0.0488281, 0.298828, -9.85059, 10.6.2021 14:1:23.295
616, 1.85182, 0.131126, -3.57774, 0, -0.000976562, -0.000976562, 0.0107422, 0.292969, -9.82812, 10.6.2021 14:1:23.303
617, 1.85182, 0.131126, -3.57774, 0, 0, 0, 0.0302734, 0.282227, -9.80762, 10.6.2021 14:1:23.311
618, 1.84505, 0.138333, -3.57785, 0, 0.00195312, 0.000976562, 0.0185547, 0.290039, -9.80762, 10.6.2021 14:1:23.319
619, 1.84505, 0.138333, -3.57785, -0.000976562, 0, -0.000976562, 0.0107422, 0.318359, -9.86816, 10.6.2021 14:1:23.327
620, 1.84505, 0.138333, -3.57785, -0.000976562, -0.000976562, -0.00195312, 0.0439453, 0.329102, -9.83203, 10.6.2021 14:1:23.335
621, 1.84505, 0.138333, -3.57785, 0, -0.000976562, -0.00195312, 0.0566406, 0.333984, -9.82812, 10.6.2021 14:1:23.343
622, 1.84505, 0.138333, -3.57785, -0.000976562, 0, -0.00195312, 0.0537109, 0.329102, -9.8418, 10.6.2021 14:1:23.351
623, 1.84527, 0.145323, -3.57796, -0.000976562, -0.000976562, -0.000976562, 0.0546875, 0.331055, -9.81348, 10.6.2021 14:1:23.359
624, 1.84527, 0.145323, -3.57796, -0.000976562, -0.000976562, 0, 0.0185547, 0.294922, -9.83105, 10.6.2021 14:1:23.367
625, 1.83828, 0.145541, -3.57796, 0, 0, -0.000976562, 0.0283203, 0.297852, -9.82812, 10.6.2021 14:1:23.375
626, 1.8385, 0.15253, -3.57808, -0.000976562, -0.000976562, 0, 0.0332031, 0.273438, -9.82422, 10.6.2021 14:1:23.383
627, 1.8385, 0.15253, -3.57808, -0.000976562, -0.000976562, -0.000976562, 0.00390625, 0.293945, -9.84766, 10.6.2021 14:1:23.391
628, 1.8385, 0.15253, -3.57808, -0.000976562, 0, -0.000976562, 0.0126953, 0.318359, -9.86523, 10.6.2021 14:1:23.399
629, 1.8385, 0.15253, -3.57808, 0, 0, -0.00195312, 0.0439453, 0.34668, -9.84863, 10.6.2021 14:1:23.407
630, 1.8385, 0.15253, -3.57808, 0, -0.000976562, -0.000976562, 0.0126953, 0.328125, -9.86523, 10.6.2021 14:1:23.415
631, 1.8385, 0.15253, -3.57808, 0, -0.000976562, 0, 0.0439453, 0.375, -9.84961, 10.6.2021 14:1:23.423
632, 1.83872, 0.15952, -3.57819, 0, -0.000976562, -0.000976562, 0.0566406, 0.326172, -9.80859, 10.6.2021 14:1:23.431
633, 1.83872, 0.15952, -3.57819, 0, -0.00195312, -0.000976562, 0.0253906, 0.31543, -9.85449, 10.6.2021 14:1:23.439
634, 1.83872, 0.15952, -3.57819, -0.000976562, -0.00195312, -0.000976562, 0.015625, 0.297852, -9.83301, 10.6.2021 14:1:23.447
635, 1.83872, 0.15952, -3.57819, 0, -0.000976562, -0.00195312, 0.00292969, 0.291992, -9.87109, 10.6.2021 14:1:23.455
636, 1.83872, 0.15952, -3.57819, 0, 0, -0.00195312, -0.0273438, 0.292969, -9.85156, 10.6.2021 14:1:23.463
637, 1.83173, 0.159738, -3.57819, -0.000976562, -0.000976562, -0.00195312, 0.00390625, 0.289062, -9.86426, 10.6.2021 14:1:23.471
638, 1.83151, 0.152748, -3.57808, 0, -0.000976562, -0.000976562, 0.00390625, 0.304688, -9.82324, 10.6.2021 14:1:23.479
639, 1.83151, 0.152748, -3.57808, 0, -0.000976562, -0.000976562, 0.00390625, 0.297852, -9.83301, 10.6.2021 14:1:23.487
640, 1.83151, 0.152748, -3.57808, -0.000976562, -0.000976562, -0.000976562, 0.00488281, 0.321289, -9.88672, 10.6.2021 14:1:23.495
641, 1.83151, 0.152748, -3.57808, -0.00195312, 0, 0.000976562, 0.0107422, 0.333008, -9.87012, 10.6.2021 14:1:23.503
642, 1.83129, 0.145759, -3.57796, 0, -0.000976562, 0.000976562, 0.0371094, 0.329102, -9.83984, 10.6.2021 14:1:23.511
643, 1.83129, 0.145759, -3.57796, 0, -0.000976562, 0.000976562, 0.0439453, 0.320312, -9.85449, 10.6.2021 14:1:23.519
644, 1.83129, 0.145759, -3.57796, -0.000976562, -0.00195312, -0.000976562, 0.0400391, 0.299805, -9.80957, 10.6.2021 14:1:23.527
645, 1.83129, 0.145759, -3.57796, 0, 0, 0, 0.00878906, 0.28418, -9.85254, 10.6.2021 14:1:23.535
646, 1.82431, 0.145977, -3.57797, 0, 0, 0, -0.0400391, 0.287109, -9.87305, 10.6.2021 14:1:23.543
647, 1.82431, 0.145977, -3.57797, 0, 0, 0, 0.0273438, 0.28125, -9.90332, 10.6.2021 14:1:23.551
648, 1.82409, 0.138988, -3.57786, -0.000976562, 0, 0, -0.000976562, 0.324219, -9.84375, 10.6.2021 14:1:23.559
649, 1.82409, 0.138988, -3.57786, 0, 0, 0, 0.00390625, 0.338867, -9.84375, 10.6.2021 14:1:23.567
650, 1.82409, 0.138988, -3.57786, -0.000976562, 0.000976562, 0, 0.0205078, 0.360352, -9.82617, 10.6.2021 14:1:23.575
651, 1.82409, 0.138988, -3.57786, -0.000976562, 0, 0, 0.0439453, 0.356445, -9.8457, 10.6.2021 14:1:23.583
652, 1.82409, 0.138988, -3.57786, 0, 0, 0, 0.0126953, 0.336914, -9.85352, 10.6.2021 14:1:23.591
653, 1.82409, 0.138988, -3.57786, -0.000976562, -0.000976562, -0.00195312, 0.0566406, 0.3125, -9.83105, 10.6.2021 14:1:23.599
654, 1.82387, 0.131998, -3.57774, 0, -0.000976562, -0.000976562, 0.0439453, 0.296875, -9.85547, 10.6.2021 14:1:23.607
655, 1.82409, 0.138988, -3.57786, 0, 0, 0, 0.0205078, 0.279297, -9.85059, 10.6.2021 14:1:23.615
656, 1.82409, 0.138988, -3.57786, 0, -0.000976562, -0.000976562, 0.0205078, 0.300781, -9.86133, 10.6.2021 14:1:23.623
657, 1.82387, 0.131998, -3.57774, 0, -0.000976562, -0.000976562, 0.0224609, 0.287109, -9.8623, 10.6.2021 14:1:23.631
658, 1.82409, 0.138988, -3.57786, 0, 0, 0, 0.0205078, 0.313477, -9.86133, 10.6.2021 14:1:23.639
659, 1.82387, 0.131998, -3.57774, 0, 0, 0.000976562, -0.0136719, 0.369141, -9.82031, 10.6.2021 14:1:23.647
660, 1.82387, 0.131998, -3.57774, 0, 0, 0, -0.00878906, 0.382812, -9.86035, 10.6.2021 14:1:23.655
661, 1.83086, 0.13178, -3.57774, 0, 0, 0.000976562, 0.00976562, 0.399414, -9.86523, 10.6.2021 14:1:23.663
662, 1.83086, 0.13178, -3.57774, 0, 0, 0, 0.0634766, 0.333008, -9.86621, 10.6.2021 14:1:23.671
663, 1.83086, 0.13178, -3.57774, 0, 0, 0, 0.0419922, 0.302734, -9.81641, 10.6.2021 14:1:23.679
664, 1.83785, 0.131562, -3.57774, 0, 0, 0.000976562, 0.0488281, 0.311523, -9.87109, 10.6.2021 14:1:23.687
665, 1.83785, 0.131562, -3.57774, 0, -0.000976562, -0.000976562, -0.00585938, 0.291016, -9.83301, 10.6.2021 14:1:23.695
666, 1.83785, 0.131562, -3.57774, 0, 0, 0.000976562, 0.0449219, 0.300781, -9.83105, 10.6.2021 14:1:23.703
667, 1.83806, 0.138551, -3.57785, -0.000976562, 0.000976562, 0.000976562, 0.0185547, 0.319336, -9.82031, 10.6.2021 14:1:23.711
668, 1.83806, 0.138551, -3.57785, 0, 0.000976562, 0.000976562, 0.00585938, 0.333008, -9.82227, 10.6.2021 14:1:23.719
669, 1.84505, 0.138333, -3.57785, -0.000976562, -0.000976562, -0.00195312, 0.0253906, 0.324219, -9.81836, 10.6.2021 14:1:23.727
670, 1.84505, 0.138333, -3.57785, -0.000976562, -0.000976562, -0.000976562, 0.0273438, 0.319336, -9.82812, 10.6.2021 14:1:23.735
671, 1.84505, 0.138333, -3.57785, -0.00195312, 0, -0.000976562, 0.0556641, 0.34668, -9.84375, 10.6.2021 14:1:23.743
672, 1.84505, 0.138333, -3.57785, -0.000976562, -0.000976562, -0.000976562, 0.0488281, 0.302734, -9.90234, 10.6.2021 14:1:23.751
673, 1.85204, 0.138115, -3.57785, -0.000976562, -0.000976562, -0.000976562, 0.0566406, 0.291992, -9.85059, 10.6.2021 14:1:23.759
674, 1.85204, 0.138115, -3.57785, -0.000976562, -0.00195312, -0.000976562, 0.0185547, 0.302734, -9.83301, 10.6.2021 14:1:23.767
675, 1.85226, 0.145105, -3.57796, -0.000976562, 0, 0.000976562, 0.0419922, 0.28125, -9.82715, 10.6.2021 14:1:23.775
676, 1.84527, 0.145323, -3.57796, 0, 0, -0.000976562, 0.0537109, 0.308594, -9.85742, 10.6.2021 14:1:23.783
677, 1.84527, 0.145323, -3.57796, 0, -0.000976562, -0.00195312, 0.0351562, 0.322266, -9.83008, 10.6.2021 14:1:23.791
678, 1.84527, 0.145323, -3.57796, 0.000976562, 0, -0.000976562, -0.000976562, 0.319336, -9.83008, 10.6.2021 14:1:23.799
679, 1.84549, 0.152312, -3.57807, 0, 0, -0.000976562, 0.0253906, 0.34375, -9.83887, 10.6.2021 14:1:23.807
680, 1.84549, 0.152312, -3.57807, 0, -0.000976562, 0, 0.0292969, 0.356445, -9.86426, 10.6.2021 14:1:23.815
681, 1.84549, 0.152312, -3.57807, -0.000976562, -0.000976562, -0.000976562, 0.0371094, 0.353516, -9.85742, 10.6.2021 14:1:23.823
682, 1.85247, 0.152094, -3.57807, -0.000976562, 0, -0.00195312, 0.0273438, 0.339844, -9.85352, 10.6.2021 14:1:23.831
683, 1.85247, 0.152094, -3.57807, -0.000976562, -0.000976562, -0.000976562, 0.015625, 0.324219, -9.83496, 10.6.2021 14:1:23.839
684, 1.85247, 0.152094, -3.57807, 0, 0, 0.000976562, 0.0351562, 0.319336, -9.83496, 10.6.2021 14:1:23.847
685, 1.85247, 0.152094, -3.57807, 0.000976562, -0.000976562, -0.000976562, 0.015625, 0.267578, -9.85352, 10.6.2021 14:1:23.855
686, 1.85247, 0.152094, -3.57807, -0.000976562, 0, -0.000976562, -0.0078125, 0.27832, -9.81934, 10.6.2021 14:1:23.861
687, 1.85247, 0.152094, -3.57807, -0.000976562, -0.000976562, -0.000976562, -0.00390625, 0.314453, -9.83496, 10.6.2021 14:1:23.869
688, 1.85247, 0.152094, -3.57807, -0.000976562, 0, -0.00195312, -0.0107422, 0.34375, -9.8457, 10.6.2021 14:1:23.877
689, 1.85247, 0.152094, -3.57807, -0.000976562, -0.000976562, -0.000976562, 0.0107422, 0.353516, -9.85938, 10.6.2021 14:1:23.885
690, 1.85946, 0.151876, -3.57807, 0, 0, -0.000976562, 0.0322266, 0.327148, -9.84473, 10.6.2021 14:1:23.893
691, 1.85946, 0.151876, -3.57807, 0, 0, 0.000976562, 0.0390625, 0.357422, -9.88184, 10.6.2021 14:1:23.901
692, 1.85946, 0.151876, -3.57807, -0.000976562, -0.000976562, -0.000976562, 0.0322266, 0.356445, -9.84766, 10.6.2021 14:1:23.909
693, 1.85946, 0.151876, -3.57807, 0, -0.000976562, -0.000976562, 0.0351562, 0.348633, -9.83398, 10.6.2021 14:1:23.917
694, 1.86623, 0.144668, -3.57796, -0.000976562, -0.000976562, -0.000976562, 0.0351562, 0.288086, -9.83398, 10.6.2021 14:1:23.925
695, 1.86623, 0.144668, -3.57796, -0.000976562, -0.000976562, -0.000976562, 0.00585938, 0.319336, -9.8252, 10.6.2021 14:1:23.933
696, 1.86623, 0.144668, -3.57796, -0.000976562, 0, -0.000976562, -0.00878906, 0.272461, -9.86426, 10.6.2021 14:1:23.941
697, 1.86623, 0.144668, -3.57796, -0.000976562, 0, -0.000976562, 0.000976562, 0.285156, -9.88086, 10.6.2021 14:1:23.949
698, 1.86623, 0.144668, -3.57796, 0, -0.000976562, -0.000976562, -0.0078125, 0.321289, -9.8252, 10.6.2021 14:1:23.957
699, 1.86623, 0.144668, -3.57796, 0, -0.000976562, -0.000976562, 0.0234375, 0.334961, -9.79883, 10.6.2021 14:1:23.965
700, 1.86601, 0.137679, -3.57784, 0, 0, -0.000976562, 0.0224609, 0.342773, -9.82227, 10.6.2021 14:1:23.973
701, 1.86601, 0.137679, -3.57784, -0.000976562, 0, -0.000976562, 0.0322266, 0.356445, -9.85059, 10.6.2021 14:1:23.981
702, 1.86601, 0.137679, -3.57784, -0.000976562, 0, -0.000976562, 0.0664062, 0.34082, -9.8252, 10.6.2021 14:1:23.989
703, 1.86601, 0.137679, -3.57784, -0.000976562, -0.000976562, -0.000976562, 0.0546875, 0.316406, -9.7998, 10.6.2021 14:1:23.997
704, 1.86601, 0.137679, -3.57784, 0, 0, -0.000976562, 0.0419922, 0.300781, -9.83594, 10.6.2021 14:1:24.005
705, 1.86623, 0.144668, -3.57796, 0, -0.000976562, 0, 0.0429688, 0.280273, -9.80078, 10.6.2021 14:1:24.013
706, 1.86623, 0.144668, -3.57796, 0, 0, 0.000976562, 0.0332031, 0.299805, -9.81934, 10.6.2021 14:1:24.021
707, 1.86623, 0.144668, -3.57796, 0, -0.000976562, -0.000976562, 0.0292969, 0.311523, -9.86621, 10.6.2021 14:1:24.029
708, 1.86623, 0.144668, -3.57796, 0, -0.000976562, 0, -0.00390625, 0.333984, -9.83887, 10.6.2021 14:1:24.037
709, 1.86623, 0.144668, -3.57796, -0.000976562, -0.000976562, -0.000976562, 0.0302734, 0.328125, -9.81543, 10.6.2021 14:1:24.045
710, 1.86623, 0.144668, -3.57796, -0.000976562, -0.000976562, -0.00292969, 0.0253906, 0.310547, -9.85449, 10.6.2021 14:1:24.053
711, 1.86623, 0.144668, -3.57796, -0.000976562, 0, -0.00195312, 0.0869141, 0.339844, -9.85645, 10.6.2021 14:1:24.061
712, 1.86645, 0.151658, -3.57807, -0.00195312, 0, 0.000976562, 0.0605469, 0.335938, -9.90137, 10.6.2021 14:1:24.069
713, 1.86645, 0.151658, -3.57807, -0.000976562, 0, -0.000976562, 0.0605469, 0.306641, -9.86426, 10.6.2021 14:1:24.077
714, 1.86645, 0.151658, -3.57807, 0, -0.000976562, -0.000976562, 0.0351562, 0.345703, -9.82715, 10.6.2021 14:1:24.085
715, 1.86667, 0.158647, -3.57818, 0, -0.000976562, -0.000976562, 0.0273438, 0.301758, -9.88281, 10.6.2021 14:1:24.093
716, 1.86667, 0.158647, -3.57818, 0, -0.000976562, 0, 0.0292969, 0.308594, -9.86914, 10.6.2021 14:1:24.101
717, 1.86667, 0.158647, -3.57818, -0.000976562, 0, 0.000976562, 0.0107422, 0.319336, -9.83984, 10.6.2021 14:1:24.109
718, 1.86688, 0.165637, -3.5783, -0.000976562, 0, 0.000976562, 0.00878906, 0.329102, -9.83887, 10.6.2021 14:1:24.117
719, 1.86688, 0.165637, -3.5783, 0, -0.00195312, 0, 0.0224609, 0.337891, -9.82422, 10.6.2021 14:1:24.125
720, 1.86689, 0.16575, -3.57132, 0, 0, -0.000976562, 0.0400391, 0.335938, -9.82227, 10.6.2021 14:1:24.133
721, 1.86688, 0.165637, -3.5783, 0, 0, -0.00195312, 0.0488281, 0.375, -9.84277, 10.6.2021 14:1:24.141
722, 1.86688, 0.165637, -3.5783, 0, -0.000976562, -0.000976562, 0.0585938, 0.357422, -9.8125, 10.6.2021 14:1:24.149
723, 1.87409, 0.172408, -3.57841, 0, -0.000976562, 0, 0.0683594, 0.341797, -9.83984, 10.6.2021 14:1:24.157
724, 1.87409, 0.172522, -3.57143, 0, -0.000976562, 0, 0.0566406, 0.30957, -9.82617, 10.6.2021 14:1:24.165
725, 1.87409, 0.172522, -3.57143, -0.000976562, -0.000976562, -0.000976562, 0.0351562, 0.28418, -9.84375, 10.6.2021 14:1:24.173
726, 1.87431, 0.179511, -3.57155, -0.000976562, -0.000976562, -0.000976562, 0.00683594, 0.310547, -9.79199, 10.6.2021 14:1:24.181
727, 1.87431, 0.179511, -3.57155, 0, -0.000976562, 0, 0.015625, 0.317383, -9.83691, 10.6.2021 14:1:24.189
728, 1.87431, 0.179511, -3.57155, -0.000976562, 0, -0.000976562, -0.000976562, 0.324219, -9.8291, 10.6.2021 14:1:24.197
729, 1.87431, 0.179511, -3.57155, -0.000976562, 0, -0.000976562, 0.00390625, 0.348633, -9.83594, 10.6.2021 14:1:24.205
730, 1.8813, 0.179294, -3.57155, 0, 0, -0.00195312, -0.000976562, 0.34375, -9.84766, 10.6.2021 14:1:24.213
731, 1.8813, 0.179294, -3.57155, 0, -0.000976562, -0.000976562, 0.0107422, 0.353516, -9.83594, 10.6.2021 14:1:24.221
732, 1.8813, 0.179294, -3.57155, 0, -0.000976562, -0.000976562, 0.0439453, 0.310547, -9.85938, 10.6.2021 14:1:24.229
733, 1.8813, 0.179294, -3.57155, -0.000976562, -0.000976562, -0.000976562, 0.0488281, 0.317383, -9.84277, 10.6.2021 14:1:24.237
734, 1.88108, 0.172304, -3.57143, -0.000976562, -0.00195312, 0, 0.00585938, 0.297852, -9.83496, 10.6.2021 14:1:24.245
735, 1.88108, 0.172304, -3.57143, -0.000976562, -0.000976562, -0.000976562, 0.0439453, 0.285156, -9.86523, 10.6.2021 14:1:24.253
736, 1.88108, 0.172304, -3.57143, -0.000976562, -0.000976562, -0.00195312, -0.000976562, 0.279297, -9.8457, 10.6.2021 14:1:24.261
737, 1.88108, 0.17219, -3.57841, 0, -0.000976562, 0, 0.0205078, 0.259766, -9.83691, 10.6.2021 14:1:24.269
738, 1.87409, 0.172522, -3.57143, -0.000976562, -0.000976562, 0, 0.0107422, 0.300781, -9.85938, 10.6.2021 14:1:24.277
739, 1.87409, 0.172522, -3.57143, -0.000976562, -0.000976562, 0, -0.00195312, 0.341797, -9.85059, 10.6.2021 14:1:24.285
740, 1.87387, 0.165532, -3.57132, 0, 0, 0, -0.00585938, 0.335938, -9.84375, 10.6.2021 14:1:24.293
741, 1.87387, 0.165532, -3.57132, 0, -0.000976562, 0, 0.0273438, 0.345703, -9.81543, 10.6.2021 14:1:24.301
742, 1.87387, 0.165532, -3.57132, 0, -0.000976562, -0.000976562, 0.0400391, 0.34375, -9.82715, 10.6.2021 14:1:24.309
743, 1.87387, 0.165532, -3.57132, 0, -0.000976562, -0.000976562, 0.0351562, 0.321289, -9.81543, 10.6.2021 14:1:24.317
744, 1.86667, 0.158761, -3.57121, 0, -0.000976562, -0.000976562, 0.0234375, 0.287109, -9.80957, 10.6.2021 14:1:24.325
745, 1.86667, 0.158761, -3.57121, 0, -0.000976562, -0.000976562, 0.0371094, 0.295898, -9.83789, 10.6.2021 14:1:24.333
746, 1.86667, 0.158761, -3.57121, 0, -0.000976562, -0.000976562, 0.0380859, 0.291992, -9.80469, 10.6.2021 14:1:24.341
747, 1.86667, 0.158761, -3.57121, -0.000976562, -0.000976562, 0, 0.0380859, 0.290039, -9.82129, 10.6.2021 14:1:24.349
748, 1.85968, 0.158978, -3.57121, -0.000976562, -0.000976562, 0, 0.00585938, 0.30957, -9.83496, 10.6.2021 14:1:24.357
749, 1.85968, 0.158978, -3.57121, -0.000976562, -0.000976562, 0, -0.00390625, 0.354492, -9.87598, 10.6.2021 14:1:24.365
750, 1.85968, 0.158978, -3.57121, -0.000976562, -0.000976562, 0, 0.0292969, 0.323242, -9.8584, 10.6.2021 14:1:24.373
751, 1.85946, 0.151989, -3.57109, 0, -0.00195312, -0.000976562, 0.0253906, 0.37207, -9.82129, 10.6.2021 14:1:24.381
752, 1.85946, 0.151989, -3.57109, 0.000976562, -0.000976562, -0.000976562, 0.0371094, 0.326172, -9.87305, 10.6.2021 14:1:24.389
753, 1.85946, 0.151989, -3.57109, -0.000976562, -0.000976562, -0.000976562, -0.0136719, 0.310547, -9.84668, 10.6.2021 14:1:24.397
754, 1.85946, 0.151989, -3.57109, -0.000976562, 0, -0.000976562, 0.015625, 0.272461, -9.86719, 10.6.2021 14:1:24.405
755, 1.85946, 0.151989, -3.57109, -0.000976562, 0, -0.000976562, 0.0253906, 0.300781, -9.85254, 10.6.2021 14:1:24.413
756, 1.85946, 0.151989, -3.57109, -0.000976562, -0.000976562, -0.000976562, 0.00390625, 0.305664, -9.8584, 10.6.2021 14:1:24.421
757, 1.85925, 0.145, -3.57098, 0, -0.000976562, 0, 0.00585938, 0.326172, -9.82227, 10.6.2021 14:1:24.429
758, 1.85925, 0.145, -3.57098, 0, 0, -0.000976562, 0.00878906, 0.323242, -9.7959, 10.6.2021 14:1:24.437
759, 1.85226, 0.145217, -3.57098, 0, 0, -0.00195312, -0.000976562, 0.311523, -9.81543, 10.6.2021 14:1:24.445
760, 1.85226, 0.145217, -3.57098, 0, -0.000976562, -0.00195312, 0.0371094, 0.333984, -9.8418, 10.6.2021 14:1:24.453
761, 1.85204, 0.138228, -3.57087, 0, -0.00195312, -0.000976562, 0.0488281, 0.349609, -9.86523, 10.6.2021 14:1:24.461
762, 1.85204, 0.138228, -3.57087, 0, -0.000976562, -0.000976562, 0.0419922, 0.316406, -9.86621, 10.6.2021 14:1:24.469
763, 1.85204, 0.138228, -3.57087, 0, -0.000976562, -0.000976562, 0.0859375, 0.292969, -9.81738, 10.6.2021 14:1:24.477
764, 1.85226, 0.145217, -3.57098, 0, 0.000976562, -0.00195312, 0.0742188, 0.288086, -9.8125, 10.6.2021 14:1:24.485
765, 1.85226, 0.145105, -3.57796, -0.000976562, -0.00195312, -0.000976562, 0.0488281, 0.286133, -9.8457, 10.6.2021 14:1:24.493
766, 1.85226, 0.145105, -3.57796, -0.000976562, -0.000976562, -0.000976562, 0.0185547, 0.289062, -9.84766, 10.6.2021 14:1:24.501
767, 1.84527, 0.145323, -3.57796, -0.000976562, -0.000976562, 0, 0.0458984, 0.294922, -9.89551, 10.6.2021 14:1:24.509
768, 1.84549, 0.152424, -3.5711, -0.000976562, -0.000976562, -0.000976562, 0.0244141, 0.34375, -9.85352, 10.6.2021 14:1:24.517
769, 1.84549, 0.152312, -3.57807, -0.000976562, 0.000976562, -0.00195312, 0.0224609, 0.338867, -9.83203, 10.6.2021 14:1:24.525
770, 1.84549, 0.152312, -3.57807, -0.000976562, -0.000976562, -0.000976562, 0.0175781, 0.345703, -9.83887, 10.6.2021 14:1:24.533
771, 1.84549, 0.152312, -3.57807, 0, 0, 0, 0.0351562, 0.34375, -9.83203, 10.6.2021 14:1:24.541
772, 1.84571, 0.159302, -3.57819, 0, -0.000976562, 0, 0.0439453, 0.320312, -9.84668, 10.6.2021 14:1:24.549
773, 1.84571, 0.159414, -3.57121, -0.000976562, -0.000976562, 0, 0.0332031, 0.333008, -9.80566, 10.6.2021 14:1:24.557
774, 1.84571, 0.159414, -3.57121, -0.000976562, -0.000976562, 0, 0.0644531, 0.291992, -9.78906, 10.6.2021 14:1:24.565
775, 1.84592, 0.166403, -3.57132, 0, 0.000976562, -0.000976562, 0.0419922, 0.300781, -9.83594, 10.6.2021 14:1:24.573
776, 1.84592, 0.166403, -3.57132, 0, -0.000976562, -0.000976562, 0.0537109, 0.3125, -9.82812, 10.6.2021 14:1:24.581
777, 1.84592, 0.166403, -3.57132, -0.000976562, -0.00195312, 0, 0.0283203, 0.299805, -9.83105, 10.6.2021 14:1:24.589
778, 1.84592, 0.166403, -3.57132, -0.000976562, -0.000976562, -0.000976562, 0.0205078, 0.314453, -9.83691, 10.6.2021 14:1:24.597
779, 1.84614, 0.173393, -3.57143, -0.000976562, -0.000976562, -0.00195312, -0.00585938, 0.322266, -9.83691, 10.6.2021 14:1:24.605
780, 1.84614, 0.173393, -3.57143, -0.000976562, 0.000976562, -0.000976562, 0.0195312, 0.341797, -9.86523, 10.6.2021 14:1:24.613
781, 1.84614, 0.173393, -3.57143, -0.000976562, 0.000976562, -0.00195312, 0.0517578, 0.338867, -9.83496, 10.6.2021 14:1:24.621
782, 1.84614, 0.17328, -3.57841, -0.000976562, 0.000976562, -0.00195312, 0.078125, 0.311523, -9.8623, 10.6.2021 14:1:24.629
783, 1.84636, 0.18027, -3.57852, 0, -0.000976562, -0.000976562, 0.046875, 0.322266, -9.84473, 10.6.2021 14:1:24.637
784, 1.84636, 0.18027, -3.57852, -0.000976562, 0, 0, 0.0683594, 0.322266, -9.84277, 10.6.2021 14:1:24.645
785, 1.84636, 0.18027, -3.57852, -0.000976562, -0.000976562, -0.000976562, 0.0537109, 0.306641, -9.85938, 10.6.2021 14:1:24.653
786, 1.84658, 0.187259, -3.57863, 0, -0.000976562, 0, 0.0400391, 0.291016, -9.84082, 10.6.2021 14:1:24.661
787, 1.84658, 0.187372, -3.57166, 0, -0.000976562, 0, 0.015625, 0.31543, -9.86133, 10.6.2021 14:1:24.669
788, 1.84658, 0.187372, -3.57166, 0.000976562, 0.000976562, -0.000976562, 0.0107422, 0.322266, -9.84863, 10.6.2021 14:1:24.677
789, 1.84679, 0.194361, -3.57177, 0, 0.000976562, -0.000976562, 0.0136719, 0.293945, -9.84766, 10.6.2021 14:1:24.685
790, 1.84679, 0.194361, -3.57177, 0, 0, 0, 0.00878906, 0.335938, -9.82227, 10.6.2021 14:1:24.693
791, 1.84679, 0.194361, -3.57177, -0.000976562, -0.000976562, -0.000976562, 0.0078125, 0.338867, -9.84863, 10.6.2021 14:1:24.701
792, 1.84679, 0.194361, -3.57177, -0.000976562, -0.000976562, 0, 0.00292969, 0.347656, -9.87695, 10.6.2021 14:1:24.709
793, 1.84679, 0.194361, -3.57177, -0.000976562, 0.000976562, -0.000976562, 0.0742188, 0.308594, -9.7959, 10.6.2021 14:1:24.717
794, 1.84679, 0.194361, -3.57177, 0, 0, -0.00195312, 0.0546875, 0.314453, -9.80957, 10.6.2021 14:1:24.725
795, 1.8468, 0.194249, -3.57875, -0.000976562, -0.000976562, -0.000976562, 0.0322266, 0.297852, -9.82812, 10.6.2021 14:1:24.733
796, 1.8468, 0.194249, -3.57875, -0.000976562, 0, -0.000976562, 0.00585938, 0.3125, -9.83203, 10.6.2021 14:1:24.741
797, 1.8468, 0.194249, -3.57875, -0.000976562, -0.000976562, -0.000976562, -0.00292969, 0.288086, -9.83789, 10.6.2021 14:1:24.749
798, 1.8468, 0.194249, -3.57875, -0.000976562, -0.000976562, -0.000976562, 0.00390625, 0.288086, -9.83594, 10.6.2021 14:1:24.757
799, 1.84658, 0.187259, -3.57863, -0.00195312, -0.000976562, -0.000976562, -0.0195312, 0.330078, -9.80762, 10.6.2021 14:1:24.765
800, 1.84658, 0.187259, -3.57863, -0.000976562, 0, -0.000976562, 0.0292969, 0.365234, -9.84766, 10.6.2021 14:1:24.773
801, 1.84658, 0.187259, -3.57863, 0, 0, 0, 0.0585938, 0.320312, -9.84766, 10.6.2021 14:1:24.781
802, 1.84658, 0.187259, -3.57863, 0, -0.000976562, -0.000976562, 0.0605469, 0.337891, -9.87793, 10.6.2021 14:1:24.789
803, 1.84658, 0.187259, -3.57863, 0.000976562, -0.000976562, -0.000976562, 0.0712891, 0.297852, -9.83203, 10.6.2021 14:1:24.797
804, 1.84658, 0.187259, -3.57863, 0, 0, -0.000976562, 0.0449219, 0.30957, -9.81445, 10.6.2021 14:1:24.805
805, 1.84658, 0.187259, -3.57863, 0, -0.000976562, -0.000976562, 0.0117188, 0.306641, -9.80664, 10.6.2021 14:1:24.813
806, 1.84658, 0.187259, -3.57863, 0, -0.000976562, -0.000976562, 0.00390625, 0.294922, -9.83105, 10.6.2021 14:1:24.821
807, 1.84658, 0.187259, -3.57863, 0, 0, -0.000976562, -0.00488281, 0.296875, -9.80371, 10.6.2021 14:1:24.829
808, 1.84658, 0.187259, -3.57863, 0, 0, -0.000976562, -0.00292969, 0.320312, -9.79883, 10.6.2021 14:1:24.837
809, 1.84636, 0.18027, -3.57852, 0.000976562, 0, -0.000976562, -0.0351562, 0.338867, -9.8623, 10.6.2021 14:1:24.845
810, 1.84636, 0.18027, -3.57852, -0.000976562, 0, -0.000976562, 0, 0.367188, -9.89258, 10.6.2021 14:1:24.853
811, 1.84614, 0.17328, -3.57841, -0.000976562, -0.000976562, -0.00195312, 0.0322266, 0.34668, -9.86719, 10.6.2021 14:1:24.861
812, 1.84614, 0.17328, -3.57841, 0, 0, -0.000976562, 0.0205078, 0.330078, -9.8584, 10.6.2021 14:1:24.869
813, 1.84614, 0.17328, -3.57841, 0, 0, 0, 0.015625, 0.324219, -9.8252, 10.6.2021 14:1:24.877
814, 1.84592, 0.166291, -3.5783, 0, 0, 0, 0.0283203, 0.296875, -9.81445, 10.6.2021 14:1:24.885
815, 1.84592, 0.166291, -3.5783, 0, -0.00195312, -0.000976562, 0.0205078, 0.3125, -9.83301, 10.6.2021 14:1:24.893
816, 1.84592, 0.166291, -3.5783, 0, -0.000976562, 0, 0.0107422, 0.272461, -9.85547, 10.6.2021 14:1:24.901
817, 1.84571, 0.159302, -3.57819, -0.000976562, -0.000976562, -0.000976562, 0.0185547, 0.306641, -9.81836, 10.6.2021 14:1:24.909
818, 1.84571, 0.159302, -3.57819, 0, -0.000976562, 0, -0.000976562, 0.329102, -9.85059, 10.6.2021 14:1:24.917
819, 1.84571, 0.159302, -3.57819, -0.000976562, -0.000976562, -0.000976562, 0.0195312, 0.356445, -9.87207, 10.6.2021 14:1:24.925
820, 1.85247, 0.152094, -3.57807, -0.000976562, -0.000976562, -0.000976562, 0.0126953, 0.351562, -9.85938, 10.6.2021 14:1:24.933
821, 1.85247, 0.152094, -3.57807, 0, 0, -0.000976562, 0.0605469, 0.348633, -9.8418, 10.6.2021 14:1:24.941
822, 1.85247, 0.152094, -3.57807, 0, -0.000976562, -0.000976562, 0.0439453, 0.332031, -9.83496, 10.6.2021 14:1:24.949
823, 1.85247, 0.152094, -3.57807, -0.000976562, -0.000976562, 0, 0.0371094, 0.34375, -9.84863, 10.6.2021 14:1:24.957
824, 1.85247, 0.152094, -3.57807, 0, 0, 0, 0.046875, 0.286133, -9.84375, 10.6.2021 14:1:24.965
825, 1.85946, 0.151876, -3.57807, 0, 0, -0.000976562, 0.0517578, 0.291016, -9.82715, 10.6.2021 14:1:24.973
826, 1.85247, 0.152094, -3.57807, -0.000976562, 0, 0, 0.0615234, 0.267578, -9.85352, 10.6.2021 14:1:24.981
827, 1.85248, 0.152207, -3.5711, -0.000976562, 0, -0.000976562, 0.0371094, 0.273438, -9.875, 10.6.2021 14:1:24.987
828, 1.85269, 0.159083, -3.57819, -0.000976562, 0, -0.000976562, 0.00878906, 0.286133, -9.83301, 10.6.2021 14:1:24.995
829, 1.85269, 0.159083, -3.57819, -0.000976562, -0.000976562, -0.000976562, 0.0292969, 0.325195, -9.86133, 10.6.2021 14:1:25.003
830, 1.85269, 0.159083, -3.57819, 0, 0, -0.000976562, 0.0371094, 0.341797, -9.84863, 10.6.2021 14:1:25.011
831, 1.85269, 0.159083, -3.57819, 0, 0, -0.000976562, 0.0371094, 0.349609, -9.86523, 10.6.2021 14:1:25.019
832, 1.85269, 0.159083, -3.57819, -0.000976562, -0.000976562, -0.000976562, 0.0195312, 0.339844, -9.8584, 10.6.2021 14:1:25.027
833, 1.85269, 0.159083, -3.57819, -0.000976562, -0.000976562, -0.000976562, 0.0419922, 0.332031, -9.83496, 10.6.2021 14:1:25.035
834, 1.85269, 0.159083, -3.57819, -0.000976562, -0.000976562, -0.000976562, 0.0136719, 0.310547, -9.84473, 10.6.2021 14:1:25.043
835, 1.85291, 0.166073, -3.5783, -0.000976562, 0, 0, 0.0449219, 0.271484, -9.83008, 10.6.2021 14:1:25.051
836, 1.85291, 0.166073, -3.5783, -0.000976562, 0, -0.000976562, 0.00585938, 0.304688, -9.83301, 10.6.2021 14:1:25.059
837, 1.85291, 0.166073, -3.5783, -0.000976562, 0, -0.000976562, 0.00585938, 0.302734, -9.83008, 10.6.2021 14:1:25.067
838, 1.84592, 0.166291, -3.5783, 0, 0, -0.000976562, 0.0205078, 0.323242, -9.80371, 10.6.2021 14:1:25.075
839, 1.84592, 0.166291, -3.5783, 0, 0, -0.000976562, 0.0419922, 0.326172, -9.82812, 10.6.2021 14:1:25.083
840, 1.84592, 0.166291, -3.5783, 0, 0, 0, 0.0078125, 0.376953, -9.83008, 10.6.2021 14:1:25.091
841, 1.85291, 0.166073, -3.5783, -0.000976562, -0.000976562, 0, 0.0390625, 0.384766, -9.86133, 10.6.2021 14:1:25.099
842, 1.85291, 0.166186, -3.57132, 0, -0.000976562, -0.000976562, 0.0419922, 0.341797, -9.83887, 10.6.2021 14:1:25.107
843, 1.85291, 0.166073, -3.5783, 0, -0.000976562, -0.000976562, 0.0351562, 0.295898, -9.83594, 10.6.2021 14:1:25.115
844, 1.85291, 0.166073, -3.5783, 0, -0.000976562, -0.000976562, 0.0273438, 0.30957, -9.88086, 10.6.2021 14:1:25.123
845, 1.85291, 0.166073, -3.5783, 0, 0, -0.000976562, 0.0283203, 0.301758, -9.81641, 10.6.2021 14:1:25.131
846, 1.85291, 0.166073, -3.5783, 0, -0.000976562, 0, 0.0107422, 0.285156, -9.87402, 10.6.2021 14:1:25.139
847, 1.85291, 0.166186, -3.57132, -0.000976562, 0, 0, 0.0107422, 0.297852, -9.84766, 10.6.2021 14:1:25.147
848, 1.85291, 0.166186, -3.57132, 0, 0, -0.000976562, 0.00878906, 0.329102, -9.8291, 10.6.2021 14:1:25.155
849, 1.85291, 0.166186, -3.57132, 0, 0, -0.000976562, 0.0126953, 0.34375, -9.85742, 10.6.2021 14:1:25.163
850, 1.85291, 0.166186, -3.57132, 0, -0.000976562, -0.000976562, 0.0273438, 0.351562, -9.85547, 10.6.2021 14:1:25.171
851, 1.8599, 0.165855, -3.5783, -0.000976562, 0, -0.000976562, 0.0371094, 0.310547, -9.84277, 10.6.2021 14:1:25.179
852, 1.85968, 0.158865, -3.57818, -0.000976562, -0.000976562, -0.000976562, 0.0136719, 0.322266, -9.83984, 10.6.2021 14:1:25.187
853, 1.85968, 0.158865, -3.57818, -0.00195312, 0, -0.000976562, 0.0371094, 0.286133, -9.85059, 10.6.2021 14:1:25.195
854, 1.85968, 0.158865, -3.57818, -0.000976562, -0.000976562, -0.00195312, 0.015625, 0.298828, -9.86426, 10.6.2021 14:1:25.203
855, 1.85968, 0.158865, -3.57818, 0, -0.000976562, -0.000976562, 0.00390625, 0.271484, -9.83398, 10.6.2021 14:1:25.211
856, 1.85269, 0.159083, -3.57819, -0.000976562, -0.000976562, -0.000976562, 0.0332031, 0.273438, -9.82031, 10.6.2021 14:1:25.219
857, 1.85269, 0.159083, -3.57819, -0.000976562, 0, -0.000976562, 0.00195312, 0.277344, -9.80762, 10.6.2021 14:1:25.227
858, 1.85269, 0.159083, -3.57819, 0, -0.000976562, -0.000976562, -0.00195312, 0.325195, -9.8584, 10.6.2021 14:1:25.235
859, 1.84549, 0.152312, -3.57807, -0.000976562, -0.000976562, -0.000976562, 0.0273438, 0.336914, -9.85352, 10.6.2021 14:1:25.243
860, 1.84549, 0.152312, -3.57807, -0.000976562, 0, -0.000976562, 0.015625, 0.348633, -9.84766, 10.6.2021 14:1:25.251
861, 1.84549, 0.152312, -3.57807, -0.000976562, 0, -0.000976562, 0.0322266, 0.331055, -9.87988, 10.6.2021 14:1:25.259
862, 1.84549, 0.152312, -3.57807, -0.000976562, -0.000976562, -0.000976562, 0.0205078, 0.30957, -9.81641, 10.6.2021 14:1:25.267
863, 1.84549, 0.152312, -3.57807, 0, -0.000976562, -0.000976562, 0.0371094, 0.303711, -9.86426, 10.6.2021 14:1:25.275
864, 1.84549, 0.152312, -3.57807, 0, 0.000976562, 0.000976562, 0.0566406, 0.290039, -9.81934, 10.6.2021 14:1:25.283
865, 1.84549, 0.152312, -3.57807, -0.000976562, 0, 0, 0.0390625, 0.300781, -9.85449, 10.6.2021 14:1:25.291
866, 1.8385, 0.15253, -3.57808, 0, -0.000976562, -0.000976562, 0.0205078, 0.293945, -9.85938, 10.6.2021 14:1:25.299
867, 1.8385, 0.15253, -3.57808, 0, -0.000976562, -0.00195312, -0.0107422, 0.30957, -9.82227, 10.6.2021 14:1:25.307
868, 1.83828, 0.145541, -3.57796, 0, -0.00195312, 0, -0.00390625, 0.335938, -9.83594, 10.6.2021 14:1:25.315
869, 1.83828, 0.145541, -3.57796, -0.000976562, 0, -0.000976562, 0.00878906, 0.333008, -9.80078, 10.6.2021 14:1:25.323
870, 1.83828, 0.145541, -3.57796, 0, -0.000976562, 0, -0.0146484, 0.334961, -9.80078, 10.6.2021 14:1:25.331
871, 1.83828, 0.145541, -3.57796, 0, -0.000976562, 0, 0.0078125, 0.341797, -9.85742, 10.6.2021 14:1:25.339
872, 1.83806, 0.138551, -3.57785, 0, -0.000976562, -0.000976562, 0.00585938, 0.311523, -9.875, 10.6.2021 14:1:25.347
873, 1.83806, 0.138551, -3.57785, -0.000976562, -0.000976562, -0.00195312, 0.0195312, 0.308594, -9.87793, 10.6.2021 14:1:25.355
874, 1.83806, 0.138551, -3.57785, 0, 0, -0.00195312, 0.0673828, 0.310547, -9.90234, 10.6.2021 14:1:25.363
875, 1.83806, 0.138551, -3.57785, 0, 0, 0, 0.0341797, 0.291992, -9.86719, 10.6.2021 14:1:25.371
876, 1.83806, 0.138551, -3.57785, -0.000976562, -0.000976562, 0.00195312, 0.0185547, 0.295898, -9.83301, 10.6.2021 14:1:25.379
877, 1.83108, 0.13877, -3.57785, 0, -0.000976562, 0, 0.046875, 0.3125, -9.83301, 10.6.2021 14:1:25.387
878, 1.83108, 0.138881, -3.57088, 0, -0.000976562, 0, 0.0224609, 0.317383, -9.83691, 10.6.2021 14:1:25.395
879, 1.83108, 0.138881, -3.57088, 0, 0, -0.000976562, -0.000976562, 0.316406, -9.81348, 10.6.2021 14:1:25.403
880, 1.83108, 0.138881, -3.57088, 0, 0, -0.000976562, 0.0302734, 0.34375, -9.8291, 10.6.2021 14:1:25.411
881, 1.83108, 0.138881, -3.57088, -0.000976562, -0.000976562, -0.000976562, 0.0224609, 0.342773, -9.82422, 10.6.2021 14:1:25.419
882, 1.83108, 0.13877, -3.57785, -0.000976562, -0.000976562, -0.00195312, 0.0292969, 0.34082, -9.89355, 10.6.2021 14:1:25.427
883, 1.83806, 0.138551, -3.57785, -0.000976562, 0, -0.000976562, 0.0439453, 0.3125, -9.84473, 10.6.2021 14:1:25.435
884, 1.83806, 0.138551, -3.57785, 0, 0, -0.000976562, 0.0478516, 0.277344, -9.80078, 10.6.2021 14:1:25.443
885, 1.83806, 0.138551, -3.57785, 0, 0.000976562, -0.000976562, 0.0185547, 0.30957, -9.83496, 10.6.2021 14:1:25.451
886, 1.83806, 0.138551, -3.57785, -0.000976562, 0, -0.000976562, 0.0253906, 0.298828, -9.85449, 10.6.2021 14:1:25.459
887, 1.83108, 0.13877, -3.57785, 0, -0.000976562, -0.000976562, -0.00390625, 0.316406, -9.83008, 10.6.2021 14:1:25.467
888, 1.83108, 0.13877, -3.57785, 0, 0, 0, -0.0322266, 0.331055, -9.82617, 10.6.2021 14:1:25.475
889, 1.83108, 0.13877, -3.57785, 0, 0, -0.000976562, 0.0273438, 0.350586, -9.82422, 10.6.2021 14:1:25.483
890, 1.83806, 0.138551, -3.57785, 0, -0.000976562, -0.000976562, 0.0175781, 0.338867, -9.8457, 10.6.2021 14:1:25.491
891, 1.83806, 0.138551, -3.57785, 0, -0.000976562, -0.000976562, 0.0400391, 0.347656, -9.82422, 10.6.2021 14:1:25.499
892, 1.83806, 0.138551, -3.57785, 0, -0.00195312, -0.000976562, 0.0224609, 0.336914, -9.83887, 10.6.2021 14:1:25.507
893, 1.83806, 0.138551, -3.57785, -0.000976562, -0.000976562, -0.000976562, 0.0634766, 0.3125, -9.84277, 10.6.2021 14:1:25.515
894, 1.84505, 0.138333, -3.57785, -0.000976562, -0.000976562, 0, 0.0449219, 0.3125, -9.82324, 10.6.2021 14:1:25.523
895, 1.84505, 0.138333, -3.57785, 0, -0.000976562, -0.000976562, 0.0136719, 0.294922, -9.82129, 10.6.2021 14:1:25.531
896, 1.84505, 0.138333, -3.57785, -0.000976562, -0.000976562, -0.00195312, -0.00390625, 0.291992, -9.86426, 10.6.2021 14:1:25.539
897, 1.84505, 0.138333, -3.57785, 0, -0.000976562, -0.000976562, 0.00390625, 0.264648, -9.8457, 10.6.2021 14:1:25.547
898, 1.84505, 0.138333, -3.57785, -0.000976562, 0, -0.000976562, 0.0302734, 0.31543, -9.85449, 10.6.2021 14:1:25.555
899, 1.84505, 0.138333, -3.57785, -0.000976562, -0.000976562, -0.000976562, 0.0126953, 0.360352, -9.84766, 10.6.2021 14:1:25.563
900, 1.84483, 0.131344, -3.57774, 0, -0.000976562, 0, -0.00292969, 0.331055, -9.82227, 10.6.2021 14:1:25.571
901, 1.84483, 0.131344, -3.57774, 0, 0, 0, 0.0292969, 0.334961, -9.87012, 10.6.2021 14:1:25.579
902, 1.84483, 0.131344, -3.57774, 0, 0, -0.000976562, 0.0683594, 0.344727, -9.85645, 10.6.2021 14:1:25.587
903, 1.84505, 0.138333, -3.57785, 0, 0, 0, 0.0751953, 0.27832, -9.86816, 10.6.2021 14:1:25.595
904, 1.84505, 0.138333, -3.57785, 0, 0.000976562, 0, 0.046875, 0.305664, -9.85449, 10.6.2021 14:1:25.603
905, 1.84505, 0.138333, -3.57785, -0.000976562, 0, -0.000976562, 0.00878906, 0.28125, -9.83594, 10.6.2021 14:1:25.611
906, 1.84505, 0.138446, -3.57087, -0.000976562, -0.000976562, 0, 0.00878906, 0.286133, -9.8457, 10.6.2021 14:1:25.619
907, 1.83807, 0.138663, -3.57087, -0.000976562, -0.000976562, -0.000976562, 0.0224609, 0.288086, -9.89746, 10.6.2021 14:1:25.627
908, 1.83807, 0.138663, -3.57087, 0, -0.000976562, -0.000976562, 0.0136719, 0.307617, -9.8418, 10.6.2021 14:1:25.635
909, 1.83807, 0.138663, -3.57087, 0, -0.000976562, -0.000976562, 0.0126953, 0.355469, -9.83105, 10.6.2021 14:1:25.643
910, 1.83828, 0.145541, -3.57796, 0, -0.000976562, -0.000976562, 0.0419922, 0.332031, -9.84473, 10.6.2021 14:1:25.651
911, 1.83828, 0.145541, -3.57796, -0.000976562, -0.000976562, -0.000976562, 0.0400391, 0.347656, -9.82031, 10.6.2021 14:1:25.659
912, 1.83828, 0.145541, -3.57796, -0.000976562, 0, -0.000976562, 0.0830078, 0.336914, -9.83496, 10.6.2021 14:1:25.667
913, 1.83828, 0.145541, -3.57796, 0, 0, -0.000976562, 0.0517578, 0.322266, -9.85156, 10.6.2021 14:1:25.675
914, 1.8385, 0.15253, -3.57808, -0.000976562, -0.000976562, -0.000976562, 0.0371094, 0.332031, -9.85352, 10.6.2021 14:1:25.683
915, 1.84549, 0.152312, -3.57807, -0.000976562, -0.000976562, -0.000976562, 0.0351562, 0.311523, -9.81348, 10.6.2021 14:1:25.691
916, 1.84549, 0.152312, -3.57807, -0.000976562, -0.000976562, -0.000976562, 0.00390625, 0.301758, -9.82324, 10.6.2021 14:1:25.699
917, 1.84549, 0.152312, -3.57807, 0, -0.000976562, -0.000976562, 0.00195312, 0.271484, -9.83594, 10.6.2021 14:1:25.707
918, 1.84549, 0.152312, -3.57807, 0, -0.000976562, -0.000976562, 0.00878906, 0.323242, -9.81543, 10.6.2021 14:1:25.715
919, 1.84549, 0.152312, -3.57807, 0, -0.000976562, -0.000976562, 0.00878906, 0.336914, -9.78418, 10.6.2021 14:1:25.723
920, 1.84549, 0.152312, -3.57807, -0.000976562, -0.000976562, -0.000976562, 0.0273438, 0.345703, -9.83887, 10.6.2021 14:1:25.731
921, 1.84549, 0.152312, -3.57807, 0, -0.000976562, -0.00195312, 0.0654297, 0.34375, -9.84668, 10.6.2021 14:1:25.739
922, 1.84549, 0.152312, -3.57807, 0, -0.000976562, -0.00195312, 0.0273438, 0.323242, -9.87012, 10.6.2021 14:1:25.747
923, 1.84549, 0.152312, -3.57807, 0, 0, -0.000976562, 0.000976562, 0.270508, -9.87207, 10.6.2021 14:1:25.755
924, 1.84549, 0.152312, -3.57807, 0, 0, -0.000976562, 0.0205078, 0.307617, -9.83008, 10.6.2021 14:1:25.763
925, 1.84571, 0.159302, -3.57819, 0, 0, -0.00195312, 0.015625, 0.293945, -9.86426, 10.6.2021 14:1:25.771
926, 1.84571, 0.159302, -3.57819, 0, 0, -0.000976562, 0.000976562, 0.320312, -9.85156, 10.6.2021 14:1:25.779
927, 1.84549, 0.152312, -3.57807, 0, -0.000976562, -0.000976562, 0.00585938, 0.305664, -9.83984, 10.6.2021 14:1:25.787
928, 1.84549, 0.152312, -3.57807, 0, 0, -0.000976562, 0.0107422, 0.316406, -9.82715, 10.6.2021 14:1:25.795
929, 1.84549, 0.152312, -3.57807, 0, -0.000976562, -0.000976562, 0.0253906, 0.352539, -9.80957, 10.6.2021 14:1:25.803
930, 1.84549, 0.152312, -3.57807, 0, -0.000976562, -0.00195312, 0.0517578, 0.361328, -9.79102, 10.6.2021 14:1:25.811
931, 1.84549, 0.152312, -3.57807, -0.000976562, 0, -0.000976562, 0.0449219, 0.326172, -9.81836, 10.6.2021 14:1:25.819
932, 1.84549, 0.152312, -3.57807, 0, -0.000976562, -0.000976562, 0.0273438, 0.326172, -9.83203, 10.6.2021 14:1:25.827
933, 1.84549, 0.152312, -3.57807, 0, -0.000976562, 0, 0.0371094, 0.330078, -9.84668, 10.6.2021 14:1:25.835
934, 1.84549, 0.152312, -3.57807, 0, 0.000976562, -0.000976562, 0.0371094, 0.291016, -9.83594, 10.6.2021 14:1:25.843
935, 1.84549, 0.152312, -3.57807, 0, 0, -0.000976562, 0.015625, 0.31543, -9.84668, 10.6.2021 14:1:25.851
936, 1.84549, 0.152312, -3.57807, 0, -0.000976562, 0, 0.00390625, 0.292969, -9.84473, 10.6.2021 14:1:25.859
937, 1.84549, 0.152312, -3.57807, 0, 0, -0.000976562, -0.00390625, 0.295898, -9.84277, 10.6.2021 14:1:25.867
938, 1.84549, 0.152312, -3.57807, -0.000976562, -0.000976562, -0.00195312, 0.00878906, 0.335938, -9.82227, 10.6.2021 14:1:25.875
939, 1.84549, 0.152312, -3.57807, 0, 0, -0.000976562, 0.015625, 0.334961, -9.85352, 10.6.2021 14:1:25.883
940, 1.84549, 0.152312, -3.57807, -0.000976562, 0, -0.000976562, 0.015625, 0.317383, -9.83691, 10.6.2021 14:1:25.891
941, 1.85247, 0.152094, -3.57807, 0, -0.000976562, -0.000976562, 0.0175781, 0.355469, -9.82129, 10.6.2021 14:1:25.899
942, 1.85247, 0.152094, -3.57807, 0, -0.00195312, -0.000976562, 0.0585938, 0.303711, -9.85059, 10.6.2021 14:1:25.907
943, 1.85247, 0.152094, -3.57807, -0.000976562, 0, -0.000976562, 0.078125, 0.311523, -9.85742, 10.6.2021 14:1:25.915
944, 1.85247, 0.152094, -3.57807, -0.000976562, -0.000976562, -0.000976562, 0.0517578, 0.310547, -9.83301, 10.6.2021 14:1:25.923
945, 1.85247, 0.152094, -3.57807, 0, -0.000976562, -0.000976562, 0.0302734, 0.310547, -9.84277, 10.6.2021 14:1:25.931
946, 1.85247, 0.152094, -3.57807, 0, -0.000976562, 0, 0.0322266, 0.311523, -9.8877, 10.6.2021 14:1:25.939
947, 1.85247, 0.152094, -3.57807, 0, -0.000976562, -0.000976562, 0.0302734, 0.319336, -9.8418, 10.6.2021 14:1:25.947
948, 1.85269, 0.159083, -3.57819, -0.000976562, 0, -0.000976562, 0.000976562, 0.338867, -9.84082, 10.6.2021 14:1:25.955
949, 1.85269, 0.159083, -3.57819, -0.00195312, 0.000976562, -0.000976562, -0.015625, 0.34375, -9.85938, 10.6.2021 14:1:25.963
950, 1.85269, 0.159083, -3.57819, -0.000976562, -0.000976562, 0, 0.00585938, 0.338867, -9.84082, 10.6.2021 14:1:25.971
951, 1.85269, 0.159083, -3.57819, -0.000976562, -0.000976562, -0.000976562, 0.0566406, 0.324219, -9.81641, 10.6.2021 14:1:25.979
952, 1.85269, 0.159083, -3.57819, 0, 0, -0.000976562, 0.0556641, 0.306641, -9.87109, 10.6.2021 14:1:25.987
953, 1.85269, 0.159083, -3.57819, -0.000976562, 0, -0.000976562, 0.0107422, 0.30957, -9.8252, 10.6.2021 14:1:25.995
954, 1.85269, 0.159083, -3.57819, 0, -0.000976562, -0.00195312, 0.0351562, 0.286133, -9.84766, 10.6.2021 14:1:26.003
955, 1.85269, 0.159083, -3.57819, 0, -0.000976562, -0.000976562, 0.0419922, 0.304688, -9.87402, 10.6.2021 14:1:26.011
956, 1.85269, 0.159083, -3.57819, 0, 0.000976562, 0, 0.0400391, 0.269531, -9.82715, 10.6.2021 14:1:26.019
957, 1.85269, 0.159083, -3.57819, 0, 0, 0.000976562, 0.0234375, 0.288086, -9.82129, 10.6.2021 14:1:26.027
958, 1.85269, 0.159083, -3.57819, -0.00195312, -0.000976562, -0.000976562, 0.0253906, 0.314453, -9.8252, 10.6.2021 14:1:26.035
959, 1.85269, 0.159083, -3.57819, -0.000976562, 0, 0, 0.0224609, 0.336914, -9.85547, 10.6.2021 14:1:26.043
960, 1.85269, 0.159083, -3.57819, -0.000976562, -0.000976562, -0.000976562, 0.0126953, 0.356445, -9.8623, 10.6.2021 14:1:26.051
961, 1.85269, 0.159083, -3.57819, -0.000976562, 0, 0, 0.0253906, 0.34375, -9.84863, 10.6.2021 14:1:26.059
962, 1.85269, 0.159083, -3.57819, -0.000976562, -0.000976562, -0.000976562, 0.0585938, 0.345703, -9.81348, 10.6.2021 14:1:26.067
963, 1.85291, 0.166073, -3.5783, 0, 0, 0, 0.046875, 0.277344, -9.85352, 10.6.2021 14:1:26.075
964, 1.85291, 0.166073, -3.5783, -0.000976562, -0.000976562, 0.000976562, 0.046875, 0.316406, -9.86914, 10.6.2021 14:1:26.083
965, 1.85291, 0.166073, -3.5783, 0, 0, 0.000976562, 0.0498047, 0.322266, -9.82812, 10.6.2021 14:1:26.091
966, 1.85291, 0.166073, -3.5783, -0.000976562, -0.000976562, -0.000976562, 0.0136719, 0.310547, -9.8418, 10.6.2021 14:1:26.097
967, 1.85291, 0.166073, -3.5783, 0, 0, 0, 0.0253906, 0.327148, -9.85645, 10.6.2021 14:1:26.105
968, 1.85291, 0.166073, -3.5783, -0.000976562, 0, 0, 0.00292969, 0.34668, -9.85742, 10.6.2021 14:1:26.113
969, 1.85291, 0.166073, -3.5783, 0, 0, 0, 0.00585938, 0.334961, -9.86523, 10.6.2021 14:1:26.121
970, 1.85291, 0.166073, -3.5783, -0.000976562, -0.000976562, 0.000976562, 0.0351562, 0.310547, -9.7832, 10.6.2021 14:1:26.129
971, 1.85291, 0.166073, -3.5783, 0, -0.000976562, 0.000976562, 0.0498047, 0.318359, -9.79688, 10.6.2021 14:1:26.137
972, 1.85291, 0.166073, -3.5783, -0.000976562, -0.000976562, -0.000976562, 0.0302734, 0.324219, -9.8418, 10.6.2021 14:1:26.145
973, 1.85313, 0.173062, -3.57841, -0.00195312, 0, 0, 0.0898438, 0.30957, -9.82422, 10.6.2021 14:1:26.153
974, 1.85313, 0.173062, -3.57841, -0.000976562, 0, -0.00195312, 0.078125, 0.307617, -9.84082, 10.6.2021 14:1:26.161
975, 1.85313, 0.173062, -3.57841, -0.000976562, 0, 0, 0.0546875, 0.311523, -9.81152, 10.6.2021 14:1:26.169
976, 1.86033, 0.179834, -3.57852, -0.000976562, -0.000976562, 0.000976562, -0.0195312, 0.311523, -9.81738, 10.6.2021 14:1:26.177
977, 1.85335, 0.180052, -3.57852, -0.000976562, -0.000976562, -0.000976562, 0.015625, 0.302734, -9.83301, 10.6.2021 14:1:26.185
978, 1.86033, 0.179834, -3.57852, -0.000976562, -0.000976562, 0.000976562, 0.0205078, 0.347656, -9.82422, 10.6.2021 14:1:26.193
979, 1.86033, 0.179834, -3.57852, -0.000976562, -0.000976562, -0.000976562, 0.0107422, 0.34668, -9.8623, 10.6.2021 14:1:26.201
980, 1.86033, 0.179834, -3.57852, 0, 0, -0.00195312, 0.0244141, 0.368164, -9.84766, 10.6.2021 14:1:26.209
981, 1.86033, 0.179834, -3.57852, 0, 0, 0.000976562, 0.0351562, 0.34375, -9.83398, 10.6.2021 14:1:26.217
982, 1.86033, 0.179834, -3.57852, 0, -0.000976562, -0.000976562, 0.0732422, 0.333984, -9.81836, 10.6.2021 14:1:26.225
983, 1.86732, 0.179615, -3.57852, -0.000976562, -0.000976562, -0.00195312, 0.0732422, 0.328125, -9.85938, 10.6.2021 14:1:26.233
984, 1.86754, 0.186605, -3.57864, 0, -0.000976562, -0.000976562, 0.0537109, 0.332031, -9.85645, 10.6.2021 14:1:26.241
985, 1.86754, 0.186605, -3.57864, 0, -0.000976562, -0.00195312, 0.0136719, 0.300781, -9.84473, 10.6.2021 14:1:26.249
986, 1.86754, 0.186605, -3.57864, 0, -0.000976562, -0.000976562, -0.000976562, 0.274414, -9.85742, 10.6.2021 14:1:26.257
987, 1.86754, 0.186605, -3.57864, -0.000976562, -0.000976562, -0.000976562, 0.0078125, 0.31543, -9.86328, 10.6.2021 14:1:26.265
988, 1.86754, 0.186605, -3.57864, -0.000976562, -0.000976562, -0.000976562, -0.0283203, 0.299805, -9.89453, 10.6.2021 14:1:26.273
989, 1.86732, 0.179615, -3.57852, 0, -0.00195312, -0.000976562, 0.0107422, 0.347656, -9.8125, 10.6.2021 14:1:26.281
990, 1.86732, 0.179615, -3.57852, 0, 0, -0.000976562, 0.0078125, 0.336914, -9.8457, 10.6.2021 14:1:26.289
991, 1.86732, 0.179615, -3.57852, -0.000976562, 0, -0.000976562, 0.0371094, 0.34668, -9.84375, 10.6.2021 14:1:26.297
992, 1.86732, 0.179615, -3.57852, -0.000976562, -0.000976562, -0.000976562, 0.0371094, 0.326172, -9.83008, 10.6.2021 14:1:26.305
993, 1.87431, 0.179397, -3.57852, 0, -0.000976562, -0.000976562, 0.0537109, 0.305664, -9.85449, 10.6.2021 14:1:26.313
994, 1.87431, 0.179397, -3.57852, -0.000976562, -0.000976562, 0, 0.0683594, 0.300781, -9.85254, 10.6.2021 14:1:26.321
995, 1.86732, 0.179615, -3.57852, 0, 0, 0, 0.0136719, 0.283203, -9.82422, 10.6.2021 14:1:26.329
996, 1.86732, 0.179615, -3.57852, 0, 0, -0.000976562, -0.0078125, 0.295898, -9.83984, 10.6.2021 14:1:26.337
997, 1.86732, 0.179615, -3.57852, -0.000976562, 0, -0.00195312, 0.00390625, 0.300781, -9.86133, 10.6.2021 14:1:26.345
998, 1.8671, 0.172626, -3.57841, -0.00195312, 0, 0, -0.0273438, 0.328125, -9.8125, 10.6.2021 14:1:26.353
999, 1.8671, 0.172626, -3.57841, 0, -0.000976562, -0.000976562, 0.0107422, 0.34082, -9.82422, 10.6.2021 14:1:26.361
1000, 1.8671, 0.172626, -3.57841, 0, 0, -0.000976562, 0.0488281, 0.336914, -9.83984, 10.6.2021 14:1:26.369
1001, 1.8671, 0.172626, -3.57841, 0, -0.000976562, -0.000976562, 0.0537109, 0.357422, -9.875, 10.6.2021 14:1:26.377
1002, 1.8671, 0.172626, -3.57841, -0.000976562, 0, -0.000976562, 0.111328, 0.335938, -9.86914, 10.6.2021 14:1:26.385
1003, 1.8671, 0.172626, -3.57841, 0, 0, -0.000976562, 0.0751953, 0.316406, -9.86719, 10.6.2021 14:1:26.393
1004, 1.8671, 0.172626, -3.57841, 0, -0.00195312, -0.000976562, 0.0371094, 0.301758, -9.86914, 10.6.2021 14:1:26.401
1005, 1.8671, 0.172626, -3.57841, 0, -0.000976562, -0.000976562, 0.0351562, 0.316406, -9.81836, 10.6.2021 14:1:26.409
1006, 1.86732, 0.179615, -3.57852, -0.000976562, -0.000976562, -0.000976562, 0.0205078, 0.305664, -9.84961, 10.6.2021 14:1:26.417
1007, 1.86732, 0.179615, -3.57852, -0.000976562, 0, -0.00195312, -0.0126953, 0.314453, -9.8252, 10.6.2021 14:1:26.425
1008, 1.86732, 0.179615, -3.57852, -0.000976562, -0.000976562, -0.00195312, 0.000976562, 0.327148, -9.85547, 10.6.2021 14:1:26.433
1009, 1.8671, 0.172626, -3.57841, -0.000976562, 0, -0.000976562, -0.0078125, 0.307617, -9.83691, 10.6.2021 14:1:26.441
1010, 1.8671, 0.172626, -3.57841, 0, -0.000976562, -0.000976562, 0.015625, 0.348633, -9.83594, 10.6.2021 14:1:26.449
1011, 1.8671, 0.172626, -3.57841, 0, -0.000976562, -0.000976562, 0.0175781, 0.336914, -9.8418, 10.6.2021 14:1:26.457
1012, 1.8671, 0.172626, -3.57841, 0, -0.000976562, -0.00195312, 0.0341797, 0.365234, -9.84082, 10.6.2021 14:1:26.465
1013, 1.8671, 0.172626, -3.57841, 0, -0.000976562, -0.000976562, 0.0800781, 0.325195, -9.85449, 10.6.2021 14:1:26.473
1014, 1.8671, 0.172626, -3.57841, 0, 0, -0.000976562, 0.0419922, 0.303711, -9.86426, 10.6.2021 14:1:26.481
1015, 1.8671, 0.172626, -3.57841, 0, -0.000976562, -0.000976562, 0.0371094, 0.276367, -9.83203, 10.6.2021 14:1:26.489
1016, 1.8671, 0.172626, -3.57841, 0, -0.000976562, -0.00195312, 0.046875, 0.287109, -9.85059, 10.6.2021 14:1:26.497
1017, 1.8671, 0.172626, -3.57841, -0.000976562, -0.00195312, -0.000976562, -0.00878906, 0.293945, -9.84961, 10.6.2021 14:1:26.505
1018, 1.8671, 0.172626, -3.57841, -0.000976562, 0, 0, 0.0390625, 0.31543, -9.84766, 10.6.2021 14:1:26.513
1019, 1.8671, 0.172626, -3.57841, -0.000976562, -0.000976562, -0.00195312, -0.0078125, 0.363281, -9.79492, 10.6.2021 14:1:26.521
1020, 1.8671, 0.172626, -3.57841, -0.000976562, -0.000976562, 0, 0.0126953, 0.361328, -9.85742, 10.6.2021 14:1:26.529
1021, 1.8671, 0.172626, -3.57841, 0, 0, 0, 0.0292969, 0.352539, -9.87695, 10.6.2021 14:1:26.537
1022, 1.8671, 0.172626, -3.57841, 0, -0.000976562, -0.00195312, 0.0107422, 0.362305, -9.81934, 10.6.2021 14:1:26.545
1023, 1.86688, 0.165637, -3.5783, -0.000976562, 0, 0, 0.0273438, 0.336914, -9.84375, 10.6.2021 14:1:26.553
1024, 1.86688, 0.165637, -3.5783, -0.000976562, 0, 0, 0.0234375, 0.25293, -9.85645, 10.6.2021 14:1:26.561
1025, 1.87387, 0.165418, -3.5783, -0.000976562, 0, 0, 0.00585938, 0.295898, -9.84473, 10.6.2021 14:1:26.569
1026, 1.86688, 0.165637, -3.5783, 0, 0, 0, 0.0322266, 0.279297, -9.85547, 10.6.2021 14:1:26.577
1027, 1.86688, 0.165637, -3.5783, -0.000976562, 0, 0, 0.0253906, 0.310547, -9.85645, 10.6.2021 14:1:26.585
1028, 1.86688, 0.165637, -3.5783, -0.000976562, 0.000976562, 0, 0.0351562, 0.329102, -9.8418, 10.6.2021 14:1:26.593
1029, 1.86688, 0.165637, -3.5783, -0.000976562, -0.000976562, 0, 0.0185547, 0.339844, -9.79102, 10.6.2021 14:1:26.601
1030, 1.86688, 0.165637, -3.5783, -0.000976562, -0.000976562, 0, 0.0322266, 0.375, -9.83105, 10.6.2021 14:1:26.609
1031, 1.86688, 0.165637, -3.5783, -0.000976562, -0.00195312, 0, 0.0488281, 0.359375, -9.87402, 10.6.2021 14:1:26.617
1032, 1.87387, 0.165418, -3.5783, -0.000976562, -0.000976562, 0, 0.0439453, 0.334961, -9.84863, 10.6.2021 14:1:26.625
1033, 1.87387, 0.165418, -3.5783, -0.000976562, -0.000976562, 0, 0.0400391, 0.30957, -9.83105, 10.6.2021 14:1:26.633
