Seq, Rot x, Rot y, Rot z, Vel x, Vel y, Vel z, Acc x, Acc y, Acc z, Time(m.d.y h:m:s.ms)
0, 1.44654, 0.331926, 178.03, -0.00195312, -0.000976562, 0, 0.078125, 0.275391, -9.86816, 10.6.2021 14:17:25.067
1, 1.44654, 0.331926, 178.03, -0.000976562, 0, 0, 0.0419922, 0.255859, -9.86133, 10.6.2021 14:17:25.071
2, 1.44654, 0.331926, 178.03, 0, -0.000976562, 0, 0.0673828, 0.21875, -9.82031, 10.6.2021 14:17:25.079
3, 1.44654, 0.331926, 178.03, 0, -0.000976562, -0.000976562, 0.0517578, 0.227539, -9.87891, 10.6.2021 14:17:25.087
4, 1.44654, 0.331926, 178.03, 0, -0.000976562, -0.000976562, 0.0566406, 0.241211, -9.85742, 10.6.2021 14:17:25.095
5, 1.44654, 0.331926, 178.03, 0, 0, -0.000976562, 0.046875, 0.250977, -9.84961, 10.6.2021 14:17:25.103
6, 1.44666, 0.338919, 178.03, 0, -0.000976562, 0, 0.0517578, 0.265625, -9.875, 10.6.2021 14:17:25.111
7, 1.44666, 0.338919, 178.03, 0, 0, 0, 0.0615234, 0.260742, -9.87305, 10.6.2021 14:17:25.119
8, 1.44666, 0.338919, 178.03, 0, -0.000976562, 0, 0.0439453, 0.256836, -9.88281, 10.6.2021 14:17:25.127
9, 1.44666, 0.338919, 178.03, -0.000976562, 0, -0.000976562, 0.0615234, 0.260742, -9.85938, 10.6.2021 14:17:25.135
10, 1.44666, 0.338919, 178.03, -0.000976562, -0.000976562, -0.000976562, 0.0507812, 0.248047, -9.91406, 10.6.2021 14:17:25.143
11, 1.44666, 0.338919, 178.03, -0.000976562, 0, -0.000976562, 0.0595703, 0.214844, -9.85059, 10.6.2021 14:17:25.151
12, 1.44666, 0.338919, 178.03, 0, 0, 0, 0.0664062, 0.238281, -9.82422, 10.6.2021 14:17:25.159
13, 1.44666, 0.338919, 178.03, 0, -0.000976562, -0.000976562, 0.0332031, 0.198242, -9.85352, 10.6.2021 14:17:25.167
14, 1.44666, 0.338919, 178.03, 0, -0.000976562, 0, 0.0390625, 0.240234, -9.8877, 10.6.2021 14:17:25.175
15, 1.43955, 0.332046, 178.03, 0, -0.000976562, -0.000976562, 0.0302734, 0.245117, -9.83301, 10.6.2021 14:17:25.183
16, 1.43955, 0.332046, 178.03, 0.000976562, -0.000976562, 0, 0.0878906, 0.233398, -9.83203, 10.6.2021 14:17:25.191
17, 1.43955, 0.332046, 178.03, 0, 0, 0, 0.0439453, 0.273438, -9.87012, 10.6.2021 14:17:25.199
18, 1.43955, 0.332046, 178.03, -0.000976562, -0.000976562, 0, 0.0634766, 0.280273, -9.87695, 10.6.2021 14:17:25.207
19, 1.43955, 0.332046, 178.03, 0, -0.000976562, 0, 0.0654297, 0.277344, -9.86523, 10.6.2021 14:17:25.215
20, 1.43955, 0.332046, 178.03, 0, -0.000976562, -0.000976562, 0.0751953, 0.249023, -9.86426, 10.6.2021 14:17:25.223
21, 1.43955, 0.332046, 178.03, 0, -0.000976562, -0.00195312, 0.106445, 0.241211, -9.90527, 10.6.2021 14:17:25.231
22, 1.43955, 0.332046, 178.03, 0, -0.00195312, 0, 0.0751953, 0.225586, -9.88379, 10.6.2021 14:17:25.239
23, 1.43955, 0.332046, 178.03, 0, -0.000976562, 0.000976562, 0.0253906, 0.230469, -9.89258, 10.6.2021 14:17:25.247
24, 1.43955, 0.332046, 178.03, 0, -0.000976562, -0.000976562, 0.0253906, 0.223633, -9.89746, 10.6.2021 14:17:25.255
25, 1.43256, 0.332166, 178.03, -0.000976562, -0.000976562, -0.00195312, 0.0419922, 0.228516, -9.89062, 10.6.2021 14:17:25.263
26, 1.43256, 0.332166, 178.03, 0, -0.000976562, -0.000976562, 0.0136719, 0.241211, -9.8584, 10.6.2021 14:17:25.271
27, 1.43256, 0.332166, 178.03, 0, -0.000976562, -0.000976562, 0.0224609, 0.263672, -9.87695, 10.6.2021 14:17:25.279
28, 1.43256, 0.332166, 178.03, -0.000976562, 0, 0, 0.0585938, 0.274414, -9.89648, 10.6.2021 14:17:25.287
29, 1.43244, 0.325173, 178.03, -0.000976562, 0, 0, 0.0849609, 0.285156, -9.86328, 10.6.2021 14:17:25.295
30, 1.43244, 0.325173, 178.03, 0, -0.000976562, 0, 0.0898438, 0.255859, -9.85938, 10.6.2021 14:17:25.303
31, 1.43244, 0.325173, 178.03, 0, -0.000976562, 0, 0.0742188, 0.230469, -9.82715, 10.6.2021 14:17:25.311
32, 1.43256, 0.332166, 178.03, -0.000976562, 0, -0.000976562, 0.0615234, 0.21582, -9.88867, 10.6.2021 14:17:25.319
33, 1.43256, 0.332166, 178.03, 0, 0, -0.000976562, 0.0585938, 0.208984, -9.87988, 10.6.2021 14:17:25.327
34, 1.43256, 0.332166, 178.03, 0, -0.000976562, 0, 0.0332031, 0.236328, -9.84766, 10.6.2021 14:17:25.335
35, 1.43256, 0.332166, 178.03, 0, 0, 0, 0.0371094, 0.25293, -9.85449, 10.6.2021 14:17:25.343
36, 1.43256, 0.332166, 178.03, 0, -0.000976562, 0, 0.0732422, 0.246094, -9.85254, 10.6.2021 14:17:25.351
37, 1.43256, 0.332166, 178.03, 0, -0.000976562, 0, 0.0712891, 0.28418, -9.84375, 10.6.2021 14:17:25.359
38, 1.43256, 0.332166, 178.03, 0, -0.00195312, 0, 0.0556641, 0.27832, -9.89355, 10.6.2021 14:17:25.367
39, 1.43244, 0.325173, 178.03, 0, 0, 0, 0.0439453, 0.258789, -9.87793, 10.6.2021 14:17:25.375
40, 1.43256, 0.332166, 178.03, 0, 0, 0, 0.0556641, 0.240234, -9.90234, 10.6.2021 14:17:25.383
41, 1.43244, 0.325173, 178.03, 0, -0.00195312, -0.000976562, 0.0546875, 0.25, -9.83984, 10.6.2021 14:17:25.391
42, 1.43244, 0.325173, 178.03, -0.000976562, -0.00195312, 0, 0.0585938, 0.213867, -9.90332, 10.6.2021 14:17:25.399
43, 1.43244, 0.325173, 178.03, -0.000976562, 0, -0.000976562, 0.0537109, 0.24707, -9.89062, 10.6.2021 14:17:25.407
44, 1.43244, 0.325173, 178.03, 0, -0.000976562, -0.00195312, 0.0429688, 0.241211, -9.83984, 10.6.2021 14:17:25.415
45, 1.43244, 0.325173, 178.03, 0, -0.000976562, -0.000976562, 0.0546875, 0.251953, -9.80664, 10.6.2021 14:17:25.423
46, 1.43244, 0.325173, 178.03, 0, -0.000976562, -0.000976562, 0.0732422, 0.265625, -9.86133, 10.6.2021 14:17:25.431
47, 1.43244, 0.325173, 178.03, 0, 0, 0, 0.0400391, 0.258789, -9.86621, 10.6.2021 14:17:25.439
48, 1.43244, 0.325173, 178.03, 0, 0, 0, 0.0419922, 0.270508, -9.86816, 10.6.2021 14:17:25.447
49, 1.43244, 0.325173, 178.03, 0, -0.000976562, 0, 0.0585938, 0.267578, -9.84473, 10.6.2021 14:17:25.455
50, 1.43244, 0.325173, 178.03, -0.000976562, -0.000976562, 0, 0.0634766, 0.265625, -9.84961, 10.6.2021 14:17:25.463
51, 1.43943, 0.325053, 178.03, 0, -0.000976562, -0.000976562, 0.0830078, 0.239258, -9.85547, 10.6.2021 14:17:25.471
52, 1.43943, 0.325053, 178.03, 0, 0, -0.000976562, 0.0683594, 0.241211, -9.8623, 10.6.2021 14:17:25.479
53, 1.43943, 0.325053, 178.03, 0, 0, 0, 0.078125, 0.237305, -9.86914, 10.6.2021 14:17:25.487
54, 1.43955, 0.332046, 178.03, 0, 0, -0.000976562, 0.0732422, 0.262695, -9.84473, 10.6.2021 14:17:25.495
55, 1.43955, 0.332046, 178.03, -0.000976562, -0.000976562, 0, 0.0175781, 0.270508, -9.8623, 10.6.2021 14:17:25.503
56, 1.43955, 0.332046, 178.03, 0, -0.000976562, 0, 0.0371094, 0.241211, -9.85156, 10.6.2021 14:17:25.511
57, 1.43943, 0.325053, 178.03, 0, -0.000976562, 0.000976562, 0.0273438, 0.249023, -9.8877, 10.6.2021 14:17:25.519
58, 1.44642, 0.324933, 178.03, 0, 0, 0, 0.0683594, 0.27832, -9.87793, 10.6.2021 14:17:25.527
59, 1.44642, 0.324933, 178.03, 0, -0.000976562, -0.000976562, 0.0898438, 0.256836, -9.86914, 10.6.2021 14:17:25.535
60, 1.44654, 0.331926, 178.03, -0.000976562, -0.000976562, -0.000976562, 0.0732422, 0.232422, -9.86914, 10.6.2021 14:17:25.543
61, 1.44654, 0.331926, 178.03, 0, -0.000976562, 0, 0.0732422, 0.227539, -9.86035, 10.6.2021 14:17:25.551
62, 1.44654, 0.331926, 178.03, 0, -0.000976562, -0.000976562, 0.0498047, 0.219727, -9.86523, 10.6.2021 14:17:25.559
63, 1.44654, 0.331926, 178.03, 0, -0.000976562, -0.000976562, 0.0615234, 0.209961, -9.8584, 10.6.2021 14:17:25.567
64, 1.44654, 0.331926, 178.03, 0, -0.000976562, -0.000976562, 0.0566406, 0.251953, -9.88086, 10.6.2021 14:17:25.575
65, 1.43955, 0.332046, 178.03, 0, -0.000976562, -0.000976562, 0.0683594, 0.241211, -9.85938, 10.6.2021 14:17:25.583
66, 1.43955, 0.332046, 178.03, 0, -0.000976562, -0.000976562, 0.0585938, 0.244141, -9.86621, 10.6.2021 14:17:25.591
67, 1.43955, 0.332046, 178.03, 0, -0.000976562, 0, 0.078125, 0.275391, -9.85645, 10.6.2021 14:17:25.599
68, 1.43955, 0.332046, 178.03, 0.000976562, 0, -0.000976562, 0.0634766, 0.255859, -9.84766, 10.6.2021 14:17:25.607
69, 1.43967, 0.339038, 178.03, 0, -0.000976562, -0.000976562, 0.0585938, 0.264648, -9.89258, 10.6.2021 14:17:25.615
70, 1.43967, 0.339038, 178.03, 0, -0.000976562, -0.000976562, 0.0546875, 0.224609, -9.86523, 10.6.2021 14:17:25.623
71, 1.43967, 0.339038, 178.03, 0.000976562, -0.000976562, 0, 0.0498047, 0.238281, -9.84082, 10.6.2021 14:17:25.631
72, 1.43967, 0.339038, 178.03, -0.000976562, -0.000976562, -0.000976562, 0.0585938, 0.237305, -9.87402, 10.6.2021 14:17:25.639
73, 1.43967, 0.339038, 178.03, -0.000976562, -0.000976562, 0, 0.0546875, 0.21875, -9.8291, 10.6.2021 14:17:25.647
74, 1.43967, 0.339038, 178.03, 0, -0.00195312, -0.000976562, 0.0517578, 0.241211, -9.84766, 10.6.2021 14:17:25.655
75, 1.43967, 0.339038, 178.03, -0.000976562, -0.000976562, -0.000976562, 0.0322266, 0.265625, -9.85547, 10.6.2021 14:17:25.661
76, 1.43967, 0.339038, 178.03, 0, 0, 0, 0.0498047, 0.286133, -9.83594, 10.6.2021 14:17:25.669
77, 1.43967, 0.339038, 178.03, 0, 0, -0.000976562, 0.0537109, 0.255859, -9.87109, 10.6.2021 14:17:25.677
78, 1.43967, 0.339038, 178.03, -0.000976562, -0.00195312, 0, 0.0703125, 0.271484, -9.88965, 10.6.2021 14:17:25.685
79, 1.43967, 0.339038, 178.03, -0.000976562, -0.00195312, -0.000976562, 0.104492, 0.24707, -9.88672, 10.6.2021 14:17:25.693
80, 1.43967, 0.339038, 178.03, 0, -0.000976562, 0.000976562, 0.0859375, 0.25293, -9.8457, 10.6.2021 14:17:25.701
81, 1.43967, 0.339038, 178.03, -0.000976562, -0.000976562, -0.000976562, 0.0761719, 0.234375, -9.85254, 10.6.2021 14:17:25.709
82, 1.43967, 0.339038, 178.03, 0, -0.00195312, 0, 0.0517578, 0.229492, -9.85742, 10.6.2021 14:17:25.717
83, 1.43967, 0.339038, 178.03, -0.000976562, -0.00195312, -0.000976562, 0.0615234, 0.24707, -9.81934, 10.6.2021 14:17:25.725
84, 1.43967, 0.339038, 178.03, -0.000976562, -0.000976562, 0, 0.0449219, 0.262695, -9.85156, 10.6.2021 14:17:25.733
85, 1.43967, 0.339038, 178.03, -0.000976562, -0.000976562, 0, 0.0488281, 0.272461, -9.86523, 10.6.2021 14:17:25.741
86, 1.44666, 0.338919, 178.03, 0, 0.000976562, -0.000976562, 0.0273438, 0.280273, -9.86523, 10.6.2021 14:17:25.749
87, 1.44666, 0.338919, 178.03, 0, 0.000976562, 0, 0.0419922, 0.262695, -9.86328, 10.6.2021 14:17:25.757
88, 1.44666, 0.338919, 178.03, 0, 0.000976562, -0.000976562, 0.0849609, 0.280273, -9.85645, 10.6.2021 14:17:25.765
89, 1.44666, 0.338919, 178.03, -0.000976562, 0.000976562, 0, 0.102539, 0.242188, -9.86719, 10.6.2021 14:17:25.773
90, 1.45377, 0.345792, 178.03, 0, -0.00195312, 0, 0.0849609, 0.259766, -9.89746, 10.6.2021 14:17:25.781
91, 1.45377, 0.345792, 178.03, -0.000976562, -0.00195312, -0.000976562, 0.0761719, 0.248047, -9.84082, 10.6.2021 14:17:25.789
92, 1.45377, 0.345792, 178.03, -0.000976562, -0.000976562, 0, 0.0566406, 0.224609, -9.85059, 10.6.2021 14:17:25.797
93, 1.45377, 0.345792, 178.03, -0.000976562, -0.000976562, 0, 0.0664062, 0.222656, -9.86523, 10.6.2021 14:17:25.805
94, 1.45377, 0.345792, 178.03, 0, -0.00195312, 0, 0.0644531, 0.236328, -9.84082, 10.6.2021 14:17:25.813
95, 1.45377, 0.345792, 178.03, 0, 0.000976562, -0.000976562, 0.0283203, 0.24707, -9.83008, 10.6.2021 14:17:25.821
96, 1.45377, 0.345792, 178.03, 0, 0.000976562, -0.000976562, 0.0585938, 0.260742, -9.87109, 10.6.2021 14:17:25.829
97, 1.45389, 0.352785, 178.03, 0, 0.000976562, -0.000976562, 0.0634766, 0.267578, -9.86328, 10.6.2021 14:17:25.837
98, 1.45389, 0.352785, 178.03, 0, 0, 0.000976562, 0.0537109, 0.263672, -9.87109, 10.6.2021 14:17:25.845
99, 1.45389, 0.352785, 178.03, 0, -0.000976562, -0.000976562, 0.119141, 0.253906, -9.86914, 10.6.2021 14:17:25.853
100, 1.45389, 0.352785, 178.03, 0, 0.000976562, -0.000976562, 0.0898438, 0.253906, -9.87402, 10.6.2021 14:17:25.861
101, 1.45401, 0.359777, 178.03, -0.000976562, 0.000976562, -0.000976562, 0.0976562, 0.238281, -9.82227, 10.6.2021 14:17:25.869
102, 1.45401, 0.359777, 178.03, 0, 0.000976562, -0.000976562, 0.0615234, 0.222656, -9.8623, 10.6.2021 14:17:25.877
103, 1.45401, 0.359777, 178.03, -0.000976562, 0.000976562, 0, 0.046875, 0.226562, -9.90234, 10.6.2021 14:17:25.885
104, 1.45401, 0.359777, 178.03, 0, 0.000976562, -0.000976562, 0.0546875, 0.240234, -9.83301, 10.6.2021 14:17:25.893
105, 1.45413, 0.36677, 178.03, -0.000976562, -0.000976562, 0, 0.0419922, 0.270508, -9.88184, 10.6.2021 14:17:25.901
106, 1.45413, 0.36677, 178.03, -0.000976562, -0.000976562, -0.000976562, 0.0429688, 0.22168, -9.83594, 10.6.2021 14:17:25.909
107, 1.45413, 0.36677, 178.03, -0.000976562, 0, 0, 0.0634766, 0.275391, -9.85645, 10.6.2021 14:17:25.917
108, 1.45413, 0.36677, 178.03, -0.000976562, 0.000976562, -0.000976562, 0.0830078, 0.28418, -9.8418, 10.6.2021 14:17:25.925
109, 1.45413, 0.36677, 178.03, 0, 0.000976562, -0.000976562, 0.0830078, 0.25293, -9.84473, 10.6.2021 14:17:25.933
110, 1.45413, 0.36677, 178.03, -0.000976562, -0.000976562, 0, 0.0732422, 0.232422, -9.87402, 10.6.2021 14:17:25.941
111, 1.45413, 0.36677, 178.03, 0, -0.000976562, 0, 0.0566406, 0.204102, -9.875, 10.6.2021 14:17:25.949
112, 1.45413, 0.36677, 178.03, -0.000976562, -0.000976562, -0.00195312, 0.0449219, 0.219727, -9.86035, 10.6.2021 14:17:25.957
113, 1.45413, 0.36677, 178.03, -0.000976562, -0.000976562, -0.000976562, 0.0283203, 0.226562, -9.85938, 10.6.2021 14:17:25.965
114, 1.44714, 0.36689, 178.03, 0, -0.000976562, -0.000976562, 0.0205078, 0.25, -9.8916, 10.6.2021 14:17:25.973
115, 1.44714, 0.36689, 178.03, 0, -0.000976562, -0.000976562, 0.0332031, 0.238281, -9.83789, 10.6.2021 14:17:25.981
116, 1.44714, 0.36689, 178.03, 0, -0.000976562, -0.000976562, 0.0634766, 0.250977, -9.86133, 10.6.2021 14:17:25.989
117, 1.44702, 0.359897, 178.03, 0, -0.000976562, 0, 0.0712891, 0.257812, -9.85449, 10.6.2021 14:17:25.997
118, 1.44702, 0.359897, 178.03, -0.000976562, -0.000976562, -0.000976562, 0.0683594, 0.253906, -9.88281, 10.6.2021 14:17:26.005
119, 1.44702, 0.359897, 178.03, -0.000976562, 0, -0.000976562, 0.0761719, 0.272461, -9.83691, 10.6.2021 14:17:26.013
120, 1.44003, 0.360017, 178.03, 0, -0.000976562, 0, 0.0761719, 0.243164, -9.83105, 10.6.2021 14:17:26.021
121, 1.44003, 0.360017, 178.03, -0.000976562, -0.000976562, -0.000976562, 0.0517578, 0.231445, -9.83594, 10.6.2021 14:17:26.029
122, 1.44003, 0.360017, 178.03, 0, -0.000976562, -0.000976562, 0.0390625, 0.205078, -9.90527, 10.6.2021 14:17:26.037
123, 1.44003, 0.360017, 178.03, 0, -0.000976562, -0.000976562, 0.0664062, 0.239258, -9.86914, 10.6.2021 14:17:26.045
124, 1.44003, 0.360017, 178.03, -0.000976562, 0, 0, 0.0517578, 0.244141, -9.86914, 10.6.2021 14:17:26.053
125, 1.43991, 0.353024, 178.03, -0.00195312, -0.000976562, 0, 0.0439453, 0.260742, -9.875, 10.6.2021 14:17:26.061
126, 1.43991, 0.353024, 178.03, 0, -0.000976562, 0, 0.0654297, 0.268555, -9.87793, 10.6.2021 14:17:26.069
127, 1.43991, 0.353024, 178.03, 0, -0.000976562, 0, 0.0917969, 0.269531, -9.89258, 10.6.2021 14:17:26.077
128, 1.43991, 0.353024, 178.03, 0, 0, 0, 0.121094, 0.251953, -9.8623, 10.6.2021 14:17:26.085
129, 1.44003, 0.360017, 178.03, -0.000976562, 0, -0.000976562, 0.0878906, 0.270508, -9.87109, 10.6.2021 14:17:26.093
130, 1.44003, 0.360017, 178.03, -0.000976562, -0.000976562, -0.000976562, 0.0751953, 0.242188, -9.86914, 10.6.2021 14:17:26.101
131, 1.44003, 0.360017, 178.03, -0.000976562, 0, -0.000976562, 0.0419922, 0.236328, -9.86426, 10.6.2021 14:17:26.109
132, 1.44003, 0.360017, 178.03, 0, -0.000976562, 0, 0.0615234, 0.245117, -9.88086, 10.6.2021 14:17:26.117
133, 1.44003, 0.360017, 178.03, -0.000976562, 0, 0, 0.0517578, 0.203125, -9.85547, 10.6.2021 14:17:26.125
134, 1.44003, 0.360017, 178.03, 0, -0.000976562, -0.000976562, 0.0498047, 0.224609, -9.85254, 10.6.2021 14:17:26.133
135, 1.43304, 0.360137, 178.03, 0, -0.000976562, 0, 0.0615234, 0.243164, -9.84766, 10.6.2021 14:17:26.141
136, 1.43304, 0.360137, 178.03, -0.000976562, -0.000976562, -0.000976562, 0.0712891, 0.274414, -9.83984, 10.6.2021 14:17:26.149
137, 1.43304, 0.360137, 178.03, 0, 0, -0.000976562, 0.0742188, 0.256836, -9.7998, 10.6.2021 14:17:26.157
138, 1.43316, 0.36713, 178.03, -0.000976562, -0.000976562, -0.000976562, 0.0654297, 0.266602, -9.87793, 10.6.2021 14:17:26.165
139, 1.43316, 0.36713, 178.03, -0.000976562, -0.000976562, 0, 0.078125, 0.232422, -9.85742, 10.6.2021 14:17:26.173
140, 1.43316, 0.36713, 178.03, 0, -0.000976562, 0, 0.0615234, 0.240234, -9.83301, 10.6.2021 14:17:26.181
141, 1.43316, 0.36713, 178.03, 0, -0.000976562, 0, 0.0449219, 0.223633, -9.82422, 10.6.2021 14:17:26.189
142, 1.43316, 0.36713, 178.03, -0.000976562, -0.00195312, -0.000976562, 0.0517578, 0.229492, -9.86719, 10.6.2021 14:17:26.197
143, 1.43316, 0.36713, 178.03, -0.000976562, -0.000976562, -0.00195312, 0.0498047, 0.217773, -9.85352, 10.6.2021 14:17:26.205
144, 1.43304, 0.360137, 178.03, -0.000976562, 0, -0.000976562, 0.0351562, 0.249023, -9.86621, 10.6.2021 14:17:26.213
145, 1.43304, 0.360137, 178.03, 0, -0.000976562, 0, 0.0351562, 0.257812, -9.85645, 10.6.2021 14:17:26.221
146, 1.43304, 0.360137, 178.03, 0, 0, 0, 0.0419922, 0.283203, -9.87695, 10.6.2021 14:17:26.229
147, 1.43304, 0.360137, 178.03, 0, -0.000976562, -0.000976562, 0.0351562, 0.256836, -9.83203, 10.6.2021 14:17:26.237
148, 1.43304, 0.360137, 178.03, -0.000976562, 0, -0.000976562, 0.0478516, 0.256836, -9.8252, 10.6.2021 14:17:26.245
149, 1.43292, 0.353144, 178.03, 0, -0.000976562, 0, 0.0322266, 0.253906, -9.87305, 10.6.2021 14:17:26.253
150, 1.43292, 0.353144, 178.03, 0, -0.000976562, -0.000976562, 0.0546875, 0.22168, -9.84863, 10.6.2021 14:17:26.261
151, 1.43292, 0.353144, 178.03, 0, -0.000976562, -0.000976562, 0.0371094, 0.225586, -9.87598, 10.6.2021 14:17:26.269
152, 1.42581, 0.346271, 178.03, 0, -0.00195312, -0.000976562, 0.0449219, 0.21582, -9.87012, 10.6.2021 14:17:26.277
153, 1.42581, 0.346271, 178.03, 0, -0.00195312, 0, 0.0419922, 0.244141, -9.85938, 10.6.2021 14:17:26.285
154, 1.42569, 0.339278, 178.03, -0.000976562, -0.000976562, -0.000976562, 0.0566406, 0.265625, -9.86328, 10.6.2021 14:17:26.293
155, 1.42569, 0.339278, 178.03, 0, -0.00195312, -0.000976562, 0.0605469, 0.256836, -9.88086, 10.6.2021 14:17:26.301
156, 1.42569, 0.339278, 178.03, 0, -0.000976562, -0.000976562, 0.0605469, 0.273438, -9.88965, 10.6.2021 14:17:26.309
157, 1.42557, 0.332285, 178.03, 0, -0.000976562, -0.000976562, 0.0634766, 0.289062, -9.85059, 10.6.2021 14:17:26.317
158, 1.42557, 0.332285, 178.03, -0.000976562, -0.000976562, -0.000976562, 0.078125, 0.248047, -9.84277, 10.6.2021 14:17:26.325
159, 1.43256, 0.332166, 178.03, 0, -0.00195312, 0, 0.0585938, 0.251953, -9.88086, 10.6.2021 14:17:26.333
160, 1.43256, 0.332166, 178.03, -0.000976562, -0.00195312, 0, 0.0566406, 0.229492, -9.86426, 10.6.2021 14:17:26.341
161, 1.43256, 0.332166, 178.03, 0, -0.000976562, -0.000976562, 0.0351562, 0.237305, -9.87793, 10.6.2021 14:17:26.349
162, 1.43244, 0.325173, 178.03, 0, -0.000976562, 0, 0.0234375, 0.196289, -9.88672, 10.6.2021 14:17:26.357
163, 1.43244, 0.325173, 178.03, 0, 0, 0, 0.0634766, 0.242188, -9.88574, 10.6.2021 14:17:26.365
164, 1.42545, 0.325292, 178.03, 0, -0.000976562, 0, 0.0273438, 0.25, -9.89941, 10.6.2021 14:17:26.373
165, 1.42545, 0.325292, 178.03, -0.000976562, -0.000976562, 0, 0.0537109, 0.253906, -9.86816, 10.6.2021 14:17:26.381
166, 1.42545, 0.325292, 178.03, 0, -0.000976562, -0.000976562, 0.0634766, 0.288086, -9.88379, 10.6.2021 14:17:26.389
167, 1.43232, 0.31818, 178.03, -0.000976562, -0.000976562, -0.000976562, 0.078125, 0.271484, -9.87988, 10.6.2021 14:17:26.397
168, 1.43232, 0.31818, 178.03, -0.000976562, 0, 0, 0.0908203, 0.248047, -9.84082, 10.6.2021 14:17:26.405
169, 1.43244, 0.325173, 178.03, 0, 0, 0, 0.0810547, 0.229492, -9.85547, 10.6.2021 14:17:26.413
170, 1.43244, 0.325173, 178.03, -0.000976562, -0.000976562, 0, 0.0683594, 0.21582, -9.875, 10.6.2021 14:17:26.421
171, 1.43244, 0.325173, 178.03, -0.000976562, -0.000976562, -0.000976562, 0.0761719, 0.209961, -9.83496, 10.6.2021 14:17:26.429
172, 1.43244, 0.325173, 178.03, -0.000976562, 0, 0, 0.0634766, 0.230469, -9.88867, 10.6.2021 14:17:26.437
173, 1.43244, 0.325173, 178.03, -0.000976562, 0, 0, 0.0498047, 0.248047, -9.83984, 10.6.2021 14:17:26.445
174, 1.42545, 0.325292, 178.03, 0, 0, 0, 0.0546875, 0.259766, -9.82812, 10.6.2021 14:17:26.453
175, 1.42557, 0.332285, 178.03, 0, -0.000976562, 0, 0.0908203, 0.229492, -9.85352, 10.6.2021 14:17:26.461
176, 1.42557, 0.332285, 178.03, 0, -0.000976562, 0, 0.0927734, 0.244141, -9.85547, 10.6.2021 14:17:26.469
177, 1.42557, 0.332285, 178.03, 0, 0, 0, 0.0927734, 0.270508, -9.84961, 10.6.2021 14:17:26.477
178, 1.42569, 0.339278, 178.03, -0.000976562, -0.000976562, -0.000976562, 0.0585938, 0.261719, -9.87598, 10.6.2021 14:17:26.485
179, 1.42569, 0.339278, 178.03, -0.000976562, -0.00195312, -0.000976562, 0.0517578, 0.258789, -9.88477, 10.6.2021 14:17:26.493
180, 1.42569, 0.339278, 178.03, 0, -0.00195312, -0.00195312, 0.0585938, 0.245117, -9.88281, 10.6.2021 14:17:26.501
181, 1.42569, 0.339278, 178.03, -0.000976562, -0.00195312, 0, 0.0400391, 0.233398, -9.84473, 10.6.2021 14:17:26.509
182, 1.42569, 0.339278, 178.03, 0, -0.000976562, 0, 0.0585938, 0.249023, -9.87402, 10.6.2021 14:17:26.517
183, 1.42569, 0.339278, 178.03, 0, -0.000976562, -0.00195312, 0.0615234, 0.24707, -9.87891, 10.6.2021 14:17:26.525
184, 1.42569, 0.339278, 178.03, 0, -0.000976562, -0.00195312, 0.0566406, 0.248047, -9.82617, 10.6.2021 14:17:26.533
185, 1.42569, 0.339278, 178.03, 0, -0.000976562, -0.000976562, 0.0537109, 0.291992, -9.85547, 10.6.2021 14:17:26.541
186, 1.42581, 0.346271, 178.03, -0.000976562, 0.000976562, -0.000976562, 0.0488281, 0.25, -9.90918, 10.6.2021 14:17:26.549
187, 1.4328, 0.346151, 178.03, -0.000976562, -0.000976562, -0.000976562, 0.0654297, 0.286133, -9.89355, 10.6.2021 14:17:26.557
188, 1.4328, 0.346151, 178.03, -0.000976562, -0.000976562, -0.000976562, 0.0761719, 0.239258, -9.86719, 10.6.2021 14:17:26.565
189, 1.4328, 0.346151, 178.03, -0.000976562, -0.00195312, 0, 0.0800781, 0.22168, -9.90137, 10.6.2021 14:17:26.573
190, 1.4328, 0.346151, 178.03, 0, -0.000976562, -0.000976562, 0.0585938, 0.213867, -9.87988, 10.6.2021 14:17:26.581
191, 1.4328, 0.346151, 178.03, -0.000976562, -0.000976562, -0.000976562, 0.078125, 0.224609, -9.8584, 10.6.2021 14:17:26.589
192, 1.4328, 0.346151, 178.03, -0.000976562, 0.000976562, -0.000976562, 0.0400391, 0.238281, -9.83301, 10.6.2021 14:17:26.597
193, 1.4328, 0.346151, 178.03, -0.000976562, -0.000976562, -0.000976562, 0.0429688, 0.238281, -9.83594, 10.6.2021 14:17:26.605
194, 1.4328, 0.346151, 178.03, -0.000976562, -0.000976562, 0, 0.046875, 0.255859, -9.86621, 10.6.2021 14:17:26.613
195, 1.4328, 0.346151, 178.03, -0.000976562, -0.000976562, 0, 0.0419922, 0.253906, -9.87988, 10.6.2021 14:17:26.621
196, 1.4328, 0.346151, 178.03, 0, -0.000976562, -0.000976562, 0.0585938, 0.268555, -9.875, 10.6.2021 14:17:26.629
197, 1.4328, 0.346151, 178.03, 0, -0.000976562, 0, 0.0449219, 0.257812, -9.86133, 10.6.2021 14:17:26.637
198, 1.4328, 0.346151, 178.03, 0, 0.000976562, 0, 0.0517578, 0.236328, -9.85742, 10.6.2021 14:17:26.645
199, 1.4328, 0.346151, 178.03, 0, -0.000976562, -0.000976562, 0.0556641, 0.243164, -9.89551, 10.6.2021 14:17:26.653
200, 1.4328, 0.346151, 178.03, -0.000976562, -0.00195312, 0, 0.0615234, 0.219727, -9.8623, 10.6.2021 14:17:26.661
201, 1.4328, 0.346151, 178.03, 0, -0.00195312, -0.000976562, 0.0644531, 0.231445, -9.84766, 10.6.2021 14:17:26.669
202, 1.43268, 0.339158, 178.03, 0, -0.000976562, -0.000976562, 0.0615234, 0.230469, -9.88379, 10.6.2021 14:17:26.677
203, 1.42569, 0.339278, 178.03, -0.000976562, -0.000976562, 0, 0.0419922, 0.239258, -9.87598, 10.6.2021 14:17:26.685
204, 1.42569, 0.339278, 178.03, 0, -0.000976562, 0, 0.0615234, 0.239258, -9.87402, 10.6.2021 14:17:26.693
205, 1.42569, 0.339278, 178.03, -0.000976562, -0.000976562, 0, 0.0322266, 0.25, -9.90137, 10.6.2021 14:17:26.701
206, 1.42569, 0.339278, 178.03, -0.000976562, -0.000976562, -0.000976562, 0.0654297, 0.280273, -9.87695, 10.6.2021 14:17:26.709
207, 1.42569, 0.339278, 178.03, -0.000976562, -0.000976562, -0.000976562, 0.0712891, 0.236328, -9.83594, 10.6.2021 14:17:26.717
208, 1.42571, 0.339192, 178.023, -0.000976562, -0.000976562, -0.000976562, 0.0683594, 0.237305, -9.87891, 10.6.2021 14:17:26.725
209, 1.42571, 0.339192, 178.023, -0.000976562, 0.000976562, -0.000976562, 0.078125, 0.223633, -9.8916, 10.6.2021 14:17:26.733
210, 1.42571, 0.339192, 178.023, -0.000976562, -0.000976562, -0.00195312, 0.0830078, 0.220703, -9.86328, 10.6.2021 14:17:26.741
211, 1.42571, 0.339192, 178.023, 0, -0.00195312, -0.000976562, 0.0693359, 0.199219, -9.82324, 10.6.2021 14:17:26.749
212, 1.41872, 0.339312, 178.023, 0, 0, 0, 0.0634766, 0.237305, -9.87402, 10.6.2021 14:17:26.755
213, 1.41872, 0.339312, 178.023, 0, 0.000976562, -0.000976562, 0.0517578, 0.265625, -9.85645, 10.6.2021 14:17:26.763
214, 1.41872, 0.339312, 178.023, 0, 0.000976562, -0.000976562, 0.0390625, 0.273438, -9.88477, 10.6.2021 14:17:26.771
215, 1.41884, 0.346305, 178.023, 0, 0, -0.000976562, 0.0517578, 0.264648, -9.83496, 10.6.2021 14:17:26.779
216, 1.41872, 0.339312, 178.023, 0, 0, -0.000976562, 0.0371094, 0.27832, -9.88379, 10.6.2021 14:17:26.787
217, 1.41872, 0.339312, 178.023, -0.000976562, 0, -0.000976562, 0.0849609, 0.249023, -9.86719, 10.6.2021 14:17:26.795
218, 1.41884, 0.346305, 178.023, 0, 0.000976562, -0.000976562, 0.0898438, 0.257812, -9.84277, 10.6.2021 14:17:26.803
219, 1.41884, 0.346305, 178.023, 0, 0.000976562, -0.000976562, 0.0751953, 0.250977, -9.91895, 10.6.2021 14:17:26.811
220, 1.41884, 0.346305, 178.023, 0, 0, 0, 0.0566406, 0.230469, -9.87402, 10.6.2021 14:17:26.819
221, 1.41884, 0.346305, 178.023, -0.000976562, 0, -0.000976562, 0.0615234, 0.229492, -9.86035, 10.6.2021 14:17:26.827
222, 1.41884, 0.346305, 178.023, 0, 0, -0.00195312, 0.0615234, 0.236328, -9.85742, 10.6.2021 14:17:26.835
223, 1.41884, 0.346305, 178.023, 0, 0, -0.000976562, 0.0537109, 0.277344, -9.8584, 10.6.2021 14:17:26.843
224, 1.41884, 0.346305, 178.023, 0, 0, -0.000976562, 0.0136719, 0.28125, -9.84277, 10.6.2021 14:17:26.851
225, 1.42583, 0.346185, 178.023, 0, 0, -0.000976562, 0.0166016, 0.256836, -9.82227, 10.6.2021 14:17:26.859
226, 1.42583, 0.346185, 178.023, -0.000976562, 0.000976562, 0, 0.046875, 0.270508, -9.86035, 10.6.2021 14:17:26.867
227, 1.42583, 0.346185, 178.023, -0.00195312, 0.00195312, 0, 0.0683594, 0.237305, -9.87207, 10.6.2021 14:17:26.875
228, 1.42583, 0.346185, 178.023, -0.000976562, 0.000976562, -0.000976562, 0.078125, 0.265625, -9.86426, 10.6.2021 14:17:26.883
229, 1.43282, 0.346064, 178.023, -0.000976562, 0, -0.000976562, 0.0537109, 0.249023, -9.85645, 10.6.2021 14:17:26.891
230, 1.43282, 0.346064, 178.023, 0, 0.000976562, -0.00195312, 0.0859375, 0.248047, -9.82422, 10.6.2021 14:17:26.899
231, 1.43282, 0.346064, 178.023, -0.000976562, 0.000976562, -0.00195312, 0.0830078, 0.237305, -9.86035, 10.6.2021 14:17:26.907
232, 1.43282, 0.346064, 178.023, 0, 0.000976562, -0.000976562, 0.0615234, 0.227539, -9.86523, 10.6.2021 14:17:26.915
233, 1.43282, 0.346064, 178.023, 0, 0, 0, 0.0332031, 0.240234, -9.81641, 10.6.2021 14:17:26.923
234, 1.43282, 0.346064, 178.023, -0.000976562, 0.000976562, -0.00195312, 0.0322266, 0.260742, -9.85645, 10.6.2021 14:17:26.931
235, 1.43282, 0.346064, 178.023, -0.000976562, 0.000976562, -0.000976562, 0.0634766, 0.251953, -9.89258, 10.6.2021 14:17:26.939
236, 1.43981, 0.345944, 178.023, -0.000976562, 0, 0, 0.0927734, 0.274414, -9.8418, 10.6.2021 14:17:26.947
237, 1.43981, 0.345944, 178.023, -0.000976562, 0, -0.000976562, 0.107422, 0.236328, -9.8418, 10.6.2021 14:17:26.955
238, 1.43981, 0.345944, 178.023, -0.000976562, 0, -0.000976562, 0.0732422, 0.208984, -9.89941, 10.6.2021 14:17:26.963
239, 1.43993, 0.352937, 178.023, 0, 0, 0, 0.0595703, 0.222656, -9.86035, 10.6.2021 14:17:26.971
240, 1.43294, 0.353057, 178.023, -0.000976562, 0, 0, 0.0546875, 0.239258, -9.85938, 10.6.2021 14:17:26.979
241, 1.43294, 0.353057, 178.023, -0.000976562, 0, -0.000976562, 0.0654297, 0.228516, -9.89551, 10.6.2021 14:17:26.987
242, 1.43294, 0.353057, 178.023, -0.000976562, 0.000976562, -0.000976562, 0.0351562, 0.249023, -9.87305, 10.6.2021 14:17:26.995
243, 1.43294, 0.353057, 178.023, 0, 0, -0.000976562, 0.0341797, 0.253906, -9.88281, 10.6.2021 14:17:27.003
244, 1.43294, 0.353057, 178.023, 0.000976562, -0.000976562, -0.000976562, 0.0693359, 0.251953, -9.81836, 10.6.2021 14:17:27.011
245, 1.43294, 0.353057, 178.023, 0, -0.00195312, 0, 0.0761719, 0.255859, -9.85254, 10.6.2021 14:17:27.019
246, 1.43294, 0.353057, 178.023, 0, -0.00195312, -0.000976562, 0.0947266, 0.28125, -9.88477, 10.6.2021 14:17:27.027
247, 1.43294, 0.353057, 178.023, 0.000976562, -0.000976562, -0.000976562, 0.0566406, 0.277344, -9.84375, 10.6.2021 14:17:27.035
248, 1.43294, 0.353057, 178.023, -0.000976562, -0.000976562, -0.000976562, 0.0712891, 0.242188, -9.87207, 10.6.2021 14:17:27.043
249, 1.43294, 0.353057, 178.023, 0, -0.000976562, 0, 0.0615234, 0.229492, -9.85547, 10.6.2021 14:17:27.051
250, 1.43294, 0.353057, 178.023, 0, 0, -0.000976562, 0.0419922, 0.21875, -9.89844, 10.6.2021 14:17:27.059
251, 1.43294, 0.353057, 178.023, -0.000976562, -0.000976562, -0.000976562, 0.0449219, 0.224609, -9.8623, 10.6.2021 14:17:27.067
252, 1.43294, 0.353057, 178.023, -0.000976562, -0.000976562, -0.000976562, 0.0517578, 0.253906, -9.87793, 10.6.2021 14:17:27.075
253, 1.43294, 0.353057, 178.023, -0.000976562, -0.000976562, -0.00195312, 0.0390625, 0.282227, -9.87012, 10.6.2021 14:17:27.083
254, 1.43294, 0.353057, 178.023, -0.000976562, 0, -0.000976562, 0.0537109, 0.255859, -9.85645, 10.6.2021 14:17:27.091
255, 1.43294, 0.353057, 178.023, -0.000976562, 0, 0, 0.0244141, 0.285156, -9.88574, 10.6.2021 14:17:27.099
256, 1.43981, 0.345944, 178.023, -0.000976562, -0.000976562, -0.000976562, 0.0419922, 0.259766, -9.89648, 10.6.2021 14:17:27.107
257, 1.43981, 0.345944, 178.023, 0, -0.000976562, -0.000976562, 0.0820312, 0.257812, -9.9043, 10.6.2021 14:17:27.115
258, 1.43981, 0.345944, 178.023, 0, 0, -0.000976562, 0.0683594, 0.22168, -9.85059, 10.6.2021 14:17:27.123
259, 1.43981, 0.345944, 178.023, 0, 0, 0, 0.0585938, 0.227539, -9.88379, 10.6.2021 14:17:27.131
260, 1.43981, 0.345944, 178.023, 0, 0, 0, 0.0712891, 0.210938, -9.87012, 10.6.2021 14:17:27.139
261, 1.43981, 0.345944, 178.023, -0.000976562, -0.000976562, -0.000976562, 0.0595703, 0.236328, -9.84082, 10.6.2021 14:17:27.147
262, 1.43282, 0.346064, 178.023, -0.000976562, -0.000976562, 0, 0.0185547, 0.225586, -9.83301, 10.6.2021 14:17:27.155
263, 1.43282, 0.346064, 178.023, 0, -0.000976562, -0.000976562, 0.0410156, 0.242188, -9.7998, 10.6.2021 14:17:27.163
264, 1.4327, 0.339071, 178.023, 0, -0.000976562, 0, 0.0449219, 0.241211, -9.86426, 10.6.2021 14:17:27.171
265, 1.4327, 0.339071, 178.023, 0, -0.00195312, 0, 0.0419922, 0.275391, -9.86328, 10.6.2021 14:17:27.179
266, 1.4327, 0.339071, 178.023, 0, -0.000976562, -0.000976562, 0.0654297, 0.265625, -9.86816, 10.6.2021 14:17:27.187
267, 1.4327, 0.339071, 178.023, 0, -0.000976562, -0.000976562, 0.0742188, 0.25, -9.81641, 10.6.2021 14:17:27.195
268, 1.4327, 0.339071, 178.023, 0, -0.000976562, 0, 0.0810547, 0.241211, -9.8457, 10.6.2021 14:17:27.203
269, 1.43258, 0.332078, 178.023, 0, -0.00195312, 0, 0.078125, 0.253906, -9.86914, 10.6.2021 14:17:27.211
270, 1.43256, 0.332166, 178.03, 0, 0, -0.000976562, 0.0341797, 0.237305, -9.89258, 10.6.2021 14:17:27.219
271, 1.43256, 0.332166, 178.03, -0.000976562, -0.000976562, 0.00195312, 0.0566406, 0.194336, -9.8877, 10.6.2021 14:17:27.227
272, 1.43256, 0.332166, 178.03, -0.000976562, -0.000976562, 0, 0.0302734, 0.241211, -9.84961, 10.6.2021 14:17:27.235
273, 1.43256, 0.332166, 178.03, 0, -0.000976562, -0.000976562, 0.0566406, 0.259766, -9.81836, 10.6.2021 14:17:27.243
274, 1.43256, 0.332166, 178.03, 0, -0.000976562, -0.000976562, 0.0761719, 0.28125, -9.82031, 10.6.2021 14:17:27.251
275, 1.43256, 0.332166, 178.03, 0, -0.000976562, -0.000976562, 0.0732422, 0.267578, -9.84668, 10.6.2021 14:17:27.259
276, 1.43256, 0.332166, 178.03, 0.000976562, 0.000976562, -0.000976562, 0.0732422, 0.265625, -9.86133, 10.6.2021 14:17:27.267
277, 1.43256, 0.332166, 178.03, -0.000976562, -0.000976562, 0, 0.0722656, 0.277344, -9.91309, 10.6.2021 14:17:27.275
278, 1.43256, 0.332166, 178.03, 0, 0.000976562, -0.000976562, 0.0683594, 0.225586, -9.87207, 10.6.2021 14:17:27.283
279, 1.43256, 0.332166, 178.03, -0.000976562, 0, -0.000976562, 0.0498047, 0.241211, -9.85742, 10.6.2021 14:17:27.291
280, 1.43268, 0.339158, 178.03, -0.000976562, -0.000976562, 0, 0.0537109, 0.230469, -9.88379, 10.6.2021 14:17:27.299
281, 1.43268, 0.339158, 178.03, -0.000976562, -0.000976562, -0.000976562, 0.0654297, 0.223633, -9.8916, 10.6.2021 14:17:27.307
282, 1.43268, 0.339158, 178.03, 0, -0.000976562, -0.000976562, 0.0546875, 0.229492, -9.85547, 10.6.2021 14:17:27.315
283, 1.43268, 0.339158, 178.03, 0, 0, 0, 0.0566406, 0.277344, -9.84375, 10.6.2021 14:17:27.323
284, 1.43268, 0.339158, 178.03, -0.00195312, 0, 0, 0.0664062, 0.28125, -9.8418, 10.6.2021 14:17:27.331
285, 1.43268, 0.339158, 178.03, -0.000976562, -0.000976562, 0, 0.0566406, 0.268555, -9.875, 10.6.2021 14:17:27.339
286, 1.43967, 0.339038, 178.03, 0, -0.000976562, 0, 0.0615234, 0.274414, -9.85156, 10.6.2021 14:17:27.347
287, 1.43967, 0.339038, 178.03, 0, -0.000976562, -0.000976562, 0.0761719, 0.237305, -9.86035, 10.6.2021 14:17:27.355
288, 1.43967, 0.339038, 178.03, -0.000976562, -0.000976562, 0, 0.0585938, 0.246094, -9.85938, 10.6.2021 14:17:27.363
289, 1.43967, 0.339038, 178.03, -0.000976562, 0, 0, 0.0664062, 0.211914, -9.83691, 10.6.2021 14:17:27.371
290, 1.43967, 0.339038, 178.03, 0, 0, 0.000976562, 0.0527344, 0.216797, -9.83594, 10.6.2021 14:17:27.379
291, 1.43979, 0.346031, 178.03, -0.000976562, -0.000976562, 0, 0.0585938, 0.25, -9.8877, 10.6.2021 14:17:27.387
292, 1.43979, 0.346031, 178.03, -0.000976562, -0.000976562, -0.000976562, 0.0566406, 0.251953, -9.87598, 10.6.2021 14:17:27.395
293, 1.43979, 0.346031, 178.03, 0, -0.00195312, -0.000976562, 0.0439453, 0.253906, -9.87305, 10.6.2021 14:17:27.403
294, 1.43967, 0.339038, 178.03, 0.000976562, -0.00195312, 0, 0.0419922, 0.282227, -9.85547, 10.6.2021 14:17:27.411
295, 1.43967, 0.339038, 178.03, 0, -0.000976562, -0.000976562, 0.0371094, 0.267578, -9.8584, 10.6.2021 14:17:27.419
296, 1.43967, 0.339038, 178.03, -0.000976562, 0, -0.000976562, 0.0849609, 0.267578, -9.85449, 10.6.2021 14:17:27.427
297, 1.43967, 0.339038, 178.03, -0.000976562, -0.000976562, 0, 0.0537109, 0.255859, -9.86328, 10.6.2021 14:17:27.435
298, 1.44666, 0.338919, 178.03, 0, -0.000976562, -0.000976562, 0.078125, 0.224609, -9.84375, 10.6.2021 14:17:27.443
299, 1.44666, 0.338919, 178.03, 0, -0.000976562, -0.000976562, 0.0644531, 0.232422, -9.81445, 10.6.2021 14:17:27.451
300, 1.44666, 0.338919, 178.03, 0, -0.000976562, -0.000976562, 0.0585938, 0.248047, -9.85254, 10.6.2021 14:17:27.459
301, 1.44666, 0.338919, 178.03, -0.000976562, -0.000976562, -0.000976562, 0.0419922, 0.237305, -9.87402, 10.6.2021 14:17:27.467
302, 1.44666, 0.338919, 178.03, 0, -0.000976562, 0, 0.0605469, 0.262695, -9.9043, 10.6.2021 14:17:27.475
303, 1.44666, 0.338919, 178.03, 0, -0.00195312, 0, 0.0722656, 0.244141, -9.92383, 10.6.2021 14:17:27.483
304, 1.44666, 0.338919, 178.03, 0, -0.000976562, 0, 0.0732422, 0.259766, -9.8877, 10.6.2021 14:17:27.491
305, 1.44666, 0.338919, 178.03, 0, -0.000976562, 0, 0.0634766, 0.27832, -9.875, 10.6.2021 14:17:27.499
306, 1.44678, 0.345912, 178.03, -0.000976562, -0.000976562, 0, 0.0927734, 0.256836, -9.86914, 10.6.2021 14:17:27.507
307, 1.44678, 0.345912, 178.03, -0.000976562, -0.000976562, 0.000976562, 0.0878906, 0.250977, -9.8457, 10.6.2021 14:17:27.515
308, 1.44678, 0.345912, 178.03, 0, -0.000976562, 0, 0.0830078, 0.231445, -9.84375, 10.6.2021 14:17:27.523
309, 1.44678, 0.345912, 178.03, -0.000976562, 0, 0, 0.0595703, 0.231445, -9.85059, 10.6.2021 14:17:27.531
310, 1.4469, 0.352904, 178.03, 0, -0.000976562, -0.000976562, 0.0810547, 0.244141, -9.85742, 10.6.2021 14:17:27.539
311, 1.4469, 0.352904, 178.03, 0, -0.000976562, -0.000976562, 0.0615234, 0.229492, -9.84766, 10.6.2021 14:17:27.547
312, 1.4469, 0.352904, 178.03, 0, -0.000976562, -0.000976562, 0.0302734, 0.250977, -9.85352, 10.6.2021 14:17:27.555
313, 1.4469, 0.352904, 178.03, -0.000976562, -0.000976562, 0, 0.0419922, 0.28418, -9.85547, 10.6.2021 14:17:27.563
314, 1.4469, 0.352904, 178.03, 0, -0.000976562, 0, 0.0605469, 0.291016, -9.89844, 10.6.2021 14:17:27.571
315, 1.4469, 0.352904, 178.03, -0.000976562, 0, -0.000976562, 0.0517578, 0.270508, -9.87988, 10.6.2021 14:17:27.579
316, 1.4469, 0.352904, 178.03, -0.000976562, -0.000976562, 0, 0.0996094, 0.253906, -9.86719, 10.6.2021 14:17:27.587
317, 1.45389, 0.352785, 178.03, -0.000976562, -0.00195312, 0, 0.0761719, 0.224609, -9.83887, 10.6.2021 14:17:27.595
318, 1.45401, 0.359777, 178.03, -0.000976562, -0.000976562, 0.000976562, 0.0878906, 0.213867, -9.88281, 10.6.2021 14:17:27.603
319, 1.45401, 0.359777, 178.03, 0, -0.000976562, 0, 0.0664062, 0.229492, -9.8457, 10.6.2021 14:17:27.611
320, 1.45401, 0.359777, 178.03, -0.000976562, -0.00195312, -0.000976562, 0.0742188, 0.233398, -9.83105, 10.6.2021 14:17:27.619
321, 1.44702, 0.359897, 178.03, -0.000976562, -0.000976562, -0.000976562, 0.0351562, 0.238281, -9.84961, 10.6.2021 14:17:27.627
322, 1.44702, 0.359897, 178.03, -0.000976562, -0.000976562, -0.000976562, 0.0371094, 0.240234, -9.89453, 10.6.2021 14:17:27.635
323, 1.44702, 0.359897, 178.03, 0.000976562, -0.000976562, -0.000976562, 0.046875, 0.280273, -9.88184, 10.6.2021 14:17:27.643
324, 1.44702, 0.359897, 178.03, 0, -0.00195312, 0, 0.0810547, 0.245117, -9.82129, 10.6.2021 14:17:27.651
325, 1.44702, 0.359897, 178.03, -0.000976562, 0, 0, 0.0683594, 0.253906, -9.86133, 10.6.2021 14:17:27.659
326, 1.44702, 0.359897, 178.03, -0.000976562, -0.000976562, 0, 0.0751953, 0.253906, -9.86133, 10.6.2021 14:17:27.667
327, 1.44702, 0.359897, 178.03, 0, -0.00195312, 0, 0.0712891, 0.262695, -9.83789, 10.6.2021 14:17:27.675
328, 1.44702, 0.359897, 178.03, 0, 0, -0.000976562, 0.0634766, 0.255859, -9.85449, 10.6.2021 14:17:27.683
329, 1.44702, 0.359897, 178.03, 0, -0.000976562, -0.000976562, 0.0615234, 0.242188, -9.86426, 10.6.2021 14:17:27.691
330, 1.44702, 0.359897, 178.03, 0, -0.000976562, -0.000976562, 0.0234375, 0.236328, -9.84961, 10.6.2021 14:17:27.699
331, 1.44702, 0.359897, 178.03, 0, -0.000976562, 0, 0.0253906, 0.24707, -9.8877, 10.6.2021 14:17:27.707
332, 1.44702, 0.359897, 178.03, -0.000976562, -0.00195312, 0, 0.0419922, 0.253906, -9.87109, 10.6.2021 14:17:27.715
333, 1.44702, 0.359897, 178.03, -0.000976562, 0, -0.000976562, 0.0585938, 0.275391, -9.86523, 10.6.2021 14:17:27.723
334, 1.44702, 0.359897, 178.03, -0.000976562, 0, -0.00195312, 0.0683594, 0.244141, -9.86914, 10.6.2021 14:17:27.731
335, 1.44702, 0.359897, 178.03, -0.000976562, -0.000976562, 0, 0.0664062, 0.258789, -9.81348, 10.6.2021 14:17:27.739
336, 1.44702, 0.359897, 178.03, -0.000976562, 0, -0.000976562, 0.0703125, 0.240234, -9.88086, 10.6.2021 14:17:27.747
337, 1.44702, 0.359897, 178.03, 0, 0, -0.000976562, 0.0517578, 0.245117, -9.88574, 10.6.2021 14:17:27.755
338, 1.4469, 0.352904, 178.03, -0.000976562, 0, -0.000976562, 0.0634766, 0.231445, -9.85742, 10.6.2021 14:17:27.763
339, 1.4469, 0.352904, 178.03, -0.000976562, -0.00195312, -0.000976562, 0.0302734, 0.205078, -9.85352, 10.6.2021 14:17:27.771
340, 1.4469, 0.352904, 178.03, 0, -0.00195312, -0.000976562, 0.046875, 0.234375, -9.85449, 10.6.2021 14:17:27.779
341, 1.4469, 0.352904, 178.03, 0, -0.000976562, -0.000976562, 0.0537109, 0.28418, -9.8584, 10.6.2021 14:17:27.787
342, 1.4469, 0.352904, 178.03, -0.000976562, 0, 0, 0.0351562, 0.280273, -9.86523, 10.6.2021 14:17:27.795
343, 1.44678, 0.345912, 178.03, -0.000976562, -0.000976562, -0.000976562, 0.0585938, 0.277344, -9.86328, 10.6.2021 14:17:27.803
344, 1.44678, 0.345912, 178.03, 0, -0.000976562, -0.000976562, 0.0683594, 0.269531, -9.89258, 10.6.2021 14:17:27.811
345, 1.44678, 0.345912, 178.03, -0.000976562, 0, -0.000976562, 0.0800781, 0.272461, -9.8584, 10.6.2021 14:17:27.819
346, 1.45377, 0.345792, 178.03, -0.000976562, 0, 0, 0.0576172, 0.255859, -9.91895, 10.6.2021 14:17:27.827
347, 1.45377, 0.345792, 178.03, -0.000976562, 0, 0, 0.0498047, 0.254883, -9.83789, 10.6.2021 14:17:27.835
348, 1.45377, 0.345792, 178.03, -0.000976562, -0.000976562, 0, 0.0595703, 0.241211, -9.84766, 10.6.2021 14:17:27.843
349, 1.45377, 0.345792, 178.03, 0, -0.000976562, 0, 0.0449219, 0.232422, -9.87402, 10.6.2021 14:17:27.851
350, 1.45377, 0.345792, 178.03, 0, -0.000976562, -0.000976562, 0.0498047, 0.21875, -9.83887, 10.6.2021 14:17:27.857
351, 1.45377, 0.345792, 178.03, -0.000976562, -0.000976562, -0.000976562, 0.0400391, 0.264648, -9.84375, 10.6.2021 14:17:27.867
352, 1.45365, 0.338799, 178.03, -0.000976562, -0.000976562, 0, 0.0419922, 0.270508, -9.8584, 10.6.2021 14:17:27.873
353, 1.45365, 0.338799, 178.03, -0.000976562, -0.000976562, -0.00195312, 0.0351562, 0.238281, -9.84473, 10.6.2021 14:17:27.881
354, 1.45365, 0.338799, 178.03, 0, 0.000976562, -0.000976562, 0.0283203, 0.250977, -9.85156, 10.6.2021 14:17:27.889
355, 1.45365, 0.338799, 178.03, -0.000976562, -0.000976562, 0, 0.0703125, 0.251953, -9.87891, 10.6.2021 14:17:27.897
356, 1.45365, 0.338799, 178.03, -0.000976562, 0, 0, 0.0664062, 0.231445, -9.8457, 10.6.2021 14:17:27.905
357, 1.45353, 0.331806, 178.03, 0, -0.000976562, -0.000976562, 0.0732422, 0.244141, -9.87402, 10.6.2021 14:17:27.913
358, 1.45353, 0.331806, 178.03, 0, -0.000976562, 0, 0.0537109, 0.230469, -9.88379, 10.6.2021 14:17:27.921
359, 1.45353, 0.331806, 178.03, 0, 0.000976562, -0.000976562, 0.0615234, 0.236328, -9.85742, 10.6.2021 14:17:27.929
360, 1.45353, 0.331806, 178.03, 0, -0.000976562, 0, 0.0136719, 0.253906, -9.81543, 10.6.2021 14:17:27.937
361, 1.45353, 0.331806, 178.03, -0.000976562, -0.00195312, 0, 0.0332031, 0.238281, -9.84961, 10.6.2021 14:17:27.945
362, 1.45341, 0.324813, 178.03, 0, -0.000976562, -0.000976562, 0.0351562, 0.28418, -9.86035, 10.6.2021 14:17:27.953
363, 1.45341, 0.324813, 178.03, 0, -0.000976562, 0, 0.0351562, 0.268555, -9.87207, 10.6.2021 14:17:27.961
364, 1.45341, 0.324813, 178.03, 0, -0.000976562, -0.000976562, 0.0996094, 0.241211, -9.90332, 10.6.2021 14:17:27.969
365, 1.45341, 0.324813, 178.03, -0.000976562, -0.000976562, 0, 0.0683594, 0.268555, -9.88965, 10.6.2021 14:17:27.977
366, 1.45341, 0.324813, 178.03, 0, -0.000976562, -0.000976562, 0.0664062, 0.268555, -9.86621, 10.6.2021 14:17:27.985
367, 1.45341, 0.324813, 178.03, -0.000976562, -0.00195312, -0.000976562, 0.0683594, 0.227539, -9.87207, 10.6.2021 14:17:27.993
368, 1.45341, 0.324813, 178.03, -0.000976562, -0.000976562, -0.000976562, 0.0429688, 0.223633, -9.83398, 10.6.2021 14:17:28.001
369, 1.45329, 0.31782, 178.03, 0, -0.00292969, -0.000976562, 0.0302734, 0.244141, -9.87598, 10.6.2021 14:17:28.009
370, 1.45329, 0.31782, 178.03, 0, -0.000976562, -0.000976562, 0.0585938, 0.257812, -9.84668, 10.6.2021 14:17:28.017
371, 1.45329, 0.31782, 178.03, 0, 0, 0.000976562, 0.0322266, 0.224609, -9.86914, 10.6.2021 14:17:28.025
372, 1.45329, 0.31782, 178.03, -0.000976562, 0, 0, 0.0371094, 0.275391, -9.87207, 10.6.2021 14:17:28.033
373, 1.45329, 0.31782, 178.03, -0.000976562, -0.000976562, -0.000976562, 0.0595703, 0.276367, -9.82227, 10.6.2021 14:17:28.041
374, 1.45329, 0.31782, 178.03, 0, 0.000976562, -0.000976562, 0.0820312, 0.300781, -9.90527, 10.6.2021 14:17:28.049
375, 1.45329, 0.31782, 178.03, 0, -0.000976562, 0, 0.0917969, 0.271484, -9.89453, 10.6.2021 14:17:28.057
376, 1.45329, 0.31782, 178.03, 0, 0.000976562, -0.000976562, 0.111328, 0.260742, -9.85938, 10.6.2021 14:17:28.065
377, 1.46028, 0.3177, 178.03, -0.000976562, -0.000976562, 0, 0.0664062, 0.249023, -9.85449, 10.6.2021 14:17:28.073
378, 1.4604, 0.324693, 178.03, -0.000976562, -0.000976562, 0, 0.078125, 0.244141, -9.8623, 10.6.2021 14:17:28.081
379, 1.4604, 0.324693, 178.03, 0, 0.000976562, -0.000976562, 0.0615234, 0.265625, -9.86816, 10.6.2021 14:17:28.089
380, 1.4604, 0.324693, 178.03, 0, -0.000976562, 0, 0.046875, 0.231445, -9.84277, 10.6.2021 14:17:28.097
381, 1.4604, 0.324693, 178.03, 0, -0.000976562, 0, 0.0410156, 0.227539, -9.7998, 10.6.2021 14:17:28.105
382, 1.4604, 0.324693, 178.03, 0, 0, 0, 0.0322266, 0.249023, -9.86133, 10.6.2021 14:17:28.113
383, 1.4604, 0.324693, 178.03, 0, -0.00195312, 0, 0.0683594, 0.262695, -9.83789, 10.6.2021 14:17:28.121
384, 1.4604, 0.324693, 178.03, -0.000976562, 0, 0, 0.0634766, 0.265625, -9.8584, 10.6.2021 14:17:28.129
385, 1.46052, 0.331686, 178.03, 0, -0.000976562, 0, 0.0849609, 0.271484, -9.89258, 10.6.2021 14:17:28.137
386, 1.46052, 0.331686, 178.03, 0, -0.000976562, -0.000976562, 0.0878906, 0.236328, -9.85059, 10.6.2021 14:17:28.145
387, 1.46052, 0.331686, 178.03, 0, -0.000976562, -0.000976562, 0.0537109, 0.251953, -9.87598, 10.6.2021 14:17:28.153
388, 1.46052, 0.331686, 178.03, -0.00195312, -0.00195312, 0, 0.0546875, 0.219727, -9.84375, 10.6.2021 14:17:28.161
389, 1.46052, 0.331686, 178.03, -0.000976562, -0.000976562, 0, 0.0683594, 0.229492, -9.85059, 10.6.2021 14:17:28.169
390, 1.46052, 0.331686, 178.03, -0.000976562, -0.00195312, -0.000976562, 0.0449219, 0.236328, -9.84766, 10.6.2021 14:17:28.177
391, 1.46052, 0.331686, 178.03, 0, -0.000976562, 0, 0.0380859, 0.223633, -9.84277, 10.6.2021 14:17:28.185
392, 1.46064, 0.338679, 178.03, 0, 0.000976562, -0.000976562, 0.0634766, 0.273438, -9.87012, 10.6.2021 14:17:28.193
393, 1.46064, 0.338679, 178.03, -0.000976562, -0.000976562, -0.000976562, 0.0517578, 0.291992, -9.87207, 10.6.2021 14:17:28.201
394, 1.46064, 0.338679, 178.03, 0, -0.000976562, 0, 0.0712891, 0.272461, -9.85645, 10.6.2021 14:17:28.209
395, 1.46064, 0.338679, 178.03, -0.000976562, -0.000976562, 0, 0.0751953, 0.251953, -9.87891, 10.6.2021 14:17:28.217
396, 1.46064, 0.338679, 178.03, -0.000976562, -0.00195312, 0, 0.0615234, 0.250977, -9.84961, 10.6.2021 14:17:28.225
397, 1.46064, 0.338679, 178.03, -0.000976562, 0, 0, 0.0664062, 0.230469, -9.87695, 10.6.2021 14:17:28.233
398, 1.46064, 0.338679, 178.03, -0.000976562, 0, 0, 0.0439453, 0.248047, -9.90234, 10.6.2021 14:17:28.241
399, 1.46064, 0.338679, 178.03, -0.000976562, 0, 0, 0.0546875, 0.219727, -9.85352, 10.6.2021 14:17:28.249
400, 1.46064, 0.338679, 178.03, -0.000976562, -0.000976562, -0.00195312, 0.0595703, 0.243164, -9.84277, 10.6.2021 14:17:28.257
401, 1.46064, 0.338679, 178.03, 0, -0.00195312, 0, 0.0498047, 0.233398, -9.82129, 10.6.2021 14:17:28.265
402, 1.46064, 0.338679, 178.03, -0.000976562, -0.00195312, 0, 0.0683594, 0.271484, -9.83203, 10.6.2021 14:17:28.273
403, 1.46064, 0.338679, 178.03, -0.000976562, -0.000976562, 0, 0.078125, 0.263672, -9.87793, 10.6.2021 14:17:28.281
404, 1.46064, 0.338679, 178.03, 0, -0.000976562, 0, 0.0927734, 0.28418, -9.84668, 10.6.2021 14:17:28.289
405, 1.46076, 0.345672, 178.03, 0, -0.00195312, 0, 0.0878906, 0.271484, -9.83301, 10.6.2021 14:17:28.297
406, 1.46076, 0.345672, 178.03, -0.000976562, -0.00195312, 0.000976562, 0.0830078, 0.234375, -9.8457, 10.6.2021 14:17:28.305
407, 1.46076, 0.345672, 178.03, -0.000976562, -0.000976562, 0, 0.0527344, 0.240234, -9.82129, 10.6.2021 14:17:28.313
408, 1.46076, 0.345672, 178.03, -0.000976562, -0.000976562, 0, 0.0498047, 0.224609, -9.86035, 10.6.2021 14:17:28.321
409, 1.46076, 0.345672, 178.03, -0.000976562, 0, 0, 0.046875, 0.248047, -9.84277, 10.6.2021 14:17:28.329
410, 1.46076, 0.345672, 178.03, -0.000976562, -0.000976562, 0, 0.0517578, 0.234375, -9.86426, 10.6.2021 14:17:28.337
411, 1.46086, 0.352753, 178.037, -0.000976562, -0.000976562, 0, 0.0488281, 0.257812, -9.8584, 10.6.2021 14:17:28.345
412, 1.46086, 0.352753, 178.037, -0.000976562, -0.000976562, -0.000976562, 0.0517578, 0.246094, -9.86621, 10.6.2021 14:17:28.353
413, 1.46088, 0.352665, 178.03, 0, -0.00195312, -0.000976562, 0.0908203, 0.25, -9.82422, 10.6.2021 14:17:28.361
414, 1.46088, 0.352665, 178.03, 0, -0.000976562, -0.000976562, 0.0800781, 0.25, -9.88086, 10.6.2021 14:17:28.369
415, 1.45389, 0.352785, 178.03, 0, -0.000976562, -0.000976562, 0.0878906, 0.266602, -9.82129, 10.6.2021 14:17:28.377
416, 1.45389, 0.352785, 178.03, -0.000976562, -0.000976562, -0.000976562, 0.0849609, 0.239258, -9.8623, 10.6.2021 14:17:28.385
417, 1.45389, 0.352785, 178.03, -0.000976562, -0.000976562, -0.00195312, 0.0585938, 0.220703, -9.875, 10.6.2021 14:17:28.393
418, 1.45401, 0.359777, 178.03, 0, -0.000976562, -0.000976562, 0.0898438, 0.223633, -9.88672, 10.6.2021 14:17:28.401
419, 1.45401, 0.359777, 178.03, -0.000976562, -0.00195312, 0, 0.0498047, 0.222656, -9.8125, 10.6.2021 14:17:28.409
420, 1.45401, 0.359777, 178.03, -0.000976562, -0.000976562, 0, 0.046875, 0.259766, -9.8418, 10.6.2021 14:17:28.417
421, 1.45401, 0.359777, 178.03, 0, 0, 0, 0.0302734, 0.250977, -9.86621, 10.6.2021 14:17:28.425
422, 1.44702, 0.359897, 178.03, 0, -0.000976562, -0.000976562, 0.0712891, 0.236328, -9.83398, 10.6.2021 14:17:28.433
423, 1.44702, 0.359897, 178.03, 0, -0.000976562, 0, 0.0439453, 0.258789, -9.88477, 10.6.2021 14:17:28.441
424, 1.44702, 0.359897, 178.03, 0, -0.000976562, 0, 0.0654297, 0.272461, -9.91113, 10.6.2021 14:17:28.449
425, 1.44702, 0.359897, 178.03, 0, -0.00195312, 0, 0.0615234, 0.248047, -9.84961, 10.6.2021 14:17:28.457
426, 1.44702, 0.359897, 178.03, -0.000976562, -0.00195312, 0, 0.0585938, 0.234375, -9.86914, 10.6.2021 14:17:28.465
427, 1.44702, 0.359897, 178.03, -0.000976562, -0.00195312, 0, 0.0498047, 0.243164, -9.83984, 10.6.2021 14:17:28.473
428, 1.44702, 0.359897, 178.03, -0.000976562, -0.000976562, 0, 0.0429688, 0.223633, -9.81934, 10.6.2021 14:17:28.481
429, 1.44003, 0.360017, 178.03, 0, 0, -0.000976562, 0.0830078, 0.236328, -9.8291, 10.6.2021 14:17:28.489
430, 1.44003, 0.360017, 178.03, -0.000976562, -0.000976562, -0.000976562, 0.0712891, 0.242188, -9.86426, 10.6.2021 14:17:28.497
431, 1.44003, 0.360017, 178.03, 0, -0.000976562, -0.000976562, 0.0664062, 0.233398, -9.84082, 10.6.2021 14:17:28.505
432, 1.44003, 0.360017, 178.03, -0.000976562, -0.000976562, -0.000976562, 0.0751953, 0.261719, -9.87793, 10.6.2021 14:17:28.513
433, 1.44003, 0.360017, 178.03, 0, -0.000976562, -0.000976562, 0.0537109, 0.263672, -9.87988, 10.6.2021 14:17:28.521
434, 1.44003, 0.360017, 178.03, -0.000976562, -0.000976562, -0.000976562, 0.0488281, 0.259766, -9.89453, 10.6.2021 14:17:28.529
435, 1.44003, 0.360017, 178.03, 0, 0.000976562, 0, 0.0322266, 0.227539, -9.87109, 10.6.2021 14:17:28.537
436, 1.44003, 0.360017, 178.03, 0.000976562, 0.000976562, -0.000976562, 0.078125, 0.249023, -9.86914, 10.6.2021 14:17:28.545
437, 1.43304, 0.360137, 178.03, -0.000976562, 0.000976562, 0, 0.0546875, 0.219727, -9.8457, 10.6.2021 14:17:28.553
438, 1.43304, 0.360137, 178.03, 0, 0, 0, 0.0683594, 0.212891, -9.86328, 10.6.2021 14:17:28.561
439, 1.43304, 0.360137, 178.03, 0, 0, 0.000976562, 0.078125, 0.22168, -9.84668, 10.6.2021 14:17:28.569
440, 1.43304, 0.360137, 178.03, 0, 0, 0, 0.0283203, 0.264648, -9.84668, 10.6.2021 14:17:28.577
441, 1.43304, 0.360137, 178.03, -0.000976562, 0, -0.000976562, 0.0400391, 0.277344, -9.86035, 10.6.2021 14:17:28.585
442, 1.43292, 0.353144, 178.03, 0, 0, -0.000976562, 0.0439453, 0.277344, -9.86719, 10.6.2021 14:17:28.593
443, 1.43292, 0.353144, 178.03, 0, 0.000976562, 0, 0.0849609, 0.283203, -9.86816, 10.6.2021 14:17:28.601
444, 1.43292, 0.353144, 178.03, 0, 0, -0.000976562, 0.0878906, 0.277344, -9.83984, 10.6.2021 14:17:28.609
445, 1.43292, 0.353144, 178.03, 0, -0.000976562, 0, 0.0566406, 0.246094, -9.85449, 10.6.2021 14:17:28.617
446, 1.43292, 0.353144, 178.03, 0, 0, -0.00195312, 0.0830078, 0.253906, -9.8623, 10.6.2021 14:17:28.625
447, 1.43292, 0.353144, 178.03, -0.000976562, 0, -0.000976562, 0.0664062, 0.209961, -9.84863, 10.6.2021 14:17:28.633
448, 1.43304, 0.360137, 178.03, 0, 0.000976562, 0, 0.0615234, 0.241211, -9.85742, 10.6.2021 14:17:28.641
449, 1.43304, 0.360137, 178.03, -0.000976562, 0, -0.000976562, 0.0390625, 0.24707, -9.88281, 10.6.2021 14:17:28.649
450, 1.43304, 0.360137, 178.03, -0.000976562, 0, 0, 0.0566406, 0.232422, -9.88086, 10.6.2021 14:17:28.657
451, 1.43304, 0.360137, 178.03, -0.000976562, 0, -0.000976562, 0.0253906, 0.279297, -9.84082, 10.6.2021 14:17:28.665
452, 1.43292, 0.353144, 178.03, 0, 0, 0, 0.0732422, 0.268555, -9.87305, 10.6.2021 14:17:28.673
453, 1.43991, 0.353024, 178.03, 0, 0, -0.000976562, 0.0537109, 0.260742, -9.86133, 10.6.2021 14:17:28.681
454, 1.43991, 0.353024, 178.03, 0, 0, 0, 0.0615234, 0.270508, -9.85645, 10.6.2021 14:17:28.689
455, 1.43991, 0.353024, 178.03, 0.000976562, 0, 0, 0.0869141, 0.254883, -9.90527, 10.6.2021 14:17:28.697
456, 1.43991, 0.353024, 178.03, 0, 0.000976562, 0, 0.0566406, 0.234375, -9.84766, 10.6.2021 14:17:28.705
457, 1.43991, 0.353024, 178.03, 0, 0, -0.000976562, 0.0644531, 0.200195, -9.8418, 10.6.2021 14:17:28.713
458, 1.43991, 0.353024, 178.03, 0, -0.000976562, 0, 0.0810547, 0.214844, -9.85352, 10.6.2021 14:17:28.721
459, 1.43991, 0.353024, 178.03, -0.000976562, 0, 0, 0.0537109, 0.250977, -9.85938, 10.6.2021 14:17:28.729
460, 1.43991, 0.353024, 178.03, -0.000976562, 0, -0.000976562, 0.0351562, 0.268555, -9.87207, 10.6.2021 14:17:28.737
461, 1.43991, 0.353024, 178.03, 0, 0.000976562, -0.000976562, 0.0351562, 0.255859, -9.8584, 10.6.2021 14:17:28.745
462, 1.43991, 0.353024, 178.03, -0.000976562, 0, 0, 0.0615234, 0.250977, -9.86914, 10.6.2021 14:17:28.753
463, 1.43991, 0.353024, 178.03, 0, -0.000976562, 0, 0.0654297, 0.266602, -9.8877, 10.6.2021 14:17:28.761
464, 1.43991, 0.353024, 178.03, 0, 0, -0.000976562, 0.0605469, 0.233398, -9.89355, 10.6.2021 14:17:28.769
465, 1.43991, 0.353024, 178.03, 0, 0, -0.000976562, 0.078125, 0.227539, -9.86523, 10.6.2021 14:17:28.777
466, 1.43991, 0.353024, 178.03, -0.000976562, 0, 0, 0.0732422, 0.234375, -9.85059, 10.6.2021 14:17:28.785
467, 1.43292, 0.353144, 178.03, 0, -0.000976562, 0, 0.0498047, 0.206055, -9.86328, 10.6.2021 14:17:28.793
468, 1.43292, 0.353144, 178.03, -0.000976562, -0.000976562, 0, 0.0566406, 0.238281, -9.8457, 10.6.2021 14:17:28.801
469, 1.43292, 0.353144, 178.03, 0, 0.000976562, -0.000976562, 0.0537109, 0.24707, -9.88574, 10.6.2021 14:17:28.809
470, 1.43292, 0.353144, 178.03, -0.000976562, -0.000976562, -0.000976562, 0.0419922, 0.263672, -9.87988, 10.6.2021 14:17:28.817
471, 1.43292, 0.353144, 178.03, 0, -0.000976562, -0.000976562, 0.0419922, 0.275391, -9.86328, 10.6.2021 14:17:28.825
472, 1.43292, 0.353144, 178.03, 0, 0, 0, 0.0488281, 0.250977, -9.86426, 10.6.2021 14:17:28.833
473, 1.4328, 0.346151, 178.03, -0.000976562, -0.000976562, 0, 0.0449219, 0.249023, -9.86621, 10.6.2021 14:17:28.841
474, 1.4328, 0.346151, 178.03, -0.000976562, -0.000976562, -0.000976562, 0.0761719, 0.241211, -9.85742, 10.6.2021 14:17:28.849
475, 1.4328, 0.346151, 178.03, -0.000976562, 0, 0, 0.0683594, 0.250977, -9.85938, 10.6.2021 14:17:28.857
476, 1.4328, 0.346151, 178.03, -0.000976562, 0, 0, 0.0712891, 0.244141, -9.86719, 10.6.2021 14:17:28.865
477, 1.4328, 0.346151, 178.03, 0, -0.000976562, -0.000976562, 0.0527344, 0.213867, -9.81543, 10.6.2021 14:17:28.873
478, 1.4328, 0.346151, 178.03, 0, -0.00195312, 0, 0.0634766, 0.242188, -9.86914, 10.6.2021 14:17:28.881
479, 1.4328, 0.346151, 178.03, 0, -0.000976562, -0.000976562, 0.0322266, 0.234375, -9.87793, 10.6.2021 14:17:28.889
480, 1.4328, 0.346151, 178.03, 0, -0.000976562, -0.000976562, 0.0322266, 0.246094, -9.85449, 10.6.2021 14:17:28.897
481, 1.4328, 0.346151, 178.03, 0, -0.00195312, 0, 0.0488281, 0.250977, -9.86816, 10.6.2021 14:17:28.905
482, 1.43268, 0.339158, 178.03, 0, -0.000976562, 0, 0.0751953, 0.283203, -9.875, 10.6.2021 14:17:28.913
483, 1.43268, 0.339158, 178.03, 0.000976562, 0, 0, 0.0537109, 0.276367, -9.89648, 10.6.2021 14:17:28.921
484, 1.43268, 0.339158, 178.03, 0, -0.000976562, -0.000976562, 0.0976562, 0.267578, -9.85254, 10.6.2021 14:17:28.929
485, 1.43268, 0.339158, 178.03, -0.000976562, -0.000976562, -0.000976562, 0.0732422, 0.249023, -9.85449, 10.6.2021 14:17:28.937
486, 1.43268, 0.339158, 178.03, -0.000976562, 0, 0, 0.0751953, 0.228516, -9.89355, 10.6.2021 14:17:28.945
487, 1.4328, 0.346151, 178.03, 0, 0, 0, 0.0566406, 0.239258, -9.85254, 10.6.2021 14:17:28.953
488, 1.4328, 0.346151, 178.03, 0, 0, 0, 0.0615234, 0.232422, -9.86719, 10.6.2021 14:17:28.961
489, 1.4328, 0.346151, 178.03, -0.000976562, 0, 0, 0.0341797, 0.256836, -9.8877, 10.6.2021 14:17:28.967
490, 1.4328, 0.346151, 178.03, -0.000976562, 0, 0, 0.0302734, 0.255859, -9.86816, 10.6.2021 14:17:28.975
491, 1.4328, 0.346151, 178.03, -0.000976562, 0.00195312, 0, 0.0537109, 0.244141, -9.86133, 10.6.2021 14:17:28.983
492, 1.4328, 0.346151, 178.03, 0, -0.000976562, 0, 0.0908203, 0.255859, -9.84082, 10.6.2021 14:17:28.991
493, 1.4328, 0.346151, 178.03, -0.000976562, -0.000976562, 0, 0.0849609, 0.246094, -9.85742, 10.6.2021 14:17:28.999
494, 1.43979, 0.346031, 178.03, 0, -0.00195312, 0, 0.0996094, 0.250977, -9.85742, 10.6.2021 14:17:29.007
495, 1.43979, 0.346031, 178.03, -0.000976562, -0.000976562, -0.000976562, 0.0664062, 0.244141, -9.86914, 10.6.2021 14:17:29.015
496, 1.43979, 0.346031, 178.03, -0.000976562, -0.000976562, -0.000976562, 0.0664062, 0.22168, -9.84863, 10.6.2021 14:17:29.023
497, 1.43979, 0.346031, 178.03, -0.000976562, -0.000976562, 0, 0.0429688, 0.220703, -9.82422, 10.6.2021 14:17:29.031
498, 1.43292, 0.353144, 178.03, 0, -0.000976562, -0.000976562, 0.0400391, 0.207031, -9.83691, 10.6.2021 14:17:29.039
499, 1.4328, 0.346151, 178.03, 0, 0, -0.000976562, 0.0253906, 0.260742, -9.85547, 10.6.2021 14:17:29.047
500, 1.4328, 0.346151, 178.03, 0, 0, -0.000976562, 0.0371094, 0.264648, -9.84863, 10.6.2021 14:17:29.055
501, 1.4328, 0.346151, 178.03, 0, -0.00195312, -0.000976562, 0.0517578, 0.272461, -9.85645, 10.6.2021 14:17:29.063
502, 1.4328, 0.346151, 178.03, 0, 0, -0.000976562, 0.112305, 0.246094, -9.84863, 10.6.2021 14:17:29.071
503, 1.4328, 0.346151, 178.03, 0, 0, 0, 0.078125, 0.25293, -9.82617, 10.6.2021 14:17:29.079
504, 1.4328, 0.346151, 178.03, 0, -0.000976562, -0.000976562, 0.078125, 0.246094, -9.8457, 10.6.2021 14:17:29.087
505, 1.43292, 0.353144, 178.03, -0.000976562, -0.00195312, 0, 0.0400391, 0.217773, -9.86035, 10.6.2021 14:17:29.095
506, 1.43292, 0.353144, 178.03, -0.000976562, -0.00195312, 0.000976562, 0.078125, 0.224609, -9.8584, 10.6.2021 14:17:29.103
507, 1.4328, 0.346151, 178.03, -0.000976562, -0.00195312, 0, 0.0546875, 0.214844, -9.8457, 10.6.2021 14:17:29.111
508, 1.4328, 0.346151, 178.03, -0.00195312, -0.00195312, -0.000976562, 0.0273438, 0.24707, -9.87598, 10.6.2021 14:17:29.119
509, 1.42581, 0.346271, 178.03, 0, -0.000976562, -0.000976562, 0.0234375, 0.238281, -9.83984, 10.6.2021 14:17:29.127
510, 1.42581, 0.346271, 178.03, -0.000976562, 0, -0.000976562, 0.0253906, 0.235352, -9.83105, 10.6.2021 14:17:29.135
511, 1.42581, 0.346271, 178.03, 0, 0, -0.00195312, 0.0664062, 0.255859, -9.86621, 10.6.2021 14:17:29.143
512, 1.42581, 0.346271, 178.03, 0, 0, -0.000976562, 0.0683594, 0.243164, -9.89746, 10.6.2021 14:17:29.151
513, 1.42581, 0.346271, 178.03, 0, -0.000976562, -0.000976562, 0.0996094, 0.249023, -9.86035, 10.6.2021 14:17:29.159
514, 1.42581, 0.346271, 178.03, -0.000976562, -0.000976562, 0, 0.0849609, 0.256836, -9.86914, 10.6.2021 14:17:29.167
515, 1.42581, 0.346271, 178.03, 0, -0.000976562, 0, 0.046875, 0.255859, -9.87305, 10.6.2021 14:17:29.175
516, 1.42581, 0.346271, 178.03, -0.000976562, -0.000976562, 0, 0.0585938, 0.232422, -9.86914, 10.6.2021 14:17:29.183
517, 1.42581, 0.346271, 178.03, 0, -0.000976562, -0.000976562, 0.0566406, 0.234375, -9.85449, 10.6.2021 14:17:29.191
518, 1.41882, 0.346391, 178.03, -0.000976562, -0.00195312, -0.000976562, 0.0351562, 0.234375, -9.85449, 10.6.2021 14:17:29.199
519, 1.4187, 0.339398, 178.03, 0, -0.00195312, -0.000976562, 0.015625, 0.265625, -9.8584, 10.6.2021 14:17:29.207
520, 1.4187, 0.339398, 178.03, -0.000976562, -0.000976562, -0.000976562, 0.0517578, 0.253906, -9.85938, 10.6.2021 14:17:29.215
521, 1.42569, 0.339278, 178.03, -0.000976562, -0.000976562, -0.000976562, 0.046875, 0.265625, -9.86328, 10.6.2021 14:17:29.223
522, 1.42569, 0.339278, 178.03, -0.000976562, 0, -0.000976562, 0.0761719, 0.262695, -9.84668, 10.6.2021 14:17:29.231
523, 1.42569, 0.339278, 178.03, -0.000976562, 0, 0, 0.0927734, 0.250977, -9.85254, 10.6.2021 14:17:29.239
524, 1.42569, 0.339278, 178.03, 0, -0.000976562, 0, 0.0546875, 0.266602, -9.82324, 10.6.2021 14:17:29.247
525, 1.42569, 0.339278, 178.03, -0.000976562, -0.000976562, -0.000976562, 0.0498047, 0.223633, -9.81738, 10.6.2021 14:17:29.255
526, 1.42569, 0.339278, 178.03, 0, 0, 0, 0.0527344, 0.205078, -9.84375, 10.6.2021 14:17:29.263
527, 1.42569, 0.339278, 178.03, 0, -0.000976562, 0, 0.0585938, 0.235352, -9.87891, 10.6.2021 14:17:29.271
528, 1.42569, 0.339278, 178.03, 0, 0, 0, 0.0585938, 0.242188, -9.86621, 10.6.2021 14:17:29.279
529, 1.42569, 0.339278, 178.03, 0, -0.000976562, 0, 0.0390625, 0.256836, -9.87793, 10.6.2021 14:17:29.287
530, 1.42569, 0.339278, 178.03, 0, -0.000976562, -0.00195312, 0.0585938, 0.274414, -9.83887, 10.6.2021 14:17:29.295
531, 1.42557, 0.332285, 178.03, -0.000976562, -0.000976562, -0.000976562, 0.0283203, 0.258789, -9.81543, 10.6.2021 14:17:29.303
532, 1.42557, 0.332285, 178.03, -0.000976562, -0.000976562, -0.000976562, 0.0615234, 0.256836, -9.87305, 10.6.2021 14:17:29.311
533, 1.42557, 0.332285, 178.03, -0.000976562, -0.000976562, -0.000976562, 0.0927734, 0.257812, -9.84766, 10.6.2021 14:17:29.319
534, 1.42557, 0.332285, 178.03, -0.000976562, -0.000976562, 0, 0.046875, 0.258789, -9.86816, 10.6.2021 14:17:29.327
535, 1.43256, 0.332166, 178.03, 0, -0.00195312, 0, 0.046875, 0.236328, -9.8623, 10.6.2021 14:17:29.335
536, 1.43256, 0.332166, 178.03, 0, 0.000976562, -0.000976562, 0.0498047, 0.208008, -9.87207, 10.6.2021 14:17:29.343
537, 1.42557, 0.332285, 178.03, 0, -0.000976562, 0, 0.0332031, 0.224609, -9.85742, 10.6.2021 14:17:29.351
538, 1.42557, 0.332285, 178.03, 0, -0.000976562, 0, 0.0371094, 0.236328, -9.85938, 10.6.2021 14:17:29.359
539, 1.42557, 0.332285, 178.03, -0.000976562, -0.000976562, -0.000976562, 0.0283203, 0.254883, -9.83008, 10.6.2021 14:17:29.367
540, 1.42545, 0.325292, 178.03, -0.000976562, -0.000976562, -0.00195312, 0.0849609, 0.243164, -9.89844, 10.6.2021 14:17:29.375
541, 1.42545, 0.325292, 178.03, -0.000976562, -0.000976562, -0.000976562, 0.0732422, 0.258789, -9.87305, 10.6.2021 14:17:29.383
542, 1.42545, 0.325292, 178.03, 0, 0.00195312, 0, 0.078125, 0.290039, -9.87012, 10.6.2021 14:17:29.391
543, 1.42545, 0.325292, 178.03, -0.000976562, 0, 0, 0.0898438, 0.266602, -9.88281, 10.6.2021 14:17:29.399
544, 1.43256, 0.332166, 178.03, 0, 0, 0, 0.0703125, 0.230469, -9.89551, 10.6.2021 14:17:29.407
545, 1.43256, 0.332166, 178.03, 0, -0.000976562, -0.000976562, 0.078125, 0.214844, -9.91113, 10.6.2021 14:17:29.415
546, 1.43256, 0.332166, 178.03, 0, -0.000976562, -0.000976562, 0.0654297, 0.235352, -9.88867, 10.6.2021 14:17:29.423
547, 1.42557, 0.332285, 178.03, -0.000976562, -0.000976562, 0, 0.0644531, 0.213867, -9.82227, 10.6.2021 14:17:29.431
548, 1.42557, 0.332285, 178.03, -0.000976562, -0.00195312, 0, 0.0585938, 0.260742, -9.85449, 10.6.2021 14:17:29.439
549, 1.42557, 0.332285, 178.03, -0.000976562, 0, 0.000976562, 0.0683594, 0.236328, -9.85742, 10.6.2021 14:17:29.447
550, 1.42569, 0.339278, 178.03, -0.000976562, 0, -0.000976562, 0.0683594, 0.253906, -9.86621, 10.6.2021 14:17:29.455
551, 1.42569, 0.339278, 178.03, 0, 0.000976562, -0.000976562, 0.0683594, 0.273438, -9.875, 10.6.2021 14:17:29.463
552, 1.42569, 0.339278, 178.03, 0, 0.000976562, -0.000976562, 0.0751953, 0.271484, -9.8877, 10.6.2021 14:17:29.471
553, 1.42581, 0.346271, 178.03, 0, 0.000976562, -0.000976562, 0.0849609, 0.271484, -9.88086, 10.6.2021 14:17:29.479
554, 1.42581, 0.346271, 178.03, 0.000976562, 0.000976562, -0.000976562, 0.0830078, 0.224609, -9.86035, 10.6.2021 14:17:29.487
555, 1.42581, 0.346271, 178.03, 0, -0.000976562, 0, 0.0732422, 0.232422, -9.87695, 10.6.2021 14:17:29.495
556, 1.42593, 0.353264, 178.03, 0.000976562, -0.000976562, -0.000976562, 0.0654297, 0.237305, -9.88867, 10.6.2021 14:17:29.503
557, 1.42593, 0.353264, 178.03, 0, -0.000976562, -0.000976562, 0.0703125, 0.21875, -9.90332, 10.6.2021 14:17:29.511
558, 1.42593, 0.353264, 178.03, -0.000976562, -0.000976562, 0, 0.078125, 0.232422, -9.86523, 10.6.2021 14:17:29.519
559, 1.42593, 0.353264, 178.03, -0.000976562, -0.000976562, 0, 0.0419922, 0.253906, -9.86133, 10.6.2021 14:17:29.527
560, 1.42605, 0.360257, 178.03, 0, -0.000976562, -0.000976562, 0.0488281, 0.273438, -9.875, 10.6.2021 14:17:29.535
561, 1.42605, 0.360257, 178.03, 0, -0.000976562, 0, 0.0800781, 0.27832, -9.8916, 10.6.2021 14:17:29.543
562, 1.42605, 0.360257, 178.03, -0.000976562, -0.000976562, 0.000976562, 0.0439453, 0.268555, -9.87695, 10.6.2021 14:17:29.551
563, 1.42605, 0.360257, 178.03, 0, 0, 0, 0.0634766, 0.244141, -9.85742, 10.6.2021 14:17:29.559
564, 1.42605, 0.360257, 178.03, -0.000976562, 0, -0.000976562, 0.0664062, 0.238281, -9.84277, 10.6.2021 14:17:29.567
565, 1.43304, 0.360137, 178.03, -0.000976562, -0.000976562, -0.000976562, 0.0693359, 0.213867, -9.83203, 10.6.2021 14:17:29.575
566, 1.43304, 0.360137, 178.03, 0, -0.000976562, 0, 0.0400391, 0.259766, -9.84668, 10.6.2021 14:17:29.583
567, 1.43304, 0.360137, 178.03, -0.000976562, -0.00195312, -0.000976562, 0.0537109, 0.217773, -9.875, 10.6.2021 14:17:29.591
568, 1.43304, 0.360137, 178.03, -0.000976562, -0.00195312, -0.000976562, 0.0517578, 0.238281, -9.84082, 10.6.2021 14:17:29.599
569, 1.43304, 0.360137, 178.03, -0.000976562, -0.00195312, 0, 0.0449219, 0.244141, -9.86426, 10.6.2021 14:17:29.607
570, 1.43304, 0.360137, 178.03, -0.000976562, -0.000976562, 0, 0.0517578, 0.267578, -9.86133, 10.6.2021 14:17:29.615
571, 1.43304, 0.360137, 178.03, -0.000976562, -0.000976562, -0.000976562, 0.0244141, 0.285156, -9.88867, 10.6.2021 14:17:29.623
572, 1.43292, 0.353144, 178.03, -0.000976562, 0, -0.000976562, 0.0585938, 0.277344, -9.85352, 10.6.2021 14:17:29.631
573, 1.43292, 0.353144, 178.03, -0.000976562, -0.000976562, 0, 0.0712891, 0.240234, -9.82129, 10.6.2021 14:17:29.639
574, 1.43292, 0.353144, 178.03, 0, -0.00195312, 0, 0.0849609, 0.24707, -9.88574, 10.6.2021 14:17:29.647
575, 1.43292, 0.353144, 178.03, -0.000976562, -0.000976562, 0, 0.0683594, 0.231445, -9.85254, 10.6.2021 14:17:29.655
576, 1.43292, 0.353144, 178.03, 0, -0.00195312, 0.000976562, 0.0732422, 0.224609, -9.85547, 10.6.2021 14:17:29.663
577, 1.43292, 0.353144, 178.03, 0, 0, 0.000976562, 0.0546875, 0.236328, -9.8457, 10.6.2021 14:17:29.671
578, 1.43292, 0.353144, 178.03, 0, 0, 0.000976562, 0.0224609, 0.272461, -9.85352, 10.6.2021 14:17:29.679
579, 1.43292, 0.353144, 178.03, 0, -0.000976562, -0.000976562, 0.0517578, 0.254883, -9.8252, 10.6.2021 14:17:29.687
580, 1.43292, 0.353144, 178.03, 0, -0.000976562, -0.000976562, 0.0546875, 0.254883, -9.84277, 10.6.2021 14:17:29.695
581, 1.43991, 0.353024, 178.03, -0.000976562, -0.000976562, 0, 0.0615234, 0.262695, -9.84473, 10.6.2021 14:17:29.703
582, 1.43991, 0.353024, 178.03, -0.000976562, -0.00195312, -0.000976562, 0.0585938, 0.249023, -9.87598, 10.6.2021 14:17:29.711
583, 1.43979, 0.346031, 178.03, -0.000976562, 0, 0, 0.0771484, 0.266602, -9.8877, 10.6.2021 14:17:29.719
584, 1.43979, 0.346031, 178.03, -0.000976562, -0.000976562, 0, 0.0683594, 0.242188, -9.86426, 10.6.2021 14:17:29.727
585, 1.43979, 0.346031, 178.03, -0.000976562, -0.000976562, 0, 0.0810547, 0.226562, -9.84375, 10.6.2021 14:17:29.735
586, 1.43979, 0.346031, 178.03, -0.000976562, 0, -0.000976562, 0.0410156, 0.217773, -9.80078, 10.6.2021 14:17:29.743
587, 1.43979, 0.346031, 178.03, -0.000976562, 0, -0.000976562, 0.0478516, 0.235352, -9.81641, 10.6.2021 14:17:29.751
588, 1.43979, 0.346031, 178.03, 0, -0.000976562, -0.00195312, 0.0380859, 0.245117, -9.83789, 10.6.2021 14:17:29.759
589, 1.43979, 0.346031, 178.03, -0.000976562, -0.00195312, 0, 0.0761719, 0.260742, -9.84766, 10.6.2021 14:17:29.767
590, 1.43979, 0.346031, 178.03, -0.000976562, -0.000976562, 0, 0.046875, 0.245117, -9.83789, 10.6.2021 14:17:29.775
591, 1.43979, 0.346031, 178.03, -0.000976562, -0.000976562, -0.000976562, 0.078125, 0.273438, -9.875, 10.6.2021 14:17:29.783
592, 1.43979, 0.346031, 178.03, -0.000976562, -0.000976562, -0.000976562, 0.0917969, 0.276367, -9.88281, 10.6.2021 14:17:29.791
593, 1.43979, 0.346031, 178.03, 0, -0.000976562, 0, 0.0722656, 0.25293, -9.90234, 10.6.2021 14:17:29.799
594, 1.44678, 0.345912, 178.03, 0, -0.000976562, -0.000976562, 0.0830078, 0.258789, -9.86621, 10.6.2021 14:17:29.807
595, 1.4469, 0.352904, 178.03, 0, 0, -0.000976562, 0.0947266, 0.227539, -9.85059, 10.6.2021 14:17:29.815
596, 1.4469, 0.352904, 178.03, -0.000976562, 0, -0.000976562, 0.0664062, 0.232422, -9.88379, 10.6.2021 14:17:29.823
597, 1.4469, 0.352904, 178.03, -0.000976562, -0.000976562, 0, 0.0683594, 0.264648, -9.83301, 10.6.2021 14:17:29.831
598, 1.4469, 0.352904, 178.03, 0, -0.00195312, -0.000976562, 0.0449219, 0.229492, -9.86719, 10.6.2021 14:17:29.839
599, 1.4469, 0.352904, 178.03, 0, 0, -0.000976562, 0.0322266, 0.239258, -9.86914, 10.6.2021 14:17:29.847
600, 1.4469, 0.352904, 178.03, -0.000976562, 0, -0.000976562, 0.0732422, 0.25293, -9.84277, 10.6.2021 14:17:29.855
601, 1.4469, 0.352904, 178.03, -0.000976562, 0.000976562, 0, 0.0732422, 0.254883, -9.88574, 10.6.2021 14:17:29.863
602, 1.44702, 0.359897, 178.03, 0, -0.000976562, 0, 0.0712891, 0.269531, -9.84961, 10.6.2021 14:17:29.871
603, 1.44702, 0.359897, 178.03, 0, 0, -0.000976562, 0.101562, 0.245117, -9.89062, 10.6.2021 14:17:29.879
604, 1.44003, 0.360017, 178.03, -0.000976562, 0, -0.000976562, 0.0878906, 0.211914, -9.83691, 10.6.2021 14:17:29.887
605, 1.44003, 0.360017, 178.03, -0.000976562, 0.000976562, -0.000976562, 0.0732422, 0.262695, -9.85156, 10.6.2021 14:17:29.895
606, 1.44015, 0.36701, 178.03, 0, -0.000976562, 0, 0.0683594, 0.227539, -9.86719, 10.6.2021 14:17:29.903
607, 1.44015, 0.36701, 178.03, 0, 0, -0.000976562, 0.0976562, 0.21582, -9.87988, 10.6.2021 14:17:29.911
608, 1.44015, 0.36701, 178.03, 0, 0.000976562, 0, 0.0664062, 0.239258, -9.85254, 10.6.2021 14:17:29.919
609, 1.44027, 0.374003, 178.03, 0, -0.000976562, 0, 0.0351562, 0.257812, -9.84473, 10.6.2021 14:17:29.927
610, 1.44027, 0.374003, 178.03, -0.000976562, -0.000976562, 0, 0.0566406, 0.269531, -9.83691, 10.6.2021 14:17:29.935
611, 1.44027, 0.374003, 178.03, -0.000976562, 0.000976562, -0.000976562, 0.0732422, 0.266602, -9.88965, 10.6.2021 14:17:29.943
612, 1.44027, 0.374003, 178.03, 0, 0, -0.000976562, 0.0849609, 0.265625, -9.86816, 10.6.2021 14:17:29.951
613, 1.44027, 0.374003, 178.03, 0, -0.00195312, -0.000976562, 0.0712891, 0.239258, -9.84766, 10.6.2021 14:17:29.959
614, 1.44027, 0.374003, 178.03, 0, -0.00195312, -0.000976562, 0.0654297, 0.254883, -9.88574, 10.6.2021 14:17:29.967
615, 1.44039, 0.380996, 178.03, 0, -0.00195312, 0, 0.0537109, 0.228516, -9.88867, 10.6.2021 14:17:29.975
616, 1.44027, 0.374003, 178.03, -0.000976562, -0.000976562, 0, 0.00683594, 0.242188, -9.82812, 10.6.2021 14:17:29.983
617, 1.44027, 0.374003, 178.03, -0.000976562, -0.000976562, 0, 0.0253906, 0.224609, -9.85742, 10.6.2021 14:17:29.991
618, 1.44027, 0.374003, 178.03, 0, -0.000976562, 0, 0.015625, 0.246094, -9.86621, 10.6.2021 14:17:29.999
619, 1.43328, 0.374123, 178.03, -0.000976562, -0.000976562, 0, 0.0400391, 0.249023, -9.87305, 10.6.2021 14:17:30.007
620, 1.43316, 0.36713, 178.03, 0, 0.000976562, 0, 0.0390625, 0.291016, -9.91016, 10.6.2021 14:17:30.015
621, 1.44015, 0.36701, 178.03, 0, 0.000976562, 0, 0.0869141, 0.269531, -9.9043, 10.6.2021 14:17:30.023
622, 1.44015, 0.36701, 178.03, -0.000976562, -0.00195312, -0.000976562, 0.0615234, 0.266602, -9.82812, 10.6.2021 14:17:30.029
623, 1.44015, 0.36701, 178.03, -0.000976562, -0.000976562, 0, 0.0888672, 0.25, -9.80957, 10.6.2021 14:17:30.037
624, 1.44015, 0.36701, 178.03, -0.000976562, -0.00195312, 0, 0.0927734, 0.236328, -9.84863, 10.6.2021 14:17:30.047
625, 1.44003, 0.360017, 178.03, 0, -0.000976562, 0, 0.0429688, 0.228516, -9.82129, 10.6.2021 14:17:30.055
626, 1.44003, 0.360017, 178.03, 0.000976562, 0, -0.000976562, 0.0546875, 0.24707, -9.81641, 10.6.2021 14:17:30.063
627, 1.44003, 0.360017, 178.03, -0.000976562, 0, -0.000976562, 0.0380859, 0.230469, -9.82129, 10.6.2021 14:17:30.071
628, 1.44003, 0.360017, 178.03, 0.000976562, 0.000976562, -0.000976562, 0.0517578, 0.21582, -9.87207, 10.6.2021 14:17:30.077
629, 1.44003, 0.360017, 178.03, 0, -0.000976562, 0, 0.0283203, 0.243164, -9.85449, 10.6.2021 14:17:30.087
630, 1.44003, 0.360017, 178.03, 0, -0.000976562, 0, 0.116211, 0.253906, -9.85254, 10.6.2021 14:17:30.093
631, 1.43304, 0.360137, 178.03, 0, 0, -0.000976562, 0.0546875, 0.255859, -9.84961, 10.6.2021 14:17:30.101
632, 1.43304, 0.360137, 178.03, 0, 0, -0.000976562, 0.0712891, 0.250977, -9.85742, 10.6.2021 14:17:30.109
633, 1.43304, 0.360137, 178.03, -0.000976562, 0.000976562, -0.000976562, 0.0878906, 0.249023, -9.85742, 10.6.2021 14:17:30.117
634, 1.43304, 0.360137, 178.03, 0, 0, -0.000976562, 0.0615234, 0.224609, -9.8457, 10.6.2021 14:17:30.125
635, 1.43304, 0.360137, 178.03, 0.000976562, 0, -0.000976562, 0.0742188, 0.228516, -9.83398, 10.6.2021 14:17:30.133
636, 1.43304, 0.360137, 178.03, 0, -0.00195312, -0.000976562, 0.0283203, 0.205078, -9.85742, 10.6.2021 14:17:30.141
637, 1.43304, 0.360137, 178.03, 0, 0, -0.000976562, -0.000976562, 0.244141, -9.87305, 10.6.2021 14:17:30.149
638, 1.42593, 0.353264, 178.03, 0, -0.000976562, 0, 0.0107422, 0.263672, -9.8916, 10.6.2021 14:17:30.157
639, 1.42593, 0.353264, 178.03, 0, 0.000976562, 0, 0.0292969, 0.256836, -9.89941, 10.6.2021 14:17:30.165
640, 1.42593, 0.353264, 178.03, 0, -0.000976562, 0, 0.0400391, 0.249023, -9.86133, 10.6.2021 14:17:30.173
641, 1.42581, 0.346271, 178.03, -0.000976562, 0, -0.000976562, 0.0917969, 0.263672, -9.87598, 10.6.2021 14:17:30.181
642, 1.42581, 0.346271, 178.03, -0.000976562, -0.00195312, -0.000976562, 0.0537109, 0.255859, -9.85645, 10.6.2021 14:17:30.189
643, 1.42581, 0.346271, 178.03, 0, 0.000976562, -0.000976562, 0.0810547, 0.250977, -9.85254, 10.6.2021 14:17:30.197
644, 1.42581, 0.346271, 178.03, 0, -0.000976562, 0, 0.0566406, 0.219727, -9.8457, 10.6.2021 14:17:30.205
645, 1.42569, 0.339278, 178.03, -0.000976562, -0.000976562, 0, 0.0566406, 0.195312, -9.85156, 10.6.2021 14:17:30.213
646, 1.42569, 0.339278, 178.03, -0.000976562, -0.00195312, 0.000976562, 0.0498047, 0.219727, -9.85742, 10.6.2021 14:17:30.221
647, 1.42569, 0.339278, 178.03, -0.000976562, 0, -0.000976562, 0.00878906, 0.241211, -9.87109, 10.6.2021 14:17:30.229
648, 1.4187, 0.339398, 178.03, 0, 0, -0.000976562, 0.0224609, 0.237305, -9.87305, 10.6.2021 14:17:30.237
649, 1.41858, 0.332405, 178.03, -0.000976562, -0.00195312, -0.000976562, 0.0449219, 0.246094, -9.84277, 10.6.2021 14:17:30.245
650, 1.41858, 0.332405, 178.03, 0, 0, -0.000976562, 0.0878906, 0.242188, -9.86719, 10.6.2021 14:17:30.253
651, 1.41858, 0.332405, 178.03, 0, 0, -0.000976562, 0.0947266, 0.232422, -9.85352, 10.6.2021 14:17:30.261
652, 1.41858, 0.332405, 178.03, 0, -0.000976562, 0, 0.0703125, 0.258789, -9.87598, 10.6.2021 14:17:30.269
653, 1.41858, 0.332405, 178.03, 0, 0.000976562, 0, 0.0634766, 0.242188, -9.88574, 10.6.2021 14:17:30.277
654, 1.41159, 0.332525, 178.03, 0, -0.00195312, -0.000976562, 0.0683594, 0.225586, -9.87695, 10.6.2021 14:17:30.285
655, 1.41159, 0.332525, 178.03, -0.000976562, 0.000976562, -0.000976562, 0.0878906, 0.227539, -9.85352, 10.6.2021 14:17:30.293
656, 1.41159, 0.332525, 178.03, 0, 0.000976562, 0, 0.0751953, 0.232422, -9.87402, 10.6.2021 14:17:30.301
657, 1.41159, 0.332525, 178.03, -0.000976562, -0.00195312, 0, 0.0615234, 0.249023, -9.86426, 10.6.2021 14:17:30.309
658, 1.41159, 0.332525, 178.03, -0.00195312, -0.00195312, -0.000976562, 0.0683594, 0.263672, -9.87109, 10.6.2021 14:17:30.317
659, 1.41159, 0.332525, 178.03, -0.00195312, 0, -0.000976562, 0.0654297, 0.270508, -9.86816, 10.6.2021 14:17:30.325
660, 1.41171, 0.339518, 178.03, 0, -0.000976562, 0, 0.0732422, 0.272461, -9.84473, 10.6.2021 14:17:30.333
661, 1.41171, 0.339518, 178.03, -0.00195312, 0, -0.000976562, 0.0664062, 0.248047, -9.84473, 10.6.2021 14:17:30.341
662, 1.41171, 0.339518, 178.03, 0, 0, -0.000976562, 0.0634766, 0.237305, -9.87891, 10.6.2021 14:17:30.349
663, 1.41171, 0.339518, 178.03, -0.000976562, 0.000976562, 0, 0.0800781, 0.225586, -9.88672, 10.6.2021 14:17:30.357
664, 1.41183, 0.346511, 178.03, -0.000976562, -0.000976562, 0, 0.0615234, 0.21875, -9.89648, 10.6.2021 14:17:30.365
665, 1.41183, 0.346511, 178.03, -0.000976562, -0.000976562, 0, 0.0400391, 0.245117, -9.82129, 10.6.2021 14:17:30.373
666, 1.41183, 0.346511, 178.03, -0.000976562, 0, -0.000976562, 0.0664062, 0.222656, -9.86035, 10.6.2021 14:17:30.381
667, 1.41183, 0.346511, 178.03, -0.000976562, -0.00195312, 0, 0.0849609, 0.225586, -9.88672, 10.6.2021 14:17:30.389
668, 1.41183, 0.346511, 178.03, 0, 0, -0.000976562, 0.0595703, 0.241211, -9.84961, 10.6.2021 14:17:30.397
669, 1.41183, 0.346511, 178.03, 0, -0.000976562, 0, 0.0351562, 0.259766, -9.84668, 10.6.2021 14:17:30.405
670, 1.41183, 0.346511, 178.03, 0, 0.000976562, -0.000976562, 0.0898438, 0.268555, -9.86133, 10.6.2021 14:17:30.413
671, 1.41195, 0.353504, 178.03, -0.000976562, 0.000976562, -0.000976562, 0.0634766, 0.263672, -9.86328, 10.6.2021 14:17:30.421
672, 1.41195, 0.353504, 178.03, 0, 0.000976562, 0, 0.0751953, 0.24707, -9.87891, 10.6.2021 14:17:30.429
673, 1.41195, 0.353504, 178.03, 0, 0, -0.000976562, 0.0517578, 0.214844, -9.8584, 10.6.2021 14:17:30.437
674, 1.41195, 0.353504, 178.03, 0, -0.000976562, 0, 0.0400391, 0.246094, -9.86133, 10.6.2021 14:17:30.445
675, 1.41195, 0.353504, 178.03, 0, 0, -0.000976562, 0.0273438, 0.246094, -9.86816, 10.6.2021 14:17:30.453
676, 1.41195, 0.353504, 178.03, -0.000976562, 0, -0.00195312, 0.0351562, 0.230469, -9.82617, 10.6.2021 14:17:30.461
677, 1.41195, 0.353504, 178.03, -0.000976562, 0, -0.000976562, 0.015625, 0.236328, -9.84668, 10.6.2021 14:17:30.469
678, 1.41183, 0.346511, 178.03, 0, 0, -0.000976562, 0.0566406, 0.263672, -9.86621, 10.6.2021 14:17:30.477
679, 1.41183, 0.346511, 178.03, -0.000976562, 0.000976562, 0, 0.0615234, 0.282227, -9.84668, 10.6.2021 14:17:30.485
680, 1.41183, 0.346511, 178.03, 0, -0.000976562, 0, 0.0439453, 0.273438, -9.88672, 10.6.2021 14:17:30.493
681, 1.41183, 0.346511, 178.03, 0, -0.000976562, 0, 0.078125, 0.27832, -9.87305, 10.6.2021 14:17:30.501
682, 1.41882, 0.346391, 178.03, 0, 0, -0.000976562, 0.0654297, 0.235352, -9.89551, 10.6.2021 14:17:30.509
683, 1.41882, 0.346391, 178.03, 0, 0, -0.000976562, 0.0585938, 0.219727, -9.86523, 10.6.2021 14:17:30.517
684, 1.41882, 0.346391, 178.03, 0, -0.00195312, 0, 0.0566406, 0.239258, -9.86914, 10.6.2021 14:17:30.525
685, 1.41882, 0.346391, 178.03, -0.000976562, 0, -0.000976562, 0.0683594, 0.242188, -9.86914, 10.6.2021 14:17:30.533
686, 1.41882, 0.346391, 178.03, 0, 0, -0.000976562, 0.0644531, 0.210938, -9.86035, 10.6.2021 14:17:30.541
687, 1.4187, 0.339398, 178.03, 0.000976562, -0.000976562, 0, 0.0517578, 0.234375, -9.86914, 10.6.2021 14:17:30.549
688, 1.4187, 0.339398, 178.03, 0, 0.000976562, 0, 0.0517578, 0.263672, -9.875, 10.6.2021 14:17:30.557
689, 1.4187, 0.339398, 178.03, -0.000976562, -0.000976562, 0, 0.0585938, 0.268555, -9.88672, 10.6.2021 14:17:30.565
690, 1.4187, 0.339398, 178.03, 0, -0.000976562, 0, 0.046875, 0.271484, -9.8252, 10.6.2021 14:17:30.573
691, 1.4187, 0.339398, 178.03, -0.00195312, 0, -0.000976562, 0.0634766, 0.273438, -9.88477, 10.6.2021 14:17:30.581
692, 1.42569, 0.339278, 178.03, -0.000976562, -0.000976562, -0.000976562, 0.0634766, 0.249023, -9.85938, 10.6.2021 14:17:30.589
693, 1.42569, 0.339278, 178.03, -0.000976562, -0.000976562, 0, 0.0712891, 0.225586, -9.87891, 10.6.2021 14:17:30.597
694, 1.42569, 0.339278, 178.03, -0.000976562, -0.00195312, 0, 0.0683594, 0.224609, -9.85547, 10.6.2021 14:17:30.605
695, 1.42569, 0.339278, 178.03, 0, -0.000976562, 0, 0.0400391, 0.237305, -9.81836, 10.6.2021 14:17:30.613
696, 1.42569, 0.339278, 178.03, 0, 0, 0, 0.0371094, 0.235352, -9.89551, 10.6.2021 14:17:30.621
697, 1.42569, 0.339278, 178.03, -0.000976562, 0, 0.000976562, 0.0419922, 0.24707, -9.87598, 10.6.2021 14:17:30.629
698, 1.42569, 0.339278, 178.03, -0.000976562, -0.000976562, -0.000976562, 0.0488281, 0.250977, -9.86816, 10.6.2021 14:17:30.637
699, 1.42569, 0.339278, 178.03, -0.000976562, -0.000976562, -0.000976562, 0.0615234, 0.262695, -9.84961, 10.6.2021 14:17:30.645
700, 1.42569, 0.339278, 178.03, -0.000976562, -0.000976562, 0, 0.0849609, 0.260742, -9.86914, 10.6.2021 14:17:30.653
701, 1.42569, 0.339278, 178.03, -0.000976562, -0.000976562, -0.000976562, 0.0732422, 0.234375, -9.84766, 10.6.2021 14:17:30.661
702, 1.42569, 0.339278, 178.03, 0, -0.000976562, -0.000976562, 0.0683594, 0.256836, -9.88086, 10.6.2021 14:17:30.669
703, 1.42569, 0.339278, 178.03, 0, 0, 0, 0.0605469, 0.231445, -9.90234, 10.6.2021 14:17:30.677
704, 1.42569, 0.339278, 178.03, -0.000976562, -0.000976562, -0.000976562, 0.0849609, 0.222656, -9.875, 10.6.2021 14:17:30.685
705, 1.42569, 0.339278, 178.03, -0.000976562, 0, 0, 0.0517578, 0.222656, -9.86523, 10.6.2021 14:17:30.693
706, 1.42569, 0.339278, 178.03, 0, 0, -0.000976562, 0.0683594, 0.239258, -9.87207, 10.6.2021 14:17:30.701
707, 1.42569, 0.339278, 178.03, -0.000976562, -0.000976562, 0, 0.046875, 0.230469, -9.89062, 10.6.2021 14:17:30.709
708, 1.42569, 0.339278, 178.03, -0.000976562, -0.000976562, 0, 0.0107422, 0.255859, -9.8584, 10.6.2021 14:17:30.717
709, 1.42569, 0.339278, 178.03, 0, -0.000976562, 0, 0.0419922, 0.28125, -9.83203, 10.6.2021 14:17:30.725
710, 1.42569, 0.339278, 178.03, 0.000976562, -0.000976562, 0, 0.0664062, 0.279297, -9.83887, 10.6.2021 14:17:30.733
711, 1.42569, 0.339278, 178.03, -0.000976562, 0, -0.000976562, 0.0732422, 0.265625, -9.85645, 10.6.2021 14:17:30.741
712, 1.42569, 0.339278, 178.03, -0.000976562, -0.000976562, -0.00195312, 0.0615234, 0.253906, -9.86621, 10.6.2021 14:17:30.749
713, 1.42569, 0.339278, 178.03, -0.000976562, -0.000976562, -0.000976562, 0.0712891, 0.230469, -9.87695, 10.6.2021 14:17:30.757
714, 1.42569, 0.339278, 178.03, 0, -0.000976562, 0, 0.0878906, 0.219727, -9.84375, 10.6.2021 14:17:30.765
715, 1.42569, 0.339278, 178.03, 0, -0.000976562, 0, 0.0537109, 0.227539, -9.87695, 10.6.2021 14:17:30.773
716, 1.42569, 0.339278, 178.03, -0.000976562, 0, -0.000976562, 0.046875, 0.234375, -9.84961, 10.6.2021 14:17:30.781
717, 1.42569, 0.339278, 178.03, -0.000976562, -0.000976562, 0, 0.0478516, 0.25, -9.82129, 10.6.2021 14:17:30.789
718, 1.42569, 0.339278, 178.03, 0, -0.000976562, -0.000976562, 0.0537109, 0.263672, -9.8877, 10.6.2021 14:17:30.797
719, 1.42569, 0.339278, 178.03, 0, 0, 0, 0.0371094, 0.262695, -9.85156, 10.6.2021 14:17:30.805
720, 1.42569, 0.339278, 178.03, 0, 0, -0.000976562, 0.046875, 0.291016, -9.83887, 10.6.2021 14:17:30.813
721, 1.43268, 0.339158, 178.03, 0, 0, -0.000976562, 0.0927734, 0.264648, -9.83301, 10.6.2021 14:17:30.821
722, 1.43268, 0.339158, 178.03, 0, 0, 0, 0.0751953, 0.258789, -9.88086, 10.6.2021 14:17:30.829
723, 1.43268, 0.339158, 178.03, 0, 0, 0, 0.0810547, 0.210938, -9.86328, 10.6.2021 14:17:30.837
724, 1.4328, 0.346151, 178.03, -0.000976562, -0.000976562, -0.000976562, 0.0683594, 0.226562, -9.84863, 10.6.2021 14:17:30.845
725, 1.4328, 0.346151, 178.03, -0.000976562, -0.000976562, -0.000976562, 0.0634766, 0.250977, -9.84473, 10.6.2021 14:17:30.853
726, 1.4328, 0.346151, 178.03, -0.000976562, -0.000976562, 0, 0.0380859, 0.231445, -9.84766, 10.6.2021 14:17:30.861
727, 1.4328, 0.346151, 178.03, 0, -0.00195312, 0, 0.0400391, 0.246094, -9.86426, 10.6.2021 14:17:30.869
728, 1.4328, 0.346151, 178.03, 0, -0.000976562, -0.000976562, 0.0634766, 0.263672, -9.86621, 10.6.2021 14:17:30.877
729, 1.4328, 0.346151, 178.03, 0, -0.00195312, -0.000976562, 0.0566406, 0.262695, -9.86133, 10.6.2021 14:17:30.885
730, 1.4328, 0.346151, 178.03, 0, -0.000976562, 0, 0.078125, 0.285156, -9.87012, 10.6.2021 14:17:30.893
731, 1.4328, 0.346151, 178.03, 0, 0, 0, 0.0849609, 0.24707, -9.86719, 10.6.2021 14:17:30.901
732, 1.4328, 0.346151, 178.03, -0.000976562, -0.000976562, 0, 0.102539, 0.232422, -9.86719, 10.6.2021 14:17:30.909
733, 1.43979, 0.346031, 178.03, -0.000976562, -0.000976562, -0.000976562, 0.0898438, 0.251953, -9.86426, 10.6.2021 14:17:30.917
734, 1.43979, 0.346031, 178.03, 0, -0.000976562, 0, 0.0585938, 0.239258, -9.85938, 10.6.2021 14:17:30.925
735, 1.43991, 0.353024, 178.03, -0.000976562, -0.000976562, -0.000976562, 0.0439453, 0.197266, -9.89844, 10.6.2021 14:17:30.933
736, 1.43292, 0.353144, 178.03, 0, -0.000976562, -0.000976562, 0.0283203, 0.205078, -9.84375, 10.6.2021 14:17:30.941
737, 1.43292, 0.353144, 178.03, 0.000976562, -0.000976562, 0, 0.0253906, 0.255859, -9.875, 10.6.2021 14:17:30.949
738, 1.4328, 0.346151, 178.03, -0.000976562, -0.000976562, -0.000976562, 0.0302734, 0.237305, -9.87109, 10.6.2021 14:17:30.957
739, 1.4328, 0.346151, 178.03, 0, -0.000976562, -0.000976562, 0.0449219, 0.228516, -9.83398, 10.6.2021 14:17:30.965
740, 1.4328, 0.346151, 178.03, 0, -0.000976562, -0.000976562, 0.0615234, 0.250977, -9.85645, 10.6.2021 14:17:30.973
741, 1.42581, 0.346271, 178.03, 0, -0.000976562, 0, 0.0820312, 0.241211, -9.91211, 10.6.2021 14:17:30.981
742, 1.42581, 0.346271, 178.03, -0.000976562, -0.000976562, -0.000976562, 0.0732422, 0.243164, -9.84277, 10.6.2021 14:17:30.989
743, 1.42581, 0.346271, 178.03, 0, -0.000976562, -0.000976562, 0.0498047, 0.239258, -9.85449, 10.6.2021 14:17:30.997
744, 1.42581, 0.346271, 178.03, 0, 0, -0.000976562, 0.0595703, 0.211914, -9.8418, 10.6.2021 14:17:31.005
745, 1.42581, 0.346271, 178.03, -0.000976562, 0, 0, 0.0234375, 0.236328, -9.84766, 10.6.2021 14:17:31.013
746, 1.41882, 0.346391, 178.03, -0.000976562, 0, -0.000976562, 0.0449219, 0.214844, -9.85059, 10.6.2021 14:17:31.021
747, 1.4187, 0.339398, 178.03, 0, -0.000976562, 0, 0.0371094, 0.237305, -9.88086, 10.6.2021 14:17:31.029
748, 1.4187, 0.339398, 178.03, 0, -0.00195312, -0.000976562, 0.0302734, 0.244141, -9.86328, 10.6.2021 14:17:31.037
749, 1.4187, 0.339398, 178.03, 0, -0.00195312, -0.000976562, 0.0654297, 0.268555, -9.86816, 10.6.2021 14:17:31.045
750, 1.41171, 0.339518, 178.03, 0, -0.000976562, -0.000976562, 0.0908203, 0.240234, -9.82422, 10.6.2021 14:17:31.053
751, 1.41171, 0.339518, 178.03, 0, -0.000976562, 0, 0.0849609, 0.233398, -9.88379, 10.6.2021 14:17:31.061
752, 1.41171, 0.339518, 178.03, 0, -0.000976562, 0, 0.0898438, 0.236328, -9.89844, 10.6.2021 14:17:31.069
753, 1.41171, 0.339518, 178.03, 0, -0.00195312, -0.000976562, 0.078125, 0.222656, -9.85547, 10.6.2021 14:17:31.077
754, 1.41171, 0.339518, 178.03, 0, -0.000976562, 0, 0.0488281, 0.243164, -9.89551, 10.6.2021 14:17:31.085
755, 1.40473, 0.339638, 178.03, -0.000976562, 0.000976562, 0, 0.0371094, 0.261719, -9.88281, 10.6.2021 14:17:31.093
756, 1.40473, 0.339638, 178.03, -0.000976562, 0, -0.000976562, 0.015625, 0.246094, -9.86816, 10.6.2021 14:17:31.101
757, 1.40473, 0.339638, 178.03, -0.00195312, -0.00195312, 0, 0.0419922, 0.25, -9.83984, 10.6.2021 14:17:31.109
758, 1.40461, 0.332645, 178.03, -0.000976562, 0, -0.000976562, 0.046875, 0.265625, -9.875, 10.6.2021 14:17:31.117
759, 1.41159, 0.332525, 178.03, 0, 0, -0.000976562, 0.0878906, 0.274414, -9.84473, 10.6.2021 14:17:31.125
760, 1.41159, 0.332525, 178.03, 0, 0.000976562, -0.000976562, 0.0732422, 0.267578, -9.83789, 10.6.2021 14:17:31.133
761, 1.41159, 0.332525, 178.03, 0, 0, -0.000976562, 0.0712891, 0.25293, -9.85254, 10.6.2021 14:17:31.141
762, 1.41171, 0.339518, 178.03, 0, 0, -0.000976562, 0.0830078, 0.260742, -9.85254, 10.6.2021 14:17:31.149
763, 1.41171, 0.339518, 178.03, 0.000976562, -0.00195312, -0.000976562, 0.0732422, 0.209961, -9.8584, 10.6.2021 14:17:31.157
764, 1.41171, 0.339518, 178.03, 0, -0.000976562, 0, 0.0546875, 0.228516, -9.83594, 10.6.2021 14:17:31.165
765, 1.41171, 0.339518, 178.03, 0, 0.000976562, 0, 0.0449219, 0.265625, -9.86133, 10.6.2021 14:17:31.173
766, 1.41171, 0.339518, 178.03, 0, 0.000976562, -0.000976562, 0.0253906, 0.225586, -9.8877, 10.6.2021 14:17:31.181
767, 1.41171, 0.339518, 178.03, -0.000976562, 0.000976562, -0.000976562, 0.0498047, 0.25, -9.81836, 10.6.2021 14:17:31.189
768, 1.41171, 0.339518, 178.03, 0, 0, -0.000976562, 0.0429688, 0.248047, -9.83496, 10.6.2021 14:17:31.197
769, 1.4187, 0.339398, 178.03, 0, 0, -0.000976562, 0.0703125, 0.285156, -9.87695, 10.6.2021 14:17:31.203
770, 1.4187, 0.339398, 178.03, 0, 0.000976562, 0, 0.0732422, 0.268555, -9.86621, 10.6.2021 14:17:31.211
771, 1.4187, 0.339398, 178.03, -0.000976562, 0.000976562, 0, 0.104492, 0.226562, -9.89453, 10.6.2021 14:17:31.219
772, 1.4187, 0.339398, 178.03, -0.000976562, 0.000976562, 0, 0.0576172, 0.21582, -9.82227, 10.6.2021 14:17:31.227
773, 1.4187, 0.339398, 178.03, -0.000976562, -0.000976562, 0, 0.0449219, 0.246094, -9.86816, 10.6.2021 14:17:31.235
774, 1.4187, 0.339398, 178.03, -0.000976562, 0.000976562, 0, 0.0615234, 0.253906, -9.85645, 10.6.2021 14:17:31.243
775, 1.4187, 0.339398, 178.03, -0.000976562, 0.000976562, 0, 0.046875, 0.210938, -9.87695, 10.6.2021 14:17:31.251
776, 1.4187, 0.339398, 178.03, 0, -0.000976562, 0, 0.0351562, 0.258789, -9.86523, 10.6.2021 14:17:31.259
777, 1.4187, 0.339398, 178.03, 0, -0.000976562, 0, 0.046875, 0.272461, -9.8418, 10.6.2021 14:17:31.267
778, 1.4187, 0.339398, 178.03, 0, -0.000976562, 0, 0.0712891, 0.270508, -9.85645, 10.6.2021 14:17:31.275
779, 1.42569, 0.339278, 178.03, -0.000976562, 0, -0.000976562, 0.0546875, 0.273438, -9.80859, 10.6.2021 14:17:31.283
780, 1.42569, 0.339278, 178.03, -0.000976562, -0.000976562, 0, 0.0830078, 0.250977, -9.85938, 10.6.2021 14:17:31.291
781, 1.42569, 0.339278, 178.03, 0, 0, -0.00195312, 0.078125, 0.261719, -9.88574, 10.6.2021 14:17:31.299
782, 1.42569, 0.339278, 178.03, -0.000976562, 0.000976562, -0.000976562, 0.0400391, 0.234375, -9.86914, 10.6.2021 14:17:31.307
783, 1.43268, 0.339158, 178.03, -0.000976562, 0, -0.000976562, 0.0419922, 0.222656, -9.8623, 10.6.2021 14:17:31.315
784, 1.43268, 0.339158, 178.03, 0, 0, -0.00195312, 0.0302734, 0.246094, -9.87109, 10.6.2021 14:17:31.323
785, 1.43268, 0.339158, 178.03, 0, -0.00195312, -0.000976562, 0.0234375, 0.241211, -9.85156, 10.6.2021 14:17:31.331
786, 1.43268, 0.339158, 178.03, 0, 0, -0.000976562, 0.0419922, 0.240234, -9.88281, 10.6.2021 14:17:31.339
787, 1.43268, 0.339158, 178.03, 0, -0.000976562, -0.000976562, 0.0498047, 0.25293, -9.85645, 10.6.2021 14:17:31.347
788, 1.43256, 0.332166, 178.03, 0, -0.00195312, -0.000976562, 0.0712891, 0.279297, -9.85352, 10.6.2021 14:17:31.355
789, 1.43256, 0.332166, 178.03, 0, -0.000976562, 0, 0.0771484, 0.259766, -9.90723, 10.6.2021 14:17:31.363
790, 1.43256, 0.332166, 178.03, -0.000976562, -0.000976562, 0, 0.078125, 0.253906, -9.87109, 10.6.2021 14:17:31.371
791, 1.43256, 0.332166, 178.03, 0, -0.000976562, 0, 0.0400391, 0.236328, -9.85254, 10.6.2021 14:17:31.379
792, 1.43256, 0.332166, 178.03, 0, -0.000976562, 0, 0.0498047, 0.231445, -9.85938, 10.6.2021 14:17:31.387
793, 1.43256, 0.332166, 178.03, 0, -0.000976562, -0.00195312, 0.0712891, 0.241211, -9.83594, 10.6.2021 14:17:31.395
794, 1.43256, 0.332166, 178.03, -0.000976562, -0.00195312, -0.000976562, 0.0332031, 0.200195, -9.85059, 10.6.2021 14:17:31.403
795, 1.43256, 0.332166, 178.03, -0.000976562, -0.000976562, -0.000976562, 0.0585938, 0.251953, -9.89453, 10.6.2021 14:17:31.411
796, 1.43256, 0.332166, 178.03, -0.000976562, 0, -0.000976562, 0.0683594, 0.241211, -9.8623, 10.6.2021 14:17:31.419
797, 1.43256, 0.332166, 178.03, 0, 0, -0.000976562, 0.0615234, 0.273438, -9.82227, 10.6.2021 14:17:31.427
798, 1.43258, 0.332078, 178.023, -0.000976562, 0.000976562, -0.000976562, 0.0712891, 0.289062, -9.83203, 10.6.2021 14:17:31.435
799, 1.43258, 0.332078, 178.023, 0, 0, 0, 0.078125, 0.261719, -9.87793, 10.6.2021 14:17:31.443
800, 1.43955, 0.332046, 178.03, -0.000976562, -0.000976562, -0.000976562, 0.0703125, 0.267578, -9.86133, 10.6.2021 14:17:31.451
801, 1.43955, 0.332046, 178.03, -0.000976562, -0.00195312, 0, 0.0693359, 0.238281, -9.83789, 10.6.2021 14:17:31.459
802, 1.43955, 0.332046, 178.03, 0, -0.000976562, 0, 0.0898438, 0.249023, -9.85254, 10.6.2021 14:17:31.467
803, 1.43955, 0.332046, 178.03, 0, -0.00195312, -0.000976562, 0.0712891, 0.241211, -9.83594, 10.6.2021 14:17:31.475
804, 1.43967, 0.339038, 178.03, 0, 0, -0.000976562, 0.0498047, 0.224609, -9.85254, 10.6.2021 14:17:31.483
805, 1.43967, 0.339038, 178.03, 0, 0, -0.000976562, 0.0175781, 0.260742, -9.86523, 10.6.2021 14:17:31.491
806, 1.43967, 0.339038, 178.03, -0.000976562, -0.000976562, -0.000976562, 0.0449219, 0.266602, -9.83691, 10.6.2021 14:17:31.499
807, 1.43969, 0.338951, 178.023, -0.000976562, -0.000976562, -0.000976562, 0.0371094, 0.257812, -9.8418, 10.6.2021 14:17:31.507
808, 1.43969, 0.338951, 178.023, -0.000976562, 0, 0, 0.0439453, 0.273438, -9.87207, 10.6.2021 14:17:31.515
809, 1.44666, 0.338919, 178.03, -0.000976562, -0.000976562, -0.000976562, 0.0634766, 0.258789, -9.88086, 10.6.2021 14:17:31.523
810, 1.44666, 0.338919, 178.03, 0, 0, 0, 0.0654297, 0.261719, -9.88086, 10.6.2021 14:17:31.531
811, 1.44666, 0.338919, 178.03, -0.000976562, -0.000976562, 0, 0.0683594, 0.230469, -9.88867, 10.6.2021 14:17:31.539
812, 1.44666, 0.338919, 178.03, -0.000976562, -0.00195312, -0.000976562, 0.0400391, 0.217773, -9.8623, 10.6.2021 14:17:31.547
813, 1.44654, 0.331926, 178.03, 0, -0.00195312, -0.000976562, 0.0185547, 0.206055, -9.87695, 10.6.2021 14:17:31.555
814, 1.44654, 0.331926, 178.03, 0, -0.000976562, -0.000976562, 0.046875, 0.191406, -9.87305, 10.6.2021 14:17:31.563
815, 1.44656, 0.331838, 178.023, -0.000976562, -0.000976562, -0.000976562, 0.0302734, 0.235352, -9.83789, 10.6.2021 14:17:31.571
816, 1.43945, 0.324965, 178.023, -0.000976562, -0.000976562, -0.000976562, 0.0263672, 0.244141, -9.80176, 10.6.2021 14:17:31.579
817, 1.43945, 0.324965, 178.023, 0.000976562, -0.000976562, -0.000976562, 0.0351562, 0.251953, -9.87988, 10.6.2021 14:17:31.587
818, 1.43945, 0.324965, 178.023, 0, -0.000976562, 0, 0.0654297, 0.280273, -9.875, 10.6.2021 14:17:31.595
819, 1.43945, 0.324965, 178.023, 0, 0.000976562, 0, 0.0859375, 0.251953, -9.82129, 10.6.2021 14:17:31.603
820, 1.43943, 0.325053, 178.03, 0, -0.000976562, 0, 0.0566406, 0.248047, -9.85254, 10.6.2021 14:17:31.611
821, 1.43943, 0.325053, 178.03, -0.000976562, -0.00195312, 0, 0.0712891, 0.208008, -9.86523, 10.6.2021 14:17:31.619
822, 1.43232, 0.31818, 178.03, 0, -0.00195312, 0, 0.0546875, 0.238281, -9.8457, 10.6.2021 14:17:31.627
823, 1.43232, 0.31818, 178.03, -0.000976562, -0.00195312, 0, 0.046875, 0.240234, -9.88086, 10.6.2021 14:17:31.635
824, 1.43232, 0.31818, 178.03, -0.000976562, 0, 0, 0.0332031, 0.228516, -9.84277, 10.6.2021 14:17:31.643
825, 1.43232, 0.31818, 178.03, -0.000976562, 0, 0, 0.046875, 0.257812, -9.83691, 10.6.2021 14:17:31.651
826, 1.43232, 0.31818, 178.03, -0.000976562, 0, 0, 0.0224609, 0.287109, -9.86719, 10.6.2021 14:17:31.659
827, 1.43232, 0.31818, 178.03, 0, -0.000976562, -0.000976562, 0.0488281, 0.282227, -9.85352, 10.6.2021 14:17:31.667
828, 1.43232, 0.31818, 178.03, 0, -0.000976562, -0.000976562, 0.0683594, 0.303711, -9.84375, 10.6.2021 14:17:31.675
829, 1.43919, 0.311067, 178.03, -0.000976562, -0.000976562, 0, 0.0605469, 0.275391, -9.875, 10.6.2021 14:17:31.683
830, 1.43919, 0.311067, 178.03, 0, 0, -0.000976562, 0.0859375, 0.234375, -9.84375, 10.6.2021 14:17:31.691
831, 1.43931, 0.31806, 178.03, 0, -0.000976562, 0, 0.0976562, 0.225586, -9.87012, 10.6.2021 14:17:31.699
832, 1.43931, 0.31806, 178.03, 0, 0, 0, 0.0859375, 0.210938, -9.86621, 10.6.2021 14:17:31.707
833, 1.43931, 0.31806, 178.03, 0, -0.000976562, -0.000976562, 0.0488281, 0.21582, -9.87891, 10.6.2021 14:17:31.715
834, 1.43931, 0.31806, 178.03, -0.000976562, -0.000976562, -0.000976562, 0.0634766, 0.249023, -9.87402, 10.6.2021 14:17:31.723
835, 1.43931, 0.31806, 178.03, -0.000976562, -0.000976562, -0.000976562, 0.0644531, 0.245117, -9.82617, 10.6.2021 14:17:31.731
836, 1.43931, 0.31806, 178.03, 0, -0.000976562, 0, 0.0419922, 0.269531, -9.83008, 10.6.2021 14:17:31.739
837, 1.43931, 0.31806, 178.03, -0.000976562, -0.000976562, -0.000976562, 0.0419922, 0.268555, -9.86816, 10.6.2021 14:17:31.747
838, 1.43943, 0.325053, 178.03, -0.000976562, -0.000976562, -0.000976562, 0.0615234, 0.253906, -9.86621, 10.6.2021 14:17:31.755
839, 1.43943, 0.325053, 178.03, 0, 0, -0.000976562, 0.015625, 0.267578, -9.86035, 10.6.2021 14:17:31.763
840, 1.43943, 0.325053, 178.03, -0.000976562, 0.00195312, -0.000976562, 0.248047, 0.24707, -9.85547, 10.6.2021 14:17:31.771
841, 1.43955, 0.332046, 178.03, -0.000976562, 0.000976562, 0, 0.166992, 0.239258, -9.84961, 10.6.2021 14:17:31.779
842, 1.43967, 0.339038, 178.03, -0.000976562, 0.00292969, 0, 0.186523, 0.202148, -9.86816, 10.6.2021 14:17:31.787
843, 1.43979, 0.346031, 178.03, -0.000976562, 0.00195312, -0.000976562, 0.101562, 0.270508, -9.92383, 10.6.2021 14:17:31.795
844, 1.44003, 0.360017, 178.03, 0, 0.00195312, -0.000976562, 0.486328, 0.217773, -9.86035, 10.6.2021 14:17:31.803
845, 1.44039, 0.380996, 178.03, -0.000976562, 0.000976562, 0, 0.353516, 0.276367, -9.85352, 10.6.2021 14:17:31.811
846, 1.44075, 0.401975, 178.029, -0.000976562, 0.000976562, 0, 0.188477, 0.237305, -9.84961, 10.6.2021 14:17:31.819
847, 1.44111, 0.422954, 178.029, -0.000976562, -0.000976562, 0, 0.0722656, 0.358398, -9.89844, 10.6.2021 14:17:31.827
848, 1.44147, 0.443933, 178.029, 0, -0.00292969, 0.000976562, 0.570312, 0.260742, -9.82617, 10.6.2021 14:17:31.835
849, 1.44894, 0.471786, 178.028, 0, -0.00195312, 0, 0.286133, 0.363281, -9.86426, 10.6.2021 14:17:31.843
850, 1.44942, 0.499758, 178.028, 0, 0, -0.000976562, 0.111328, 0.24707, -9.86523, 10.6.2021 14:17:31.851
851, 1.45677, 0.520617, 178.028, 0, -0.000976562, -0.00292969, 0.0478516, 0.379883, -9.91406, 10.6.2021 14:17:31.859
852, 1.46412, 0.541477, 178.027, -0.000976562, -0.00292969, -0.00292969, 0.282227, 0.256836, -9.85742, 10.6.2021 14:17:31.867
853, 1.47147, 0.562336, 178.027, -0.000976562, -0.00195312, -0.00195312, 0.078125, 0.294922, -9.80762, 10.6.2021 14:17:31.875
854, 1.47171, 0.576323, 178.027, 0, 0, -0.000976562, -0.0244141, 0.291016, -9.79199, 10.6.2021 14:17:31.883
855, 1.47921, 0.590152, 178.027, -0.000976562, 0.00195312, 0, 0.0634766, 0.25, -9.89941, 10.6.2021 14:17:31.891
856, 1.48644, 0.604017, 178.027, -0.00195312, 0.00195312, 0, 0.118164, 0.248047, -9.88672, 10.6.2021 14:17:31.899
857, 1.49367, 0.617883, 178.026, -0.000976562, 0.00195312, -0.00195312, 0.300781, 0.350586, -9.84766, 10.6.2021 14:17:31.907
858, 1.49391, 0.631868, 178.026, -0.00195312, 0.00195312, -0.000976562, 0.191406, 0.241211, -9.81836, 10.6.2021 14:17:31.915
859, 1.50126, 0.652727, 178.026, -0.000976562, 0.000976562, -0.00390625, 0.262695, 0.242188, -9.83398, 10.6.2021 14:17:31.923
860, 1.50852, 0.666502, 178.019, -0.000976562, 0.000976562, -0.00292969, 0.367188, 0.298828, -9.88184, 10.6.2021 14:17:31.931
861, 1.509, 0.694473, 178.018, -0.000976562, 0.000976562, 0, 0.450195, 0.166992, -9.8584, 10.6.2021 14:17:31.939
862, 1.50933, 0.715543, 178.025, -0.000976562, 0, 0.00195312, 0.282227, 0.311523, -9.84375, 10.6.2021 14:17:31.947
863, 1.50981, 0.743515, 178.025, -0.000976562, 0, 0.00292969, 0.347656, 0.207031, -9.77734, 10.6.2021 14:17:31.955
864, 1.51716, 0.764374, 178.024, -0.000976562, -0.00195312, 0.000976562, 0.120117, 0.270508, -9.93555, 10.6.2021 14:17:31.963
865, 1.51764, 0.792346, 178.024, 0, 0, -0.000976562, 0.520508, 0.338867, -9.76074, 10.6.2021 14:17:31.971
866, 1.51824, 0.827312, 178.023, 0, 0, -0.00488281, 0.363281, 0.272461, -9.86621, 10.6.2021 14:17:31.979
867, 1.52571, 0.855165, 178.023, 0.00195312, 0.00195312, -0.00390625, 0.262695, 0.333008, -9.83398, 10.6.2021 14:17:31.987
868, 1.52623, 0.883045, 178.016, 0.000976562, 0, -0.00488281, 0.0927734, 0.358398, -9.98047, 10.6.2021 14:17:31.995
869, 1.52672, 0.911018, 178.015, 0.000976562, 0, -0.0078125, 0.629883, 0.21875, -9.84766, 10.6.2021 14:17:32.003
870, 1.53448, 0.952765, 178.008, 0.000976562, 0.00390625, -0.00976562, 0.830078, 0.167969, -9.80566, 10.6.2021 14:17:32.011
871, 1.52822, 0.994847, 178.007, 0, 0.00488281, -0.00976562, 0.354492, 0.0761719, -9.88379, 10.6.2021 14:17:32.019
872, 1.529, 1.03672, 177.999, 0.000976562, 0.00195312, -0.0078125, 0.161133, 0.208008, -9.92383, 10.6.2021 14:17:32.027
873, 1.52274, 1.0788, 177.999, -0.000976562, 0, -0.00390625, 0.967773, 0.0976562, -9.76465, 10.6.2021 14:17:32.035
874, 1.50973, 1.13499, 177.998, -0.00292969, -0.000976562, -0.00195312, 0.8125, 0.0976562, -9.86426, 10.6.2021 14:17:32.043
875, 1.5037, 1.19106, 177.998, -0.00292969, 0.00195312, -0.000976562, 0.441406, 0.173828, -9.83984, 10.6.2021 14:17:32.051
876, 1.49756, 1.24014, 177.997, -0.00195312, 0, -0.000976562, 0.329102, 0.369141, -9.83594, 10.6.2021 14:17:32.059
877, 1.49142, 1.28922, 177.996, -0.00195312, -0.00292969, -0.000976562, 0.470703, 0.226562, -9.90527, 10.6.2021 14:17:32.067
878, 1.4854, 1.3453, 177.996, -0.00195312, -0.00292969, 0.000976562, 0.914062, 0.1875, -9.81348, 10.6.2021 14:17:32.075
879, 1.47977, 1.40828, 177.995, 0, 0, 0.000976562, 0.525391, 0.166016, -9.8125, 10.6.2021 14:17:32.083
880, 1.46664, 1.45748, 177.995, 0, 0, 0, 0.259766, 0.142578, -9.80176, 10.6.2021 14:17:32.091
881, 1.46062, 1.51356, 177.994, -0.00195312, -0.000976562, -0.000976562, 0.607422, 0.185547, -9.94629, 10.6.2021 14:17:32.099
882, 1.4476, 1.56976, 177.993, -0.00390625, -0.00195312, -0.00195312, 0.810547, 0.0947266, -9.83594, 10.6.2021 14:17:32.107
883, 1.4418, 1.63274, 177.986, -0.00390625, 0, -0.00488281, 0.895508, 0.260742, -9.70801, 10.6.2021 14:17:32.115
884, 1.43602, 1.70282, 177.985, -0.00292969, 0, -0.00878906, 0.883789, 0.407227, -9.80273, 10.6.2021 14:17:32.123
885, 1.43023, 1.76581, 177.977, -0.00292969, -0.00488281, -0.0117188, 0.665039, 0.250977, -9.88086, 10.6.2021 14:17:32.131
886, 1.43168, 1.84267, 177.969, -0.00195312, -0.0107422, -0.00976562, 1.05469, 0.386719, -9.9209, 10.6.2021 14:17:32.139
887, 1.43317, 1.91251, 177.968, -0.000976562, -0.0146484, -0.00585938, 0.896484, 0.267578, -9.83887, 10.6.2021 14:17:32.147
888, 1.42752, 1.98251, 177.96, 0, -0.0146484, -0.00488281, 0.683594, 0.265625, -9.75879, 10.6.2021 14:17:32.155
889, 1.42875, 2.05246, 177.959, 0, -0.0136719, -0.00292969, 0.530273, 0.15625, -9.79883, 10.6.2021 14:17:32.163
890, 1.42286, 2.11555, 177.959, -0.000976562, -0.0136719, -0.00195312, 0.389648, 0.0634766, -9.99023, 10.6.2021 14:17:32.171
891, 1.41673, 2.16465, 177.958, -0.00390625, -0.0126953, 0.000976562, 0.104492, 0.133789, -9.93262, 10.6.2021 14:17:32.179
892, 1.41035, 2.19976, 177.958, -0.00488281, -0.0107422, -0.00292969, 0.145508, 0.237305, -9.85352, 10.6.2021 14:17:32.187
893, 1.41096, 2.23474, 177.957, -0.00683594, -0.00390625, -0.00585938, 0.106445, 0.400391, -9.66406, 10.6.2021 14:17:32.195
894, 1.41147, 2.25565, 177.95, -0.00585938, 0.00585938, -0.00976562, 0.219727, 0.393555, -9.78809, 10.6.2021 14:17:32.203
895, 1.42609, 2.27625, 177.95, -0.00195312, 0.0117188, -0.0078125, -0.0107422, 0.761719, -9.95508, 10.6.2021 14:17:32.211
896, 1.44046, 2.28991, 177.942, 0.000976562, 0.0146484, -0.00488281, 0.0585938, 0.665039, -10.0498, 10.6.2021 14:17:32.219
897, 1.46169, 2.30353, 177.942, 0.00390625, 0.0185547, -0.00488281, 0.350586, 0.549805, -9.77246, 10.6.2021 14:17:32.227
898, 1.48991, 2.31703, 177.941, 0.00878906, 0.0224609, -0.00390625, 0.466797, 0.700195, -9.8125, 10.6.2021 14:17:32.235
899, 1.51827, 2.33044, 177.933, 0.00976562, 0.0292969, -0.00195312, 0.507812, 0.660156, -9.83105, 10.6.2021 14:17:32.243
900, 1.55374, 2.35781, 177.932, 0.00878906, 0.0322266, 0, 0.716797, 0.802734, -10.0488, 10.6.2021 14:17:32.251
901, 1.59632, 2.39205, 177.931, 0.0117188, 0.03125, 0.00292969, 1.05664, 0.664062, -9.84277, 10.6.2021 14:17:32.259
902, 1.59669, 2.41304, 177.93, 0.0185547, 0.0292969, 0.00683594, 2.01465, 0.487305, -9.81641, 10.6.2021 14:17:32.267
903, 1.5968, 2.42713, 177.937, 0.0224609, 0.0244141, 0.0126953, 2.49902, 0.34082, -9.86719, 10.6.2021 14:17:32.275
904, 1.58991, 2.44134, 177.944, 0.0244141, 0.0136719, 0.0205078, 2.69629, -0.214844, -9.91016, 10.6.2021 14:17:32.283
905, 1.58275, 2.44865, 177.958, 0.0224609, -0.00585938, 0.0263672, 2.57812, -0.59082, -9.99805, 10.6.2021 14:17:32.291
906, 1.5826, 2.44874, 177.965, 0.0185547, -0.03125, 0.0263672, 2.16895, -0.951172, -10.1133, 10.6.2021 14:17:32.297
907, 1.57508, 2.43506, 177.979, 0.0078125, -0.0507812, 0.0205078, 1.72461, -0.832031, -9.75098, 10.6.2021 14:17:32.305
908, 1.58169, 2.42104, 177.986, -0.0078125, -0.0615234, 0.0146484, 0.542969, -0.487305, -9.68945, 10.6.2021 14:17:32.313
909, 1.58818, 2.40002, 177.994, -0.0185547, -0.0615234, 0.00976562, -1.25977, -0.299805, -9.74219, 10.6.2021 14:17:32.321
910, 1.60166, 2.37888, 178.001, -0.0175781, -0.0488281, 0.0078125, -1.59863, 0.142578, -9.93359, 10.6.2021 14:17:32.329
911, 1.60842, 2.36477, 178.001, -0.0136719, -0.0283203, 0.00878906, -1.91992, 0.634766, -9.86621, 10.6.2021 14:17:32.337
912, 1.62226, 2.36462, 178.007, -0.0117188, 0.00292969, 0.0078125, -1.97949, 0.926758, -9.88672, 10.6.2021 14:17:32.345
913, 1.62938, 2.3715, 178.007, -0.00683594, 0.03125, 0.00683594, -1.5127, 0.983398, -9.76172, 10.6.2021 14:17:32.353
914, 1.62959, 2.39259, 178.014, 0.00292969, 0.0478516, 0.0117188, -0.553711, 0.575195, -9.99316, 10.6.2021 14:17:32.361
915, 1.62993, 2.42068, 178.02, 0.0136719, 0.0537109, 0.015625, 0.635742, 0.446289, -9.8623, 10.6.2021 14:17:32.369
916, 1.62327, 2.44888, 178.027, 0.0136719, 0.0546875, 0.0166016, 2.00293, 0.373047, -9.85059, 10.6.2021 14:17:32.377
917, 1.62359, 2.47697, 178.034, 0.0078125, 0.0478516, 0.0166016, 2.72852, -0.442383, -9.47559, 10.6.2021 14:17:32.385
918, 1.6238, 2.49806, 178.04, 0.00195312, 0.0283203, 0.0126953, 3.43652, -0.832031, -9.73145, 10.6.2021 14:17:32.393
919, 1.62377, 2.50515, 178.047, -0.000976562, 0, 0.00488281, 3.91895, -0.479492, -9.94629, 10.6.2021 14:17:32.401
920, 1.63076, 2.50503, 178.047, -0.0126953, -0.0302734, -0.00390625, 3.5127, -0.586914, -9.88672, 10.6.2021 14:17:32.409
921, 1.64466, 2.49071, 178.04, -0.0214844, -0.0625, -0.015625, 2.44727, -0.860352, -9.85938, 10.6.2021 14:17:32.417
922, 1.65145, 2.4695, 178.033, -0.0263672, -0.0888672, -0.0273438, 0.462891, 0.0957031, -9.86621, 10.6.2021 14:17:32.425
923, 1.67201, 2.42696, 178.019, -0.03125, -0.101562, -0.0380859, -2.17285, 1.26758, -10.3584, 10.6.2021 14:17:32.433
924, 1.68582, 2.39143, 177.999, -0.0292969, -0.0878906, -0.0439453, -3.81445, 1.72754, -10.085, 10.6.2021 14:17:32.441
925, 1.6996, 2.363, 177.985, -0.0195312, -0.0507812, -0.0400391, -4.8291, 2.3623, -10.1182, 10.6.2021 14:17:32.449
926, 1.70689, 2.35558, 177.964, 0.00585938, 0.0136719, -0.0361328, -2.58594, 1.49609, -9.46191, 10.6.2021 14:17:32.457
927, 1.70754, 2.37637, 177.949, 0.0263672, 0.0722656, -0.0283203, -2.87207, 1.6543, -9.04004, 10.6.2021 14:17:32.465
928, 1.69462, 2.41135, 177.942, 0.0332031, 0.109375, -0.0126953, -2.1582, 1.65723, -9.14355, 10.6.2021 14:17:32.473
929, 1.68876, 2.46735, 177.935, 0.0292969, 0.114258, 0, 1.93262, 0.0517578, -10.416, 10.6.2021 14:17:32.481
930, 1.67564, 2.51658, 177.934, 0.0273438, 0.105469, 0.0126953, 6.04199, -0.523438, -10.5811, 10.6.2021 14:17:32.489
931, 1.66936, 2.56578, 177.94, 0.0283203, 0.078125, 0.0185547, 6.12207, -0.467773, -10.0957, 10.6.2021 14:17:32.497
932, 1.66271, 2.594, 177.947, 0.0224609, 0.0283203, 0.015625, 4.92676, -0.233398, -9.24219, 10.6.2021 14:17:32.505
933, 1.65556, 2.59422, 177.954, 0.0126953, -0.0449219, 0.0107422, 3.78711, -0.5625, -9.42969, 10.6.2021 14:17:32.513
934, 1.64792, 2.56645, 177.962, 0.00878906, -0.106445, 0.00390625, 3.33887, -1.24414, -10.251, 10.6.2021 14:17:32.521
935, 1.64719, 2.52446, 177.963, 0.00878906, -0.128906, -0.000976562, 1.65332, -0.629883, -10.6445, 10.6.2021 14:17:32.529
936, 1.64634, 2.47548, 177.963, 0.00195312, -0.114258, 0.000976562, -2.81641, -0.861328, -9.8623, 10.6.2021 14:17:32.537
937, 1.65229, 2.43353, 177.964, -0.00976562, -0.0800781, 0.000976562, -5.42188, -0.726562, -9.5625, 10.6.2021 14:17:32.545
938, 1.65878, 2.41251, 177.971, -0.0185547, -0.0410156, 0.00488281, -4.84375, -0.59668, -8.93652, 10.6.2021 14:17:32.553
939, 1.66565, 2.40539, 177.971, -0.0214844, 0.0166016, 0.00292969, -2.06641, -1.30371, -9.81055, 10.6.2021 14:17:32.561
940, 1.68012, 2.43314, 177.97, -0.0244141, 0.0820312, -0.00683594, 0.839844, -0.580078, -10.1455, 10.6.2021 14:17:32.569
941, 1.68842, 2.48175, 177.962, -0.0341797, 0.114258, -0.0205078, 1.65527, -0.19043, -10.1191, 10.6.2021 14:17:32.577
942, 1.71041, 2.53026, 177.954, -0.046875, 0.0878906, -0.0253906, 0.663086, 0.954102, -10.5488, 10.6.2021 14:17:32.585
943, 1.73218, 2.55768, 177.939, -0.0546875, 0.0253906, -0.0351562, 1.6416, 2.84375, -9.52734, 10.6.2021 14:17:32.593
944, 1.76061, 2.55687, 177.917, -0.0400391, -0.0253906, -0.046875, 3.97363, 1.54688, -9.34766, 10.6.2021 14:17:32.601
945, 1.77492, 2.5493, 177.896, -0.0117188, -0.03125, -0.046875, 3.16406, 2.87793, -10.5332, 10.6.2021 14:17:32.609
946, 1.77524, 2.54199, 177.875, 0.0166016, -0.0078125, -0.0566406, 1.0791, 2.70898, -9.66113, 10.6.2021 14:17:32.617
947, 1.76884, 2.5417, 177.848, 0.0302734, -0.00976562, -0.0488281, -2.84473, 2.30078, -9.71387, 10.6.2021 14:17:32.625
948, 1.7623, 2.54151, 177.827, 0.0351562, -0.0244141, -0.0429688, 0.288086, 2.19531, -9.02734, 10.6.2021 14:17:32.633
949, 1.74835, 2.52757, 177.813, 0.0419922, -0.0283203, -0.0390625, 3.04004, 0.913086, -9.82812, 10.6.2021 14:17:32.641
950, 1.72767, 2.52776, 177.8, 0.0546875, -0.00878906, -0.0244141, 1.09863, -0.686523, -10.5518, 10.6.2021 14:17:32.649
951, 1.70698, 2.52795, 177.786, 0.0615234, 0.00292969, -0.00878906, -1.29688, -0.229492, -10.0039, 10.6.2021 14:17:32.657
952, 1.68601, 2.52835, 177.787, 0.0498047, -0.0136719, 0.000976562, -2.2041, -1.54004, -9.64941, 10.6.2021 14:17:32.665
953, 1.66489, 2.52175, 177.787, 0.0283203, -0.0263672, 0.00585938, 0.472656, -3.09863, -9.48145, 10.6.2021 14:17:32.673
954, 1.65762, 2.51498, 177.794, 0.0136719, -0.0166016, 0.0195312, -0.685547, -3.69922, -10.4287, 10.6.2021 14:17:32.681
955, 1.6576, 2.52208, 177.801, -0.00878906, 0.0302734, 0.0107422, 0.0273438, -2.44531, -9.76367, 10.6.2021 14:17:32.689
956, 1.66484, 2.54304, 177.808, -0.0400391, 0.0615234, -0.000976562, 1.00879, -2.19336, -9.9502, 10.6.2021 14:17:32.697
957, 1.68648, 2.57763, 177.807, -0.0644531, 0.0576172, -0.000976562, 2.4375, -1.70605, -9.93066, 10.6.2021 14:17:32.705
958, 1.71485, 2.5981, 177.806, -0.0761719, 0.0214844, -0.00976562, 2.8125, -0.178711, -9.46582, 10.6.2021 14:17:32.713
959, 1.75029, 2.59718, 177.798, -0.0751953, -0.0244141, -0.0224609, 1.87891, 1.12793, -9.82129, 10.6.2021 14:17:32.721
960, 1.78543, 2.58931, 177.784, -0.0742188, -0.0458984, -0.0419922, 3.23145, 3.01758, -9.90723, 10.6.2021 14:17:32.729
961, 1.82045, 2.56733, 177.762, -0.0664062, -0.0566406, -0.0615234, -1.70215, 3.81543, -9.47168, 10.6.2021 14:17:32.737
962, 1.84191, 2.55238, 177.727, -0.0341797, -0.0429688, -0.0664062, -1.44824, 3.99707, -10.7881, 10.6.2021 14:17:32.745
963, 1.85622, 2.53768, 177.699, 0.00292969, -0.0332031, -0.078125, -2.12402, 4.55566, -9.58984, 10.6.2021 14:17:32.753
964, 1.84983, 2.53027, 177.664, 0.03125, -0.00292969, -0.0654297, 0.441406, 3.04199, -9.29395, 10.6.2021 14:17:32.761
965, 1.83657, 2.53711, 177.636, 0.0507812, 0.0351562, -0.0673828, 1.73047, 1.96289, -10.0957, 10.6.2021 14:17:32.769
966, 1.81662, 2.5581, 177.608, 0.0712891, 0.0439453, -0.0576172, -1.22363, 0.719727, -9.2793, 10.6.2021 14:17:32.777
967, 1.78953, 2.57224, 177.581, 0.078125, 0.0244141, -0.0449219, -0.869141, -1.13672, -10.1416, 10.6.2021 14:17:32.785
968, 1.75517, 2.57965, 177.56, 0.0644531, 0.00488281, -0.0361328, 3.51953, -2.37305, -10.8857, 10.6.2021 14:17:32.793
969, 1.74163, 2.58674, 177.547, 0.03125, 0.0117188, -0.0185547, 4.43164, -2.83594, -10.7041, 10.6.2021 14:17:32.801
970, 1.73493, 2.60088, 177.546, -0.000976562, 0.0136719, -0.00683594, -0.458008, -2.7168, -8.44238, 10.6.2021 14:17:32.809
971, 1.74222, 2.60763, 177.539, -0.0234375, -0.00292969, 0.000976562, 1.92871, -2.93164, -8.99805, 10.6.2021 14:17:32.817
972, 1.75591, 2.60044, 177.546, -0.0419922, -0.0400391, 0.00488281, 3.24414, -0.741211, -9.26758, 10.6.2021 14:17:32.825
973, 1.77659, 2.586, 177.546, -0.0585938, -0.0556641, 0.00878906, 3.17773, -0.359375, -10.5713, 10.6.2021 14:17:32.833
974, 1.80397, 2.56452, 177.552, -0.0673828, -0.0683594, 0.00488281, -3.35449, 2.06445, -12.0566, 10.6.2021 14:17:32.841
975, 1.83106, 2.52906, 177.559, -0.0537109, -0.0839844, 0.0214844, -9.07422, 2.0791, -10.3047, 10.6.2021 14:17:32.849
976, 1.85101, 2.50096, 177.58, -0.0302734, -0.0478516, 0.0449219, -0.0898438, 2.875, -7.60156, 10.6.2021 14:17:32.857
977, 1.85757, 2.50115, 177.601, -0.00390625, 0.0341797, 0.0625, 0.458984, 2.12891, -9.34961, 10.6.2021 14:17:32.865
978, 1.851, 2.5436, 177.622, 0.0273438, 0.132812, 0.0410156, -0.211914, 0.503906, -9.39844, 10.6.2021 14:17:32.873
979, 1.83784, 2.60719, 177.642, 0.0488281, 0.147461, 0.0419922, -0.657227, 1.40723, -11.8301, 10.6.2021 14:17:32.881
980, 1.81752, 2.66392, 177.662, 0.0341797, 0.0878906, 0.0566406, 1.69531, 1.2334, -10.5508, 10.6.2021 14:17:32.889
981, 1.81046, 2.69248, 177.69, 0.0107422, 0.0136719, 0.0605469, 4.64453, -2.02832, -9.01465, 10.6.2021 14:17:32.897
982, 1.80283, 2.69305, 177.718, 0.0078125, -0.0273438, 0.0732422, 5.94824, -2.11133, -8.72559, 10.6.2021 14:17:32.905
983, 1.80191, 2.68658, 177.754, 0.00195312, -0.0205078, 0.0849609, 6.09668, 0.0849609, -9.45215, 10.6.2021 14:17:32.913
984, 1.80096, 2.68722, 177.796, -0.0166016, -0.0273438, 0.0908203, 2.57129, -0.680664, -9.68359, 10.6.2021 14:17:32.921
985, 1.80646, 2.66685, 177.845, -0.0244141, -0.0732422, 0.100586, 1.49512, -3.0957, -10.7939, 10.6.2021 14:17:32.929
986, 1.8186, 2.62536, 177.894, -0.0341797, -0.155273, 0.104492, -4.99512, 3.11816, -11.9326, 10.6.2021 14:17:32.937
987, 1.83681, 2.54894, 177.944, -0.0429688, -0.182617, 0.121094, -5.70996, 1.6875, -9.68164, 10.6.2021 14:17:32.945
988, 1.85522, 2.4867, 178.015, -0.0449219, -0.116211, 0.15625, -1.05469, 0.498047, -6.8457, 10.6.2021 14:17:32.953
989, 1.8674, 2.46658, 178.085, -0.0117188, 0.0136719, 0.167969, -4.16602, 2.97656, -9.41016, 10.6.2021 14:17:32.961
990, 1.85951, 2.50279, 178.154, 0.0253906, 0.123047, 0.131836, -6.54688, 2.5957, -10.457, 10.6.2021 14:17:32.969
991, 1.84519, 2.55988, 178.21, 0.0488281, 0.150391, 0.114258, -2.0293, 0.767578, -11.3262, 10.6.2021 14:17:32.977
992, 1.82378, 2.62416, 178.272, 0.0439453, 0.114258, 0.180664, 1.52539, 0.469727, -10.0449, 10.6.2021 14:17:32.985
993, 1.80161, 2.67475, 178.356, 0.0214844, 0.0898438, 0.170898, 6.5918, -0.151367, -9.47363, 10.6.2021 14:17:32.993
994, 1.79333, 2.71102, 178.432, 0.00488281, 0.0742188, 0.175781, 7.15625, -1.23242, -8.7041, 10.6.2021 14:17:33.001
995, 1.79184, 2.7473, 178.516, 0.000976562, 0.0351562, 0.177734, 5.30957, -0.354492, -10.1982, 10.6.2021 14:17:33.009
996, 1.78979, 2.75565, 178.592, 0, -0.0292969, 0.170898, 4.95605, -1.11621, -10.6738, 10.6.2021 14:17:33.017
997, 1.78767, 2.72883, 178.67, -0.0136719, -0.111328, 0.170898, 2.68848, -0.195312, -10.4727, 10.6.2021 14:17:33.025
998, 1.79911, 2.67398, 178.755, -0.0371094, -0.173828, 0.170898, -2.7373, 1.68359, -9.72461, 10.6.2021 14:17:33.033
999, 1.8105, 2.60515, 178.839, -0.0332031, -0.165039, 0.182617, -2.54395, 0.726562, -9.85547, 10.6.2021 14:17:33.041
1000, 1.81472, 2.54357, 178.924, -0.00878906, -0.101562, 0.201172, -2.79395, 1.19922, -9.3877, 10.6.2021 14:17:33.049
1001, 1.81241, 2.52411, 179.022, 0.0234375, -0.00976562, 0.208984, -3.44434, 1.09277, -10.2861, 10.6.2021 14:17:33.057
1002, 1.79655, 2.53963, 179.114, 0.0292969, 0.0527344, 0.202148, -4.28809, 2.50293, -9.63867, 10.6.2021 14:17:33.065
1003, 1.78756, 2.56219, 179.211, 0.0146484, 0.0537109, 0.225586, -4.50684, 0.855469, -9.43555, 10.6.2021 14:17:33.073
1004, 1.7784, 2.59184, 179.316, 0.0166016, 0.0449219, 0.233398, 1.83594, -1.19043, -9.28809, 10.6.2021 14:17:33.081
1005, 1.762, 2.61463, 179.428, 0.0234375, 0.0507812, 0.241211, 4.71289, -0.398438, -10.0088, 10.6.2021 14:17:33.089
1006, 1.75258, 2.64436, 179.54, 0.0185547, 0.0634766, 0.244141, 2.71777, -1.83789, -10.7285, 10.6.2021 14:17:33.097
1007, 1.74325, 2.67397, 179.644, -0.00488281, 0.0380859, 0.235352, 1.30566, -2.19824, -9.9668, 10.6.2021 14:17:33.105
1008, 1.74765, 2.67565, 179.756, -0.0410156, -0.0341797, 0.233398, -1.84863, 2.32617, -10.8955, 10.6.2021 14:17:33.113
1009, 1.76617, 2.65624, 179.861, -0.0664062, -0.0771484, 0.230469, 0.985352, 0.704102, -8.17578, 10.6.2021 14:17:33.121
1010, 1.7992, 2.62959, 179.959, -0.0546875, -0.0683594, 0.232422, 3.18945, 0.541992, -8.26953, 10.6.2021 14:17:33.129
1011, 1.81064, 2.61736, -179.929, -0.0117188, -0.0136719, 0.249023, 1.78711, 3.04785, -11.6807, 10.6.2021 14:17:33.137
1012, 1.80806, 2.62613, -179.818, 0.015625, 0.0185547, 0.253906, -3.32324, 3.18555, -10.3086, 10.6.2021 14:17:33.145
1013, 1.79816, 2.6281, -179.691, 0.0166016, -0.015625, 0.282227, -5.03711, 3.40625, -10.4824, 10.6.2021 14:17:33.153
1014, 1.78831, 2.61606, -179.565, 0.0214844, -0.0439453, 0.280273, 4.23047, 1.38281, -8.38184, 10.6.2021 14:17:33.161
1015, 1.77132, 2.60407, -179.432, 0.0478516, -0.0478516, 0.291992, 2.11621, -2.65625, -9.37793, 10.6.2021 14:17:33.169
1016, 1.74032, 2.59897, -179.298, 0.0683594, 0.0078125, 0.299805, 4.64551, -1.26074, -10.2803, 10.6.2021 14:17:33.177
1017, 1.70912, 2.6009, -179.157, 0.0429688, -0.00585938, 0.297852, -3.65332, -0.836914, -11.7734, 10.6.2021 14:17:33.185
1018, 1.69902, 2.58895, -179.017, -0.0175781, -0.0615234, 0.319336, -7.79199, -0.90625, -10.5479, 10.6.2021 14:17:33.193
1019, 1.71005, 2.54931, -178.87, -0.0537109, -0.106445, 0.331055, -1.2373, -0.136719, -8.07812, 10.6.2021 14:17:33.201
1020, 1.72778, 2.517, -178.709, -0.0546875, -0.0625, 0.354492, 3.4375, 0.810547, -9.08691, 10.6.2021 14:17:33.209
1021, 1.73846, 2.5195, -178.548, -0.0185547, 0.0537109, 0.357422, 0.102539, -0.0371094, -9.76465, 10.6.2021 14:17:33.217
1022, 1.73431, 2.55697, -178.387, 0.0175781, 0.100586, 0.330078, -5.75977, 2.42383, -10.333, 10.6.2021 14:17:33.225
1023, 1.72354, 2.59407, -178.234, 0.0146484, 0.0634766, 0.351562, -6.29395, 3.3457, -8.94141, 10.6.2021 14:17:33.233
1024, 1.71266, 2.60342, -178.073, 0.000976562, -0.000976562, 0.358398, 0.949219, -0.335938, -10.4727, 10.6.2021 14:17:33.241
1025, 1.70858, 2.613, -177.905, 0.00683594, 0.0185547, 0.37793, 11.0508, -2.13574, -8.0752, 10.6.2021 14:17:33.249
1026, 1.69716, 2.63648, -177.723, 0.0146484, 0.0703125, 0.394531, 6.70215, 0.580078, -9.67188, 10.6.2021 14:17:33.257
1027, 1.68552, 2.67382, -177.548, 0.00976562, 0.0634766, 0.393555, 2.71484, -1.04395, -10.7471, 10.6.2021 14:17:33.265
1028, 1.68092, 2.6767, -177.359, -0.0185547, -0.0537109, 0.414062, -1.53223, 1.79688, -13.2305, 10.6.2021 14:17:33.273
1029, 1.692, 2.62379, -177.17, -0.0439453, -0.195312, 0.414062, -4.19043, 2.41211, -9.21191, 10.6.2021 14:17:33.281
1030, 1.7037, 2.53621, -176.973, -0.0361328, -0.219727, 0.44043, 5.69434, 1.33984, -7.77832, 10.6.2021 14:17:33.289
1031, 1.7013, 2.46236, -176.762, 0.00292969, -0.134766, 0.469727, 0.669922, -0.0634766, -7.43164, 10.6.2021 14:17:33.297
1032, 1.69052, 2.43737, -176.544, 0.0449219, -0.0126953, 0.455078, -6.11816, 2.10547, -11.25, 10.6.2021 14:17:33.305
1033, 1.65796, 2.43959, -176.341, 0.0605469, 0.0273438, 0.450195, -11.3535, 0.916992, -11.6875, 10.6.2021 14:17:33.313
1034, 1.63227, 2.4489, -176.13, 0.0332031, 0.0136719, 0.460938, -3.67383, -0.00585938, -10.2295, 10.6.2021 14:17:33.321
1035, 1.61378, 2.45139, -175.92, 0.00976562, 0.0224609, 0.46582, 3.04883, -2.91406, -7.08008, 10.6.2021 14:17:33.329
1036, 1.60833, 2.48229, -175.703, -0.000976562, 0.0830078, 0.474609, 5.34082, -2.58398, -8.47461, 10.6.2021 14:17:33.337
1037, 1.60189, 2.52732, -175.487, -0.0185547, 0.123047, 0.483398, 4.5127, 0.516602, -8.82812, 10.6.2021 14:17:33.345
1038, 1.60938, 2.56604, -175.263, -0.0498047, 0.0410156, 0.488281, -5.69043, 3.35645, -14.2422, 10.6.2021 14:17:33.353
1039, 1.62551, 2.57, -175.04, -0.0546875, -0.0517578, 0.487305, -1.49219, -0.50293, -12.3076, 10.6.2021 14:17:33.361
1040, 1.63625, 2.53193, -174.815, -0.0292969, -0.103516, 0.46875, 9.56445, 1.85352, -8.55957, 10.6.2021 14:17:33.369
1041, 1.64026, 2.50032, -174.598, -0.00488281, -0.0615234, 0.47168, 7.26172, 2.4375, -7.9834, 10.6.2021 14:17:33.377
1042, 1.63622, 2.48941, -174.387, 0.00390625, -0.0146484, 0.469727, -3.26953, 2.16602, -7.24707, 10.6.2021 14:17:33.385
1043, 1.6249, 2.47836, -174.163, 0.0214844, -0.0585938, 0.486328, -7.74316, 1.0498, -11.9873, 10.6.2021 14:17:33.393
1044, 1.6084, 2.43881, -173.938, 0.0341797, -0.124023, 0.486328, -1.41699, 0.150391, -12.9756, 10.6.2021 14:17:33.399
1045, 1.58583, 2.38486, -173.713, 0.0273438, -0.121094, 0.496094, 2.52832, -1.07324, -9.99902, 10.6.2021 14:17:33.407
1046, 1.57595, 2.35274, -173.487, -0.00488281, -0.0244141, 0.499023, 1.24121, -0.364258, -6.85742, 10.6.2021 14:17:33.415
1047, 1.57779, 2.3633, -173.256, -0.0224609, 0.0507812, 0.499023, -2.40039, -1.4082, -8.64551, 10.6.2021 14:17:33.423
1048, 1.57957, 2.37389, -173.025, -0.0224609, 0.0195312, 0.500977, -6.61426, -0.754883, -11.1982, 10.6.2021 14:17:33.431
1049, 1.58916, 2.37098, -172.794, -0.0410156, -0.0507812, 0.49707, -4.20215, 4.85547, -12.2061, 10.6.2021 14:17:33.439
