Seq, Rot x, Rot y, Rot z, Vel x, Vel y, Vel z, Acc x, Acc y, Acc z, Time(m.d.y h:m:s.ms)
0, 1.79179, 0.080081, 62.4464, 0.000976562, 0, 0, -0.0644531, 0.333984, -9.74219, 1.12.2022 16:21:7.981
1, 1.79179, 0.080081, 62.4464, 0.000976562, -0.000976562, -0.000976562, 0.0419922, 0.246094, -9.79102, 1.12.2022 16:21:7.985
2, 1.79179, 0.080081, 62.4464, 0.000976562, 0, 0, -0.0078125, 0.25293, -9.77637, 1.12.2022 16:21:7.993
3, 1.79207, 0.0801335, 62.4553, -0.000976562, 0.000976562, -0.00292969, -0.0400391, 0.286133, -9.74121, 1.12.2022 16:21:8.001
4, 1.79442, 0.0897385, 62.4551, -0.000976562, 0, -0.00488281, 0.0429688, 0.28125, -9.75684, 1.12.2022 16:21:8.009
5, 1.79442, 0.0897385, 62.4551, -0.00292969, -0.000976562, -0.00390625, -0.0517578, 0.30957, -9.73828, 1.12.2022 16:21:8.017
6, 1.79442, 0.0897385, 62.4551, -0.00292969, 0, -0.00292969, -0.0263672, 0.322266, -9.77637, 1.12.2022 16:21:8.025
7, 1.8004, 0.0933636, 62.455, -0.00292969, -0.000976562, -0.00195312, 0.0117188, 0.27832, -9.75, 1.12.2022 16:21:8.033
8, 1.79678, 0.0993434, 62.4549, -0.000976562, -0.000976562, -0.00292969, -0.0576172, 0.324219, -9.75879, 1.12.2022 16:21:8.041
9, 1.7966, 0.0994403, 62.4577, -0.000976562, -0.000976562, -0.00292969, 0.0527344, 0.301758, -9.72852, 1.12.2022 16:21:8.049
10, 1.80258, 0.103066, 62.4575, -0.00292969, 0, -0.00390625, 0.0302734, 0.3125, -9.77246, 1.12.2022 16:21:8.057
11, 1.80258, 0.103066, 62.4575, -0.000976562, 0, -0.00488281, 0.0107422, 0.323242, -9.80078, 1.12.2022 16:21:8.065
12, 1.79895, 0.109046, 62.4575, 0, -0.000976562, -0.00683594, 0.0791016, 0.266602, -9.73438, 1.12.2022 16:21:8.073
13, 1.79905, 0.109194, 62.4692, -0.00195312, 0, -0.00976562, -0.0205078, 0.285156, -9.7207, 1.12.2022 16:21:8.081
14, 1.80503, 0.11282, 62.469, -0.000976562, -0.000976562, -0.0136719, 0.03125, 0.256836, -9.75293, 1.12.2022 16:21:8.089
15, 1.80513, 0.112969, 62.4807, 0, -0.000976562, -0.0166016, 0.0595703, 0.202148, -9.75, 1.12.2022 16:21:8.097
16, 1.80496, 0.113067, 62.4835, -0.000976562, 0, -0.0205078, -0.0117188, 0.207031, -9.73242, 1.12.2022 16:21:8.105
17, 1.80143, 0.119195, 62.4951, 0, -0.000976562, -0.0244141, 0.0527344, 0.192383, -9.75488, 1.12.2022 16:21:8.113
18, 1.79538, 0.115813, 62.5098, 0, -0.00195312, -0.0263672, 0.0527344, 0.206055, -9.72168, 1.12.2022 16:21:8.121
19, 1.79548, 0.115961, 62.5214, -0.000976562, -0.000976562, -0.0283203, 0.0283203, 0.264648, -9.75781, 1.12.2022 16:21:8.129
20, 1.7954, 0.116206, 62.5359, -0.00195312, -0.000976562, -0.03125, 0.102539, 0.243164, -9.76367, 1.12.2022 16:21:8.137
21, 1.79533, 0.116452, 62.5503, -0.00195312, -0.000976562, -0.0351562, -0.00488281, 0.25, -9.74805, 1.12.2022 16:21:8.145
22, 1.79525, 0.116697, 62.5648, -0.00195312, -0.000976562, -0.0371094, -0.00292969, 0.272461, -9.76172, 1.12.2022 16:21:8.153
23, 1.7892, 0.113311, 62.5794, -0.000976562, 0, -0.0390625, 0.0595703, 0.261719, -9.75586, 1.12.2022 16:21:8.161
24, 1.7894, 0.113606, 62.6027, -0.000976562, 0.000976562, -0.0419922, -0.0400391, 0.269531, -9.75098, 1.12.2022 16:21:8.169
25, 1.78335, 0.110217, 62.6173, -0.000976562, 0, -0.0439453, 0.0273438, 0.280273, -9.71191, 1.12.2022 16:21:8.177
26, 1.78338, 0.110608, 62.6435, -0.000976562, 0, -0.0458984, -0.00195312, 0.276367, -9.74512, 1.12.2022 16:21:8.185
27, 1.77733, 0.107216, 62.6581, 0, 0, -0.046875, -0.0498047, 0.307617, -9.74316, 1.12.2022 16:21:8.193
28, 1.77736, 0.107606, 62.6842, 0.000976562, -0.000976562, -0.0488281, 0.0185547, 0.325195, -9.77637, 1.12.2022 16:21:8.201
29, 1.77114, 0.104306, 62.7015, 0, 0, -0.0498047, -0.0458984, 0.322266, -9.7666, 1.12.2022 16:21:8.209
30, 1.77116, 0.104695, 62.7276, -0.000976562, 0.000976562, -0.0517578, -0.0283203, 0.300781, -9.75781, 1.12.2022 16:21:8.217
31, 1.76522, 0.101442, 62.7538, -0.000976562, 0, -0.0517578, -0.000976562, 0.279297, -9.78223, 1.12.2022 16:21:8.225
32, 1.76541, 0.101734, 62.7772, 0, 0.000976562, -0.0537109, -0.109375, 0.285156, -9.71875, 1.12.2022 16:21:8.233
33, 1.7592, 0.0984278, 62.7945, 0, 0.00195312, -0.0537109, -0.0478516, 0.286133, -9.75781, 1.12.2022 16:21:8.241
34, 1.75326, 0.0951693, 62.8207, 0, 0.000976562, -0.0537109, -0.0546875, 0.300781, -9.76172, 1.12.2022 16:21:8.249
35, 1.75328, 0.095554, 62.8468, 0, 0.000976562, -0.0537109, -0.125977, 0.324219, -9.74609, 1.12.2022 16:21:8.257
36, 1.74734, 0.0922917, 62.873, -0.000976562, 0, -0.0527344, -0.0380859, 0.295898, -9.75293, 1.12.2022 16:21:8.265
37, 1.74737, 0.092675, 62.8991, -0.000976562, 0, -0.0507812, -0.116211, 0.333984, -9.73438, 1.12.2022 16:21:8.273
38, 1.74712, 0.0930076, 62.9162, -0.000976562, 0, -0.0498047, -0.0830078, 0.333984, -9.74902, 1.12.2022 16:21:8.281
39, 1.74118, 0.0897402, 62.9424, -0.000976562, 0.000976562, -0.0478516, -0.0576172, 0.336914, -9.76562, 1.12.2022 16:21:8.289
40, 1.74138, 0.0900288, 62.9658, -0.000976562, 0, -0.0458984, -0.109375, 0.370117, -9.75684, 1.12.2022 16:21:8.297
41, 1.74113, 0.09036, 62.9829, -0.000976562, 0.000976562, -0.0400391, -0.140625, 0.396484, -9.76074, 1.12.2022 16:21:8.305
42, 1.74106, 0.0905978, 62.9973, 0, 0, -0.0361328, -0.143555, 0.399414, -9.77246, 1.12.2022 16:21:8.313
43, 1.73733, 0.0967979, 63.0116, -0.000976562, 0, -0.0273438, -0.202148, 0.470703, -9.74316, 1.12.2022 16:21:8.321
44, 1.73743, 0.0969418, 63.0233, 0, 0, -0.0205078, -0.0927734, 0.451172, -9.73633, 1.12.2022 16:21:8.329
45, 1.73753, 0.0970856, 63.035, -0.000976562, 0, -0.0126953, -0.109375, 0.448242, -9.7334, 1.12.2022 16:21:8.337
46, 1.74349, 0.100741, 63.0348, 0, -0.000976562, -0.00585938, -0.152344, 0.499023, -9.74609, 1.12.2022 16:21:8.345
47, 1.73983, 0.106703, 63.0348, -0.000976562, -0.000976562, 0.00195312, -0.0361328, 0.374023, -9.80273, 1.12.2022 16:21:8.353
48, 1.74579, 0.110358, 63.0346, -0.00195312, -0.000976562, 0.00488281, -0.0751953, 0.291992, -9.80176, 1.12.2022 16:21:8.361
49, 1.75175, 0.114013, 63.0345, -0.00195312, 0, 0.00488281, -0.00976562, 0.183594, -9.75, 1.12.2022 16:21:8.369
50, 1.75771, 0.117669, 63.0343, -0.00195312, -0.000976562, 0.000976562, -0.00488281, 0.15918, -9.74805, 1.12.2022 16:21:8.377
51, 1.76002, 0.127286, 63.0342, -0.00292969, -0.000976562, -0.00585938, -0.00195312, 0.292969, -9.7373, 1.12.2022 16:21:8.385
52, 1.76598, 0.130941, 63.034, -0.00195312, -0.00195312, -0.00878906, 0.115234, 0.380859, -9.72949, 1.12.2022 16:21:8.393
53, 1.7658, 0.131037, 63.0367, -0.000976562, -0.00195312, -0.0107422, 0.0400391, 0.320312, -9.79102, 1.12.2022 16:21:8.401
54, 1.76838, 0.140704, 63.0455, -0.000976562, 0, -0.0117188, 0.0683594, 0.275391, -9.81445, 1.12.2022 16:21:8.409
55, 1.77416, 0.144457, 63.048, -0.000976562, 0, -0.0175781, 0.167969, 0.144531, -9.81934, 1.12.2022 16:21:8.417
56, 1.77425, 0.144603, 63.0597, -0.00195312, 0.00195312, -0.0263672, 0.046875, 0.0927734, -9.76758, 1.12.2022 16:21:8.425
57, 1.78013, 0.148503, 63.0739, -0.000976562, 0.00292969, -0.0380859, 0.109375, 0.0224609, -9.76074, 1.12.2022 16:21:8.433
58, 1.78014, 0.148893, 63.1, 0.000976562, 0.00195312, -0.0527344, 0.0507812, -0.0478516, -9.70508, 1.12.2022 16:21:8.441
59, 1.78015, 0.149283, 63.126, 0.000976562, 0.000976562, -0.0654297, -0.0136719, -0.0380859, -9.71289, 1.12.2022 16:21:8.449
60, 1.77999, 0.149771, 63.1547, 0.000976562, 0, -0.0810547, 0.0517578, 0.00683594, -9.76758, 1.12.2022 16:21:8.457
61, 1.77625, 0.156361, 63.1951, 0.000976562, -0.000976562, -0.0947266, -0.00292969, 0.0234375, -9.75684, 1.12.2022 16:21:8.465
62, 1.77031, 0.153473, 63.2473, 0.000976562, 0, -0.107422, -0.0273438, 0.0693359, -9.79297, 1.12.2022 16:21:8.473
63, 1.76666, 0.160202, 63.2992, 0.000976562, 0.000976562, -0.120117, 0.0664062, 0.0351562, -9.77637, 1.12.2022 16:21:8.481
64, 1.76054, 0.157401, 63.3541, -0.000976562, 0.00195312, -0.133789, 0.00195312, 0.0380859, -9.77734, 1.12.2022 16:21:8.489
65, 1.75452, 0.154739, 63.4205, -0.00195312, 0.00390625, -0.146484, 0.00976562, -0.0371094, -9.73047, 1.12.2022 16:21:8.497
66, 1.73888, 0.154338, 63.487, -0.000976562, 0.00488281, -0.161133, -0.000976562, -0.0722656, -9.75879, 1.12.2022 16:21:8.505
67, 1.73277, 0.151893, 63.5677, 0, 0.00585938, -0.176758, -0.0683594, -0.0400391, -9.81348, 1.12.2022 16:21:8.513
68, 1.71704, 0.151695, 63.6485, -0.000976562, 0.00488281, -0.186523, -0.0273438, -0.00976562, -9.77832, 1.12.2022 16:21:8.521
69, 1.70527, 0.145582, 63.7382, 0, 0.00488281, -0.197266, -0.0976562, 0.137695, -9.72852, 1.12.2022 16:21:8.529
70, 1.68919, 0.145526, 63.8241, -0.000976562, 0.00390625, -0.203125, -0.111328, 0.258789, -9.69824, 1.12.2022 16:21:8.537
71, 1.67355, 0.145399, 63.9163, -0.00292969, 0.00292969, -0.206055, -0.0849609, 0.359375, -9.70605, 1.12.2022 16:21:8.545
72, 1.66409, 0.149, 64.0173, -0.00488281, 0.00292969, -0.206055, -0.168945, 0.420898, -9.76367, 1.12.2022 16:21:8.553
73, 1.65198, 0.142991, 64.112, -0.00585938, 0.00390625, -0.206055, -0.117188, 0.37793, -9.7666, 1.12.2022 16:21:8.561
74, 1.63633, 0.142796, 64.204, -0.0078125, 0.00292969, -0.206055, -0.0722656, 0.321289, -9.80859, 1.12.2022 16:21:8.569
75, 1.62644, 0.146386, 64.2984, -0.00683594, 0.00488281, -0.204102, -0.171875, 0.307617, -9.75098, 1.12.2022 16:21:8.577
76, 1.61078, 0.146146, 64.3902, -0.00488281, 0.00488281, -0.201172, -0.0839844, 0.235352, -9.80176, 1.12.2022 16:21:8.585
77, 1.60477, 0.143697, 64.4819, -0.00488281, 0.00488281, -0.199219, -0.0917969, 0.254883, -9.81055, 1.12.2022 16:21:8.593
78, 1.58911, 0.143414, 64.5736, -0.00390625, 0.00390625, -0.198242, -0.106445, 0.347656, -9.70996, 1.12.2022 16:21:8.601
79, 1.57936, 0.146848, 64.6652, -0.00292969, 0.00488281, -0.196289, -0.0361328, 0.34668, -9.78711, 1.12.2022 16:21:8.609
80, 1.5696, 0.150265, 64.7566, -0.00390625, 0.00585938, -0.194336, -0.0966797, 0.423828, -9.70605, 1.12.2022 16:21:8.617
81, 1.55976, 0.153539, 64.8364, -0.00292969, 0.00488281, -0.193359, -0.0771484, 0.414062, -9.7041, 1.12.2022 16:21:8.625
82, 1.55374, 0.151026, 64.9278, -0.00195312, 0.00585938, -0.193359, -0.0322266, 0.356445, -9.71094, 1.12.2022 16:21:8.633
83, 1.54397, 0.154402, 65.0191, 0, 0.00390625, -0.193359, -0.0996094, 0.410156, -9.74707, 1.12.2022 16:21:8.641
84, 1.53434, 0.157678, 65.1078, 0.00195312, 0.00390625, -0.192383, 0, 0.365234, -9.75391, 1.12.2022 16:21:8.649
85, 1.52432, 0.160981, 65.1898, 0.00488281, 0.00488281, -0.191406, -0.0332031, 0.394531, -9.77832, 1.12.2022 16:21:8.657
86, 1.51468, 0.164228, 65.2784, 0.00585938, 0.00683594, -0.186523, -0.0546875, 0.498047, -9.78516, 1.12.2022 16:21:8.665
87, 1.50859, 0.161533, 65.3579, 0.00683594, 0.00585938, -0.180664, 0.0751953, 0.408203, -9.8418, 1.12.2022 16:21:8.673
88, 1.49894, 0.164754, 65.4464, 0.00488281, 0.0078125, -0.173828, 0.0341797, 0.448242, -9.74316, 1.12.2022 16:21:8.681
89, 1.49872, 0.165824, 65.5256, 0.00390625, 0.00585938, -0.166016, -0.00488281, 0.463867, -9.77051, 1.12.2022 16:21:8.687
90, 1.49271, 0.1629, 65.5909, 0.00195312, 0.00585938, -0.154297, 0.00390625, 0.422852, -9.6748, 1.12.2022 16:21:8.695
91, 1.49281, 0.163802, 65.6652, -0.000976562, 0.00488281, -0.138672, -0.0888672, 0.568359, -9.65527, 1.12.2022 16:21:8.703
92, 1.49848, 0.168334, 65.7186, -0.000976562, 0.000976562, -0.117188, -0.0107422, 0.650391, -9.71094, 1.12.2022 16:21:8.711
93, 1.49843, 0.168992, 65.7697, -0.00292969, -0.000976562, -0.0927734, -0.0126953, 0.74707, -9.72168, 1.12.2022 16:21:8.719
94, 1.50419, 0.173326, 65.8091, -0.00683594, -0.00195312, -0.0654297, -0.0654297, 0.915039, -9.75, 1.12.2022 16:21:8.727
95, 1.51019, 0.177373, 65.832, -0.00488281, -0.00195312, -0.0380859, 0.0371094, 0.943359, -9.74316, 1.12.2022 16:21:8.735
96, 1.51574, 0.18134, 65.8367, -0.00683594, -0.00292969, -0.0107422, -0.0244141, 0.955078, -9.7373, 1.12.2022 16:21:8.743
97, 1.53128, 0.183071, 65.8365, -0.0078125, -0.00195312, 0.0117188, 0.0429688, 0.777344, -9.77148, 1.12.2022 16:21:8.751
98, 1.53144, 0.182986, 65.8341, -0.00488281, -0.000976562, 0.0263672, 0.0947266, 0.420898, -9.80176, 1.12.2022 16:21:8.759
99, 1.53741, 0.186575, 65.82, -0.00292969, 0, 0.0253906, 0.0146484, 0.202148, -9.75195, 1.12.2022 16:21:8.767
100, 1.54701, 0.184376, 65.8083, 0, 0, 0.0185547, 0.0878906, 0.194336, -9.64648, 1.12.2022 16:21:8.775
101, 1.54694, 0.184249, 65.7968, 0.00195312, 0.000976562, 0.0126953, 0.0595703, 0.232422, -9.73047, 1.12.2022 16:21:8.783
102, 1.55297, 0.187962, 65.7942, 0.00488281, 0, 0.0078125, 0.03125, 0.269531, -9.76465, 1.12.2022 16:21:8.791
103, 1.55297, 0.187962, 65.7942, 0.00488281, -0.00390625, 0.00488281, 0.0878906, 0.302734, -9.75, 1.12.2022 16:21:8.799
104, 1.55885, 0.19176, 65.7941, 0.00390625, -0.00292969, 0.00390625, 0.0332031, 0.292969, -9.75195, 1.12.2022 16:21:8.807
105, 1.55861, 0.191718, 65.7849, 0.00195312, -0.00390625, 0.00488281, 0, 0.25293, -9.77832, 1.12.2022 16:21:8.815
106, 1.56465, 0.195429, 65.7824, -0.000976562, -0.000976562, 0.00585938, 0.0634766, 0.227539, -9.79199, 1.12.2022 16:21:8.823
107, 1.57052, 0.199227, 65.7822, -0.00292969, 0.000976562, 0.0078125, -0.0253906, 0.204102, -9.81445, 1.12.2022 16:21:8.831
108, 1.57448, 0.193267, 65.7798, -0.00488281, 0, 0.0078125, -0.00976562, 0.241211, -9.77832, 1.12.2022 16:21:8.839
109, 1.58012, 0.197022, 65.7705, -0.00585938, 0.000976562, 0.00683594, 0.00976562, 0.260742, -9.71973, 1.12.2022 16:21:8.847
110, 1.58995, 0.194859, 65.768, -0.00585938, 0, 0.00585938, -0.0703125, 0.306641, -9.70703, 1.12.2022 16:21:8.855
111, 1.59582, 0.198656, 65.7679, -0.00585938, 0, 0.00683594, 0.0302734, 0.322266, -9.67285, 1.12.2022 16:21:8.863
112, 1.60169, 0.202452, 65.7677, -0.00488281, -0.00292969, 0.00683594, -0.0830078, 0.43457, -9.74121, 1.12.2022 16:21:8.871
113, 1.61129, 0.200244, 65.7561, -0.000976562, -0.00292969, 0.00878906, -0.0732422, 0.429688, -9.74609, 1.12.2022 16:21:8.879
114, 1.61129, 0.200244, 65.7561, 0, -0.00390625, 0.00878906, 0.00292969, 0.393555, -9.74902, 1.12.2022 16:21:8.887
115, 1.61733, 0.203951, 65.7535, 0.000976562, -0.00390625, 0.00878906, -0.0869141, 0.40332, -9.8252, 1.12.2022 16:21:8.895
116, 1.61709, 0.203908, 65.7444, 0.00195312, -0.00195312, 0.00878906, 0.0205078, 0.329102, -9.82422, 1.12.2022 16:21:8.903
117, 1.62314, 0.207613, 65.7418, 0.000976562, 0, 0.00585938, -0.0292969, 0.210938, -9.8125, 1.12.2022 16:21:8.911
118, 1.62693, 0.20174, 65.7418, 0.00195312, 0.000976562, 0.00195312, -0.150391, 0.201172, -9.77539, 1.12.2022 16:21:8.919
119, 1.6328, 0.205535, 65.7417, 0.00195312, 0.00195312, -0.00195312, -0.0322266, 0.198242, -9.70605, 1.12.2022 16:21:8.927
120, 1.6328, 0.205535, 65.7417, -0.000976562, 0, -0.00195312, -0.124023, 0.269531, -9.73828, 1.12.2022 16:21:8.935
121, 1.64247, 0.203457, 65.7416, -0.000976562, 0, 0.00292969, -0.138672, 0.370117, -9.66016, 1.12.2022 16:21:8.943
122, 1.64247, 0.203457, 65.7416, -0.00195312, -0.00292969, 0.00683594, -0.0761719, 0.27832, -9.73633, 1.12.2022 16:21:8.951
123, 1.64852, 0.207161, 65.739, -0.00292969, -0.00292969, 0.0078125, -0.123047, 0.301758, -9.70703, 1.12.2022 16:21:8.959
124, 1.65793, 0.205038, 65.7298, -0.00488281, -0.00292969, 0.00488281, -0.0576172, 0.259766, -9.76367, 1.12.2022 16:21:8.967
125, 1.66398, 0.208741, 65.7272, -0.00488281, -0.000976562, 0.00195312, -0.0380859, 0.276367, -9.74609, 1.12.2022 16:21:8.975
126, 1.66985, 0.212536, 65.7271, -0.00390625, 0, 0, -0.110352, 0.352539, -9.7998, 1.12.2022 16:21:8.983
127, 1.67365, 0.206662, 65.7271, -0.000976562, 0.000976562, 0.000976562, -0.0478516, 0.344727, -9.78711, 1.12.2022 16:21:8.991
128, 1.67952, 0.210457, 65.7269, 0, 0.00195312, 0.00292969, -0.0673828, 0.412109, -9.79199, 1.12.2022 16:21:8.999
129, 1.68331, 0.204583, 65.727, 0.000976562, 0, 0.00488281, -0.118164, 0.378906, -9.72168, 1.12.2022 16:21:9.007
130, 1.68331, 0.204583, 65.727, 0.00195312, 0, 0.00390625, -0.0332031, 0.318359, -9.72168, 1.12.2022 16:21:9.015
131, 1.68937, 0.208284, 65.7244, 0.00195312, 0.000976562, 0.00390625, -0.0839844, 0.267578, -9.76074, 1.12.2022 16:21:9.023
132, 1.68911, 0.208238, 65.7153, 0.00195312, -0.000976562, 0.00292969, -0.03125, 0.209961, -9.75098, 1.12.2022 16:21:9.031
133, 1.69499, 0.212033, 65.7151, 0.00195312, -0.000976562, 0.00195312, -0.00976562, 0.229492, -9.77637, 1.12.2022 16:21:9.039
134, 1.69878, 0.206158, 65.7151, 0.000976562, -0.000976562, 0.00195312, -0.0507812, 0.333008, -9.79395, 1.12.2022 16:21:9.047
135, 1.69878, 0.206158, 65.7151, 0, 0, 0.00292969, 0.0185547, 0.337891, -9.7998, 1.12.2022 16:21:9.055
136, 1.70465, 0.209952, 65.715, -0.000976562, 0, 0.00488281, 0.0234375, 0.316406, -9.79395, 1.12.2022 16:21:9.063
137, 1.70862, 0.203984, 65.7126, -0.00195312, 0, 0.00488281, -0.0380859, 0.295898, -9.76953, 1.12.2022 16:21:9.071
138, 1.7145, 0.207777, 65.7125, -0.00195312, 0, 0.00390625, 0.0341797, 0.236328, -9.70605, 1.12.2022 16:21:9.079
139, 1.72037, 0.211571, 65.7123, -0.00195312, 0.000976562, 0.00292969, -0.0566406, 0.311523, -9.73145, 1.12.2022 16:21:9.087
140, 1.72416, 0.205697, 65.7123, -0.000976562, 0, 0.00195312, -0.00488281, 0.329102, -9.75, 1.12.2022 16:21:9.095
141, 1.72978, 0.209444, 65.703, 0, -0.000976562, 0.00292969, 0.0195312, 0.360352, -9.75, 1.12.2022 16:21:9.103
142, 1.72996, 0.209348, 65.7006, 0.000976562, -0.000976562, 0.00390625, -0.0419922, 0.390625, -9.7334, 1.12.2022 16:21:9.111
143, 1.72996, 0.209348, 65.7006, 0.000976562, -0.000976562, 0.00488281, 0.00488281, 0.337891, -9.72461, 1.12.2022 16:21:9.119
144, 1.73962, 0.207267, 65.7005, 0, -0.00292969, 0.00488281, 0.0253906, 0.285156, -9.80859, 1.12.2022 16:21:9.127
145, 1.73981, 0.207171, 65.6981, 0.000976562, -0.000976562, 0.00488281, -0.00292969, 0.344727, -9.78809, 1.12.2022 16:21:9.135
146, 1.74568, 0.210964, 65.6979, 0.00195312, 0, 0.00390625, 0.0488281, 0.27832, -9.81836, 1.12.2022 16:21:9.143
147, 1.74542, 0.210917, 65.6888, 0.000976562, 0, 0.00488281, -0.0283203, 0.304688, -9.74805, 1.12.2022 16:21:9.151
148, 1.74542, 0.210917, 65.6888, -0.000976562, 0, 0.00488281, -0.0478516, 0.305664, -9.77637, 1.12.2022 16:21:9.159
149, 1.75527, 0.208737, 65.6862, 0, 0, 0.00390625, 0.0498047, 0.189453, -9.73828, 1.12.2022 16:21:9.167
150, 1.75527, 0.208737, 65.6862, -0.00195312, 0, 0.00292969, -0.0322266, 0.207031, -9.67773, 1.12.2022 16:21:9.175
151, 1.76114, 0.21253, 65.6861, -0.00292969, -0.000976562, 0, 0.0498047, 0.318359, -9.78906, 1.12.2022 16:21:9.183
152, 1.76493, 0.206655, 65.6861, -0.00292969, -0.00195312, -0.00292969, 0.0214844, 0.364258, -9.73535, 1.12.2022 16:21:9.191
153, 1.77081, 0.210447, 65.686, -0.00195312, -0.000976562, 0.000976562, -0.0546875, 0.446289, -9.75586, 1.12.2022 16:21:9.199
154, 1.77081, 0.210447, 65.686, -0.000976562, -0.00195312, 0.00390625, 0.0546875, 0.360352, -9.7627, 1.12.2022 16:21:9.207
155, 1.77668, 0.21424, 65.6858, -0.000976562, -0.000976562, 0.00585938, -0.00585938, 0.282227, -9.78906, 1.12.2022 16:21:9.215
156, 1.78039, 0.208218, 65.6743, 0, 0, 0.00585938, -0.0214844, 0.261719, -9.7334, 1.12.2022 16:21:9.223
157, 1.78039, 0.208218, 65.6743, 0, -0.000976562, 0.00292969, -0.000976562, 0.227539, -9.78906, 1.12.2022 16:21:9.231
158, 1.78627, 0.21201, 65.6741, 0.000976562, 0, -0.000976562, -0.116211, 0.333984, -9.73145, 1.12.2022 16:21:9.239
159, 1.78627, 0.21201, 65.6741, 0.000976562, -0.000976562, -0.000976562, -0.0449219, 0.375977, -9.73145, 1.12.2022 16:21:9.247
160, 1.78627, 0.21201, 65.6741, 0.000976562, -0.00195312, 0.000976562, -0.0380859, 0.34668, -9.76855, 1.12.2022 16:21:9.255
161, 1.79214, 0.215802, 65.674, 0, -0.00195312, 0.00390625, -0.0878906, 0.337891, -9.71582, 1.12.2022 16:21:9.263
162, 1.79612, 0.209827, 65.6716, 0, -0.00292969, 0.00488281, -0.0146484, 0.24707, -9.74316, 1.12.2022 16:21:9.271
163, 1.79612, 0.209827, 65.6716, -0.000976562, -0.000976562, 0.00390625, -0.0654297, 0.223633, -9.80859, 1.12.2022 16:21:9.279
164, 1.79612, 0.209827, 65.6716, -0.00195312, -0.000976562, 0.000976562, -0.0527344, 0.265625, -9.78418, 1.12.2022 16:21:9.287
165, 1.79025, 0.206036, 65.6717, -0.000976562, 0, 0, 0.00976562, 0.3125, -9.74902, 1.12.2022 16:21:9.295
166, 1.79404, 0.20016, 65.6718, -0.000976562, 0, 0, -0.107422, 0.370117, -9.74316, 1.12.2022 16:21:9.303
167, 1.79404, 0.20016, 65.6718, 0, 0, 0.000976562, -0.0546875, 0.365234, -9.76074, 1.12.2022 16:21:9.311
168, 1.78789, 0.196319, 65.6628, 0.000976562, 0, 0.00488281, -0.0292969, 0.31543, -9.78613, 1.12.2022 16:21:9.319
169, 1.79187, 0.190345, 65.6604, 0, 0, 0.00488281, -0.105469, 0.320312, -9.77539, 1.12.2022 16:21:9.327
170, 1.79187, 0.190345, 65.6604, -0.000976562, 0, 0.00390625, -0.00683594, 0.266602, -9.73535, 1.12.2022 16:21:9.335
171, 1.79187, 0.190345, 65.6604, 0, -0.00195312, 0.000976562, -0.0234375, 0.273438, -9.74219, 1.12.2022 16:21:9.343
172, 1.786, 0.186554, 65.6606, 0.000976562, 0.000976562, 0, -0.0234375, 0.337891, -9.73535, 1.12.2022 16:21:9.351
173, 1.786, 0.186554, 65.6606, 0, 0, 0.000976562, 0.0283203, 0.335938, -9.75586, 1.12.2022 16:21:9.359
174, 1.786, 0.186554, 65.6606, 0, -0.000976562, 0.00195312, -0.0644531, 0.331055, -9.74707, 1.12.2022 16:21:9.367
175, 1.786, 0.186554, 65.6606, 0, 0, 0.00390625, -0.00195312, 0.288086, -9.75391, 1.12.2022 16:21:9.375
176, 1.78997, 0.18058, 65.6582, -0.000976562, -0.000976562, 0.00488281, 0.0214844, 0.249023, -9.72949, 1.12.2022 16:21:9.383
177, 1.7897, 0.18053, 65.649, 0, 0, 0.00390625, -0.0449219, 0.297852, -9.75781, 1.12.2022 16:21:9.391
178, 1.7897, 0.18053, 65.649, -0.000976562, -0.000976562, 0.000976562, 0.0283203, 0.28125, -9.76367, 1.12.2022 16:21:9.399
179, 1.7897, 0.18053, 65.649, -0.000976562, -0.000976562, -0.000976562, -0.0263672, 0.310547, -9.7666, 1.12.2022 16:21:9.407
180, 1.7897, 0.18053, 65.649, -0.00195312, -0.000976562, 0.000976562, -0.0507812, 0.339844, -9.78027, 1.12.2022 16:21:9.415
181, 1.7897, 0.18053, 65.649, -0.000976562, -0.000976562, 0.00195312, 0.0332031, 0.302734, -9.75684, 1.12.2022 16:21:9.423
182, 1.78989, 0.180432, 65.6466, -0.000976562, -0.000976562, 0.00390625, -0.0478516, 0.295898, -9.77148, 1.12.2022 16:21:9.431
183, 1.79368, 0.174556, 65.6467, 0, -0.00195312, 0.00195312, -0.00976562, 0.327148, -9.75781, 1.12.2022 16:21:9.439
184, 1.79368, 0.174556, 65.6467, 0, -0.000976562, 0.00195312, 0.0166016, 0.279297, -9.77832, 1.12.2022 16:21:9.447
185, 1.79368, 0.174556, 65.6467, 0.000976562, -0.000976562, 0.000976562, -0.0859375, 0.323242, -9.77734, 1.12.2022 16:21:9.455
186, 1.78781, 0.170765, 65.6468, 0.000976562, 0, 0.000976562, -0.00195312, 0.318359, -9.72461, 1.12.2022 16:21:9.463
187, 1.78781, 0.170765, 65.6468, 0, 0, 0.00195312, -0.0429688, 0.287109, -9.77246, 1.12.2022 16:21:9.471
188, 1.78754, 0.170715, 65.6377, 0, 0, 0.00390625, -0.0751953, 0.308594, -9.71484, 1.12.2022 16:21:9.479
189, 1.78772, 0.170618, 65.6352, -0.000976562, 0, 0.00390625, 0.00390625, 0.260742, -9.77637, 1.12.2022 16:21:9.487
190, 1.78772, 0.170618, 65.6352, -0.00195312, -0.000976562, 0.00195312, -0.0576172, 0.280273, -9.78125, 1.12.2022 16:21:9.495
191, 1.79151, 0.164741, 65.6353, -0.000976562, -0.000976562, 0.00195312, -0.0615234, 0.338867, -9.74023, 1.12.2022 16:21:9.503
192, 1.79151, 0.164741, 65.6353, -0.000976562, -0.00195312, 0.000976562, 0.0117188, 0.318359, -9.7959, 1.12.2022 16:21:9.511
193, 1.79151, 0.164741, 65.6353, -0.000976562, -0.000976562, 0.000976562, -0.0693359, 0.344727, -9.78223, 1.12.2022 16:21:9.519
194, 1.79151, 0.164741, 65.6353, -0.000976562, -0.000976562, 0.00195312, -0.00488281, 0.300781, -9.75781, 1.12.2022 16:21:9.527
195, 1.7917, 0.164643, 65.6329, 0, 0, 0.00292969, -0.00976562, 0.320312, -9.7832, 1.12.2022 16:21:9.535
196, 1.7917, 0.164643, 65.6329, 0.000976562, 0, 0.00195312, -0.046875, 0.321289, -9.72363, 1.12.2022 16:21:9.543
197, 1.7917, 0.164643, 65.6329, 0.000976562, 0, 0.00195312, 0.0449219, 0.307617, -9.76074, 1.12.2022 16:21:9.551
198, 1.79143, 0.164592, 65.6237, 0.000976562, 0, 0.00195312, -0.0400391, 0.306641, -9.73145, 1.12.2022 16:21:9.559
199, 1.79143, 0.164592, 65.6237, 0.000976562, -0.000976562, 0.00195312, -0.0400391, 0.283203, -9.72266, 1.12.2022 16:21:9.567
200, 1.79143, 0.164592, 65.6237, 0, -0.000976562, 0.000976562, 0, 0.271484, -9.7334, 1.12.2022 16:21:9.575
201, 1.79143, 0.164592, 65.6237, 0, -0.000976562, 0.00195312, -0.0839844, 0.310547, -9.78027, 1.12.2022 16:21:9.583
202, 1.79161, 0.164495, 65.6213, -0.000976562, 0, 0.00195312, 0.0332031, 0.287109, -9.78027, 1.12.2022 16:21:9.591
203, 1.79161, 0.164495, 65.6213, -0.000976562, -0.000976562, 0.00195312, -0.0195312, 0.301758, -9.78125, 1.12.2022 16:21:9.599
204, 1.79161, 0.164495, 65.6213, -0.000976562, 0, 0.00195312, -0.0644531, 0.325195, -9.76367, 1.12.2022 16:21:9.607
205, 1.7954, 0.158618, 65.6213, -0.000976562, 0, 0.00195312, 0.0234375, 0.302734, -9.76074, 1.12.2022 16:21:9.615
206, 1.7954, 0.158618, 65.6213, -0.00195312, -0.000976562, 0, -0.0449219, 0.336914, -9.75391, 1.12.2022 16:21:9.623
207, 1.7954, 0.158618, 65.6213, -0.000976562, 0, 0.00195312, -0.0253906, 0.316406, -9.71777, 1.12.2022 16:21:9.631
208, 1.7954, 0.158618, 65.6213, -0.000976562, -0.000976562, 0.00195312, -0.0195312, 0.310547, -9.78125, 1.12.2022 16:21:9.639
209, 1.7954, 0.158618, 65.6213, 0, -0.000976562, 0.00195312, -0.0830078, 0.34082, -9.74219, 1.12.2022 16:21:9.647
210, 1.79532, 0.158469, 65.6098, 0, -0.000976562, 0.000976562, 0, 0.3125, -9.75586, 1.12.2022 16:21:9.655
211, 1.79532, 0.158469, 65.6098, 0, 0, 0.00195312, 0.00390625, 0.294922, -9.79395, 1.12.2022 16:21:9.663
212, 1.79532, 0.158469, 65.6098, 0, -0.000976562, 0.00195312, -0.0546875, 0.310547, -9.76172, 1.12.2022 16:21:9.669
213, 1.79532, 0.158469, 65.6098, 0, 0, 0.000976562, 0.0527344, 0.28125, -9.74512, 1.12.2022 16:21:9.677
214, 1.79532, 0.158469, 65.6098, 0, 0.000976562, 0.00195312, -0.0302734, 0.299805, -9.73145, 1.12.2022 16:21:9.685
215, 1.79532, 0.158469, 65.6098, 0, 0, 0.00195312, -0.0566406, 0.299805, -9.72949, 1.12.2022 16:21:9.693
216, 1.7991, 0.152591, 65.6098, -0.000976562, -0.000976562, 0.00195312, 0.0380859, 0.27832, -9.73145, 1.12.2022 16:21:9.701
217, 1.7991, 0.152591, 65.6098, -0.000976562, 0, 0.00195312, -0.0742188, 0.310547, -9.75195, 1.12.2022 16:21:9.709
218, 1.79929, 0.152494, 65.6074, -0.000976562, 0, 0.00195312, 0.00292969, 0.316406, -9.71094, 1.12.2022 16:21:9.717
219, 1.79929, 0.152494, 65.6074, -0.000976562, -0.000976562, 0.000976562, 0.0185547, 0.3125, -9.77051, 1.12.2022 16:21:9.725
220, 1.79929, 0.152494, 65.6074, -0.000976562, -0.000976562, 0.00195312, -0.0712891, 0.295898, -9.75684, 1.12.2022 16:21:9.733
221, 1.79929, 0.152494, 65.6074, -0.000976562, 0.000976562, 0.000976562, 0.0429688, 0.287109, -9.77832, 1.12.2022 16:21:9.741
222, 1.79929, 0.152494, 65.6074, -0.000976562, 0, 0.00195312, -0.00292969, 0.303711, -9.77441, 1.12.2022 16:21:9.749
223, 1.8028, 0.146564, 65.5983, 0, 0, 0.00195312, -0.0234375, 0.304688, -9.72754, 1.12.2022 16:21:9.757
224, 1.8028, 0.146564, 65.5983, -0.000976562, 0, 0.00195312, 0.03125, 0.30957, -9.74219, 1.12.2022 16:21:9.765
225, 1.80299, 0.146467, 65.5958, 0, -0.000976562, 0.00292969, -0.0830078, 0.306641, -9.71875, 1.12.2022 16:21:9.773
226, 1.80299, 0.146467, 65.5958, 0, -0.000976562, 0.00195312, -0.0283203, 0.273438, -9.7207, 1.12.2022 16:21:9.781
227, 1.80299, 0.146467, 65.5958, 0, 0.000976562, 0.000976562, -0.00683594, 0.276367, -9.75195, 1.12.2022 16:21:9.789
228, 1.79711, 0.142679, 65.596, 0, -0.000976562, 0.00195312, -0.078125, 0.305664, -9.74707, 1.12.2022 16:21:9.797
229, 1.79711, 0.142679, 65.596, -0.000976562, -0.000976562, 0.000976562, 0.0078125, 0.27832, -9.72363, 1.12.2022 16:21:9.805
230, 1.79711, 0.142679, 65.596, -0.000976562, 0, 0.000976562, -0.0566406, 0.290039, -9.71777, 1.12.2022 16:21:9.813
231, 1.79711, 0.142679, 65.596, -0.000976562, 0, 0.000976562, -0.046875, 0.319336, -9.7334, 1.12.2022 16:21:9.821
232, 1.79711, 0.142679, 65.596, -0.000976562, -0.000976562, 0.000976562, 0.00683594, 0.333984, -9.7666, 1.12.2022 16:21:9.829
233, 1.8009, 0.136801, 65.596, -0.000976562, 0, 0.000976562, -0.0830078, 0.30957, -9.73047, 1.12.2022 16:21:9.837
234, 1.8009, 0.136801, 65.596, -0.000976562, 0.000976562, 0.00195312, -0.0449219, 0.30957, -9.72949, 1.12.2022 16:21:9.845
235, 1.8009, 0.136801, 65.596, 0, 0, 0.00195312, -0.0253906, 0.30957, -9.73438, 1.12.2022 16:21:9.853
236, 1.80109, 0.136704, 65.5936, 0, 0, 0.00195312, -0.0683594, 0.341797, -9.70215, 1.12.2022 16:21:9.861
237, 1.80081, 0.136651, 65.5845, 0, 0, 0.00195312, 0.0185547, 0.332031, -9.7627, 1.12.2022 16:21:9.869
238, 1.80081, 0.136651, 65.5845, 0.000976562, -0.000976562, 0.000976562, -0.0341797, 0.303711, -9.68945, 1.12.2022 16:21:9.877
239, 1.80081, 0.136651, 65.5845, 0, -0.000976562, 0.000976562, -0.0527344, 0.31543, -9.76855, 1.12.2022 16:21:9.885
240, 1.80081, 0.136651, 65.5845, -0.000976562, -0.000976562, 0.00195312, 0.0380859, 0.276367, -9.75293, 1.12.2022 16:21:9.893
241, 1.80081, 0.136651, 65.5845, -0.000976562, -0.000976562, 0.00195312, -0.0595703, 0.27832, -9.72754, 1.12.2022 16:21:9.901
242, 1.80081, 0.136651, 65.5845, -0.000976562, -0.000976562, 0.00195312, 0.00488281, 0.3125, -9.76074, 1.12.2022 16:21:9.909
243, 1.80081, 0.136651, 65.5845, -0.000976562, 0, 0.00195312, 0.00683594, 0.329102, -9.7627, 1.12.2022 16:21:9.917
244, 1.80081, 0.136651, 65.5845, -0.000976562, -0.000976562, 0.00195312, -0.0761719, 0.324219, -9.74707, 1.12.2022 16:21:9.925
245, 1.80081, 0.136651, 65.5845, -0.000976562, 0, 0.00195312, -0.0185547, 0.294922, -9.72754, 1.12.2022 16:21:9.933
246, 1.801, 0.136554, 65.582, 0, -0.000976562, 0.00195312, -0.0234375, 0.299805, -9.72949, 1.12.2022 16:21:9.941
247, 1.801, 0.136554, 65.582, 0, -0.000976562, 0.000976562, -0.046875, 0.313477, -9.71973, 1.12.2022 16:21:9.949
248, 1.801, 0.136554, 65.582, -0.000976562, -0.000976562, 0.00195312, 0.0400391, 0.314453, -9.81055, 1.12.2022 16:21:9.957
249, 1.801, 0.136554, 65.582, 0, 0, 0.00195312, -0.0488281, 0.328125, -9.80371, 1.12.2022 16:21:9.965
250, 1.801, 0.136554, 65.582, 0, -0.000976562, 0.00195312, -0.0146484, 0.292969, -9.75586, 1.12.2022 16:21:9.973
251, 1.801, 0.136554, 65.582, 0, -0.000976562, 0.00292969, 0.0175781, 0.291992, -9.71875, 1.12.2022 16:21:9.981
252, 1.80073, 0.136502, 65.5729, 0, -0.000976562, 0.00195312, -0.078125, 0.316406, -9.7334, 1.12.2022 16:21:9.989
253, 1.80073, 0.136502, 65.5729, 0, -0.000976562, 0.000976562, 0.000976562, 0.291016, -9.84375, 1.12.2022 16:21:9.997
254, 1.80073, 0.136502, 65.5729, 0, -0.000976562, 0.00195312, -0.0234375, 0.286133, -9.75586, 1.12.2022 16:21:10.005
255, 1.80091, 0.136405, 65.5705, 0, 0, 0.00195312, -0.0820312, 0.318359, -9.70215, 1.12.2022 16:21:10.013
256, 1.80091, 0.136405, 65.5705, 0, -0.000976562, 0.00195312, 0.0458984, 0.273438, -9.74316, 1.12.2022 16:21:10.021
257, 1.80091, 0.136405, 65.5705, 0, -0.000976562, 0.00195312, -0.0263672, 0.298828, -9.77637, 1.12.2022 16:21:10.029
258, 1.80091, 0.136405, 65.5705, 0, 0, 0.00195312, -0.0107422, 0.300781, -9.83594, 1.12.2022 16:21:10.037
259, 1.80091, 0.136405, 65.5705, 0, -0.000976562, 0, 0.00292969, 0.294922, -9.74219, 1.12.2022 16:21:10.045
260, 1.80091, 0.136405, 65.5705, -0.000976562, 0, 0.000976562, -0.0849609, 0.321289, -9.71582, 1.12.2022 16:21:10.053
261, 1.80091, 0.136405, 65.5705, 0, 0, 0.000976562, 0.0117188, 0.324219, -9.75781, 1.12.2022 16:21:10.061
262, 1.80091, 0.136405, 65.5705, -0.000976562, 0, 0, -0.00292969, 0.316406, -9.79297, 1.12.2022 16:21:10.069
263, 1.80091, 0.136405, 65.5705, 0, 0, 0.000976562, -0.0537109, 0.323242, -9.80859, 1.12.2022 16:21:10.077
264, 1.80091, 0.136405, 65.5705, 0, 0, 0.000976562, 0.0283203, 0.288086, -9.74707, 1.12.2022 16:21:10.085
265, 1.80091, 0.136405, 65.5705, 0, 0, 0.000976562, -0.0556641, 0.293945, -9.68457, 1.12.2022 16:21:10.093
266, 1.8011, 0.136308, 65.568, 0, 0, 0.00195312, -0.0527344, 0.310547, -9.75977, 1.12.2022 16:21:10.101
267, 1.80083, 0.136256, 65.5589, 0, 0, 0.000976562, 0.00878906, 0.288086, -9.8252, 1.12.2022 16:21:10.109
268, 1.80083, 0.136256, 65.5589, -0.000976562, 0, 0.000976562, -0.0888672, 0.308594, -9.77832, 1.12.2022 16:21:10.117
269, 1.80083, 0.136256, 65.5589, 0, 0, 0.000976562, -0.0117188, 0.297852, -9.73926, 1.12.2022 16:21:10.125
270, 1.80083, 0.136256, 65.5589, -0.000976562, -0.000976562, 0.000976562, -0.0185547, 0.28125, -9.73926, 1.12.2022 16:21:10.133
271, 1.80083, 0.136256, 65.5589, 0, -0.000976562, 0, -0.0693359, 0.3125, -9.74023, 1.12.2022 16:21:10.141
272, 1.80083, 0.136256, 65.5589, 0, 0, 0.000976562, 0.0410156, 0.286133, -9.74805, 1.12.2022 16:21:10.149
273, 1.80083, 0.136256, 65.5589, -0.000976562, 0, 0, -0.0185547, 0.307617, -9.74805, 1.12.2022 16:21:10.157
274, 1.80083, 0.136256, 65.5589, 0, 0.000976562, 0, -0.046875, 0.333008, -9.71387, 1.12.2022 16:21:10.165
275, 1.79495, 0.13247, 65.5591, 0, 0, 0.000976562, 0.00976562, 0.329102, -9.74609, 1.12.2022 16:21:10.173
276, 1.79495, 0.13247, 65.5591, -0.000976562, 0, 0.000976562, -0.0527344, 0.337891, -9.78906, 1.12.2022 16:21:10.181
277, 1.79513, 0.132373, 65.5566, 0.000976562, 0, 0.000976562, 0.0185547, 0.310547, -9.75879, 1.12.2022 16:21:10.189
278, 1.79513, 0.132373, 65.5566, 0.000976562, 0, 0.000976562, -0.00878906, 0.290039, -9.73438, 1.12.2022 16:21:10.197
279, 1.79513, 0.132373, 65.5566, 0, 0, 0, -0.0380859, 0.319336, -9.74805, 1.12.2022 16:21:10.205
280, 1.79513, 0.132373, 65.5566, 0, 0, 0.000976562, 0.00976562, 0.291016, -9.74219, 1.12.2022 16:21:10.213
281, 1.79513, 0.132373, 65.5566, -0.000976562, -0.000976562, 0.000976562, -0.03125, 0.301758, -9.78418, 1.12.2022 16:21:10.221
282, 1.79513, 0.132373, 65.5566, -0.000976562, 0, 0.000976562, -0.0429688, 0.321289, -9.74316, 1.12.2022 16:21:10.229
283, 1.79513, 0.132373, 65.5566, 0, 0, 0.000976562, 0.0146484, 0.261719, -9.74805, 1.12.2022 16:21:10.237
284, 1.79513, 0.132373, 65.5566, -0.00195312, 0, 0.000976562, -0.0693359, 0.310547, -9.75195, 1.12.2022 16:21:10.245
285, 1.79513, 0.132373, 65.5566, -0.00195312, -0.000976562, 0.000976562, -0.0380859, 0.322266, -9.77148, 1.12.2022 16:21:10.253
286, 1.79865, 0.126441, 65.5475, -0.000976562, 0, 0.000976562, -0.0166016, 0.295898, -9.76953, 1.12.2022 16:21:10.261
287, 1.79865, 0.126441, 65.5475, -0.000976562, -0.000976562, 0, -0.0576172, 0.327148, -9.76172, 1.12.2022 16:21:10.269
288, 1.79865, 0.126441, 65.5475, -0.000976562, -0.000976562, 0, 0.0361328, 0.288086, -9.74512, 1.12.2022 16:21:10.277
289, 1.79865, 0.126441, 65.5475, 0, 0, 0, -0.0253906, 0.316406, -9.72656, 1.12.2022 16:21:10.285
290, 1.79865, 0.126441, 65.5475, 0, 0, 0, -0.0449219, 0.301758, -9.71484, 1.12.2022 16:21:10.293
291, 1.79883, 0.126344, 65.5451, -0.000976562, -0.000976562, 0.000976562, 0.00976562, 0.276367, -9.75, 1.12.2022 16:21:10.301
292, 1.79883, 0.126344, 65.5451, 0, 0, 0.000976562, -0.0585938, 0.318359, -9.72168, 1.12.2022 16:21:10.309
293, 1.79883, 0.126344, 65.5451, -0.000976562, -0.00195312, 0.000976562, -0.00390625, 0.316406, -9.71973, 1.12.2022 16:21:10.317
294, 1.79883, 0.126344, 65.5451, 0, -0.000976562, 0.000976562, 0.0136719, 0.269531, -9.77637, 1.12.2022 16:21:10.325
295, 1.79883, 0.126344, 65.5451, -0.000976562, 0, 0.000976562, -0.0625, 0.301758, -9.78516, 1.12.2022 16:21:10.333
296, 1.79883, 0.126344, 65.5451, -0.000976562, -0.000976562, 0.000976562, 0.0185547, 0.303711, -9.76758, 1.12.2022 16:21:10.341
297, 1.79883, 0.126344, 65.5451, -0.000976562, -0.000976562, 0.000976562, -0.0283203, 0.30957, -9.74805, 1.12.2022 16:21:10.349
298, 1.79883, 0.126344, 65.5451, -0.000976562, -0.000976562, 0.000976562, -0.0683594, 0.307617, -9.73828, 1.12.2022 16:21:10.357
299, 1.79883, 0.126344, 65.5451, 0, 0, 0.000976562, 0.0166016, 0.294922, -9.74414, 1.12.2022 16:21:10.365
300, 1.79883, 0.126344, 65.5451, -0.000976562, 0, 0.000976562, -0.0810547, 0.317383, -9.74707, 1.12.2022 16:21:10.373
301, 1.79883, 0.126344, 65.5451, -0.000976562, 0, 0, -0.0214844, 0.333984, -9.74316, 1.12.2022 16:21:10.381
302, 1.79883, 0.126344, 65.5451, -0.000976562, 0, 0, 0.0078125, 0.318359, -9.72461, 1.12.2022 16:21:10.389
303, 1.79883, 0.126344, 65.5451, 0, 0, 0, -0.0810547, 0.31543, -9.76367, 1.12.2022 16:21:10.397
304, 1.79883, 0.126344, 65.5451, 0, -0.000976562, 0.000976562, -0.00488281, 0.305664, -9.75293, 1.12.2022 16:21:10.405
305, 1.79883, 0.126344, 65.5451, 0, -0.000976562, 0.000976562, 0.00976562, 0.291016, -9.76855, 1.12.2022 16:21:10.413
306, 1.79883, 0.126344, 65.5451, 0, -0.000976562, 0.000976562, -0.0693359, 0.327148, -9.75879, 1.12.2022 16:21:10.421
307, 1.79901, 0.126248, 65.5427, 0, 0, 0, 0.0292969, 0.287109, -9.72168, 1.12.2022 16:21:10.429
308, 1.79901, 0.126248, 65.5427, 0, -0.000976562, 0.000976562, -0.0410156, 0.3125, -9.7666, 1.12.2022 16:21:10.437
309, 1.79901, 0.126248, 65.5427, -0.000976562, -0.000976562, 0.00195312, -0.0283203, 0.323242, -9.72852, 1.12.2022 16:21:10.445
310, 1.79901, 0.126248, 65.5427, -0.000976562, -0.000976562, 0.000976562, 0.0214844, 0.27832, -9.74316, 1.12.2022 16:21:10.453
311, 1.80462, 0.129979, 65.5333, -0.000976562, -0.000976562, 0.000976562, -0.0380859, 0.336914, -9.75391, 1.12.2022 16:21:10.461
312, 1.80462, 0.129979, 65.5333, 0, -0.000976562, 0.000976562, 0.0136719, 0.318359, -9.80273, 1.12.2022 16:21:10.469
313, 1.80462, 0.129979, 65.5333, 0, -0.000976562, 0, -0.0185547, 0.283203, -9.73242, 1.12.2022 16:21:10.477
314, 1.80462, 0.129979, 65.5333, -0.000976562, -0.000976562, 0.000976562, -0.0498047, 0.30957, -9.71973, 1.12.2022 16:21:10.485
315, 1.80462, 0.129979, 65.5333, -0.000976562, -0.000976562, 0.000976562, 0.0185547, 0.291992, -9.80859, 1.12.2022 16:21:10.493
316, 1.80462, 0.129979, 65.5333, 0, -0.000976562, 0.000976562, -0.0224609, 0.277344, -9.78906, 1.12.2022 16:21:10.501
317, 1.80462, 0.129979, 65.5333, 0.000976562, 0, 0.000976562, -0.0332031, 0.290039, -9.72461, 1.12.2022 16:21:10.509
318, 1.80462, 0.129979, 65.5333, 0, 0, 0, 0.00292969, 0.303711, -9.71094, 1.12.2022 16:21:10.517
319, 1.80462, 0.129979, 65.5333, -0.000976562, 0, 0.000976562, -0.0664062, 0.326172, -9.74512, 1.12.2022 16:21:10.525
320, 1.80462, 0.129979, 65.5333, -0.000976562, -0.000976562, 0, -0.00488281, 0.262695, -9.7666, 1.12.2022 16:21:10.533
321, 1.80462, 0.129979, 65.5333, -0.000976562, 0, 0, -0.0439453, 0.296875, -9.79785, 1.12.2022 16:21:10.541
322, 1.80462, 0.129979, 65.5333, -0.000976562, 0, 0.000976562, -0.0751953, 0.330078, -9.69531, 1.12.2022 16:21:10.549
323, 1.80462, 0.129979, 65.5333, -0.000976562, 0, 0.000976562, 0.0107422, 0.300781, -9.69434, 1.12.2022 16:21:10.557
324, 1.8048, 0.129883, 65.5309, -0.000976562, -0.000976562, 0, -0.0429688, 0.324219, -9.75684, 1.12.2022 16:21:10.565
325, 1.8048, 0.129883, 65.5309, -0.000976562, 0, 0.000976562, -0.0244141, 0.328125, -9.80176, 1.12.2022 16:21:10.573
326, 1.8048, 0.129883, 65.5309, 0, -0.000976562, 0, 0.0361328, 0.311523, -9.72363, 1.12.2022 16:21:10.581
327, 1.8048, 0.129883, 65.5309, -0.000976562, 0, 0.000976562, -0.0849609, 0.314453, -9.7334, 1.12.2022 16:21:10.589
328, 1.8048, 0.129883, 65.5309, -0.000976562, 0, -0.000976562, -0.0400391, 0.322266, -9.75195, 1.12.2022 16:21:10.597
329, 1.8048, 0.129883, 65.5309, 0, 0, -0.000976562, -0.0126953, 0.310547, -9.78125, 1.12.2022 16:21:10.605
330, 1.79893, 0.126098, 65.5311, 0, 0, 0.000976562, -0.0839844, 0.330078, -9.78906, 1.12.2022 16:21:10.613
331, 1.8048, 0.129883, 65.5309, -0.000976562, 0, 0.000976562, 0.0263672, 0.290039, -9.7373, 1.12.2022 16:21:10.621
332, 1.8048, 0.129883, 65.5309, -0.000976562, -0.000976562, 0.00195312, -0.0380859, 0.302734, -9.75781, 1.12.2022 16:21:10.629
333, 1.8048, 0.129883, 65.5309, -0.000976562, -0.000976562, 0, -0.0400391, 0.310547, -9.75293, 1.12.2022 16:21:10.637
334, 1.8048, 0.129883, 65.5309, 0, 0, -0.000976562, 0.0361328, 0.271484, -9.73633, 1.12.2022 16:21:10.643
335, 1.8048, 0.129883, 65.5309, -0.000976562, 0, -0.000976562, -0.0732422, 0.286133, -9.74121, 1.12.2022 16:21:10.651
336, 1.8048, 0.129883, 65.5309, -0.000976562, 0, 0.000976562, -0.00195312, 0.299805, -9.72949, 1.12.2022 16:21:10.659
337, 1.8048, 0.129883, 65.5309, -0.000976562, -0.000976562, 0, -0.00488281, 0.302734, -9.74609, 1.12.2022 16:21:10.667
338, 1.8048, 0.129883, 65.5309, -0.000976562, -0.000976562, 0, -0.0625, 0.325195, -9.78027, 1.12.2022 16:21:10.675
339, 1.8048, 0.129883, 65.5309, 0, -0.000976562, 0, 0.0419922, 0.288086, -9.82031, 1.12.2022 16:21:10.683
340, 1.8048, 0.129883, 65.5309, 0, 0, 0.000976562, -0.0263672, 0.305664, -9.77441, 1.12.2022 16:21:10.691
341, 1.8048, 0.129883, 65.5309, 0, -0.000976562, 0, -0.0644531, 0.322266, -9.74707, 1.12.2022 16:21:10.699
342, 1.8048, 0.129883, 65.5309, -0.000976562, 0, -0.000976562, 0.0263672, 0.301758, -9.73535, 1.12.2022 16:21:10.707
343, 1.8048, 0.129883, 65.5309, -0.000976562, 0, 0.000976562, -0.0869141, 0.331055, -9.79883, 1.12.2022 16:21:10.715
344, 1.8048, 0.129883, 65.5309, 0, 0, 0.000976562, -0.0244141, 0.303711, -9.78125, 1.12.2022 16:21:10.723
345, 1.80453, 0.12983, 65.5218, 0, -0.000976562, -0.000976562, 0.0166016, 0.292969, -9.74023, 1.12.2022 16:21:10.731
346, 1.80453, 0.12983, 65.5218, -0.000976562, -0.000976562, -0.000976562, -0.0566406, 0.337891, -9.72559, 1.12.2022 16:21:10.739
347, 1.80453, 0.12983, 65.5218, 0, 0, 0.000976562, 0.0351562, 0.303711, -9.78516, 1.12.2022 16:21:10.747
348, 1.80453, 0.12983, 65.5218, 0, -0.000976562, -0.000976562, -0.0224609, 0.293945, -9.78906, 1.12.2022 16:21:10.755
349, 1.80453, 0.12983, 65.5218, 0, 0, 0.000976562, -0.0419922, 0.291992, -9.71582, 1.12.2022 16:21:10.763
350, 1.80453, 0.12983, 65.5218, 0, 0, -0.000976562, 0, 0.294922, -9.73438, 1.12.2022 16:21:10.771
351, 1.80472, 0.129733, 65.5193, 0, 0, 0.000976562, -0.0742188, 0.322266, -9.76172, 1.12.2022 16:21:10.779
352, 1.80472, 0.129733, 65.5193, -0.000976562, 0, 0.000976562, -0.00976562, 0.310547, -9.76074, 1.12.2022 16:21:10.787
353, 1.80472, 0.129733, 65.5193, 0, 0, 0.000976562, -0.00292969, 0.291016, -9.76367, 1.12.2022 16:21:10.795
354, 1.80472, 0.129733, 65.5193, 0, -0.000976562, 0, -0.0830078, 0.306641, -9.72656, 1.12.2022 16:21:10.803
355, 1.80472, 0.129733, 65.5193, -0.000976562, 0, 0, 0.00292969, 0.288086, -9.74707, 1.12.2022 16:21:10.811
356, 1.80472, 0.129733, 65.5193, 0, -0.000976562, -0.000976562, -0.0273438, 0.277344, -9.78906, 1.12.2022 16:21:10.819
357, 1.80472, 0.129733, 65.5193, 0, -0.000976562, -0.000976562, -0.0693359, 0.327148, -9.77344, 1.12.2022 16:21:10.827
358, 1.80472, 0.129733, 65.5193, -0.000976562, -0.000976562, 0, 0, 0.310547, -9.75781, 1.12.2022 16:21:10.835
359, 1.80472, 0.129733, 65.5193, -0.000976562, -0.000976562, 0, -0.0644531, 0.330078, -9.78027, 1.12.2022 16:21:10.843
360, 1.80472, 0.129733, 65.5193, -0.000976562, -0.000976562, 0, -0.0146484, 0.308594, -9.77637, 1.12.2022 16:21:10.851
361, 1.80472, 0.129733, 65.5193, 0, 0, 0, -0.0175781, 0.289062, -9.78223, 1.12.2022 16:21:10.859
362, 1.80472, 0.129733, 65.5193, 0, 0, 0, -0.0859375, 0.325195, -9.77539, 1.12.2022 16:21:10.867
363, 1.80472, 0.129733, 65.5193, -0.000976562, 0, -0.000976562, 0, 0.308594, -9.76953, 1.12.2022 16:21:10.875
364, 1.80472, 0.129733, 65.5193, -0.000976562, -0.000976562, -0.000976562, -0.0410156, 0.296875, -9.79297, 1.12.2022 16:21:10.883
365, 1.80472, 0.129733, 65.5193, 0, -0.000976562, -0.000976562, -0.0136719, 0.314453, -9.74316, 1.12.2022 16:21:10.891
366, 1.80093, 0.135614, 65.5193, -0.00195312, -0.000976562, -0.000976562, 0.0449219, 0.283203, -9.75, 1.12.2022 16:21:10.899
367, 1.80093, 0.135614, 65.5193, -0.000976562, -0.000976562, -0.000976562, -0.0302734, 0.314453, -9.72461, 1.12.2022 16:21:10.907
368, 1.80093, 0.135614, 65.5193, -0.000976562, -0.000976562, 0, -0.0517578, 0.326172, -9.72656, 1.12.2022 16:21:10.915
369, 1.80093, 0.135614, 65.5193, -0.000976562, 0, 0, 0.0263672, 0.299805, -9.74023, 1.12.2022 16:21:10.923
370, 1.80093, 0.135614, 65.5193, 0, -0.000976562, 0, -0.0810547, 0.321289, -9.7373, 1.12.2022 16:21:10.931
371, 1.80093, 0.135614, 65.5193, -0.000976562, -0.000976562, 0, -0.0136719, 0.321289, -9.73145, 1.12.2022 16:21:10.939
372, 1.80093, 0.135614, 65.5193, 0, -0.000976562, -0.000976562, -0.015625, 0.285156, -9.80762, 1.12.2022 16:21:10.947
373, 1.80093, 0.135614, 65.5193, 0, 0, 0, -0.0761719, 0.317383, -9.75195, 1.12.2022 16:21:10.955
374, 1.80093, 0.135614, 65.5193, 0, -0.000976562, 0, 0.0117188, 0.300781, -9.7793, 1.12.2022 16:21:10.963
375, 1.80093, 0.135614, 65.5193, 0, 0, -0.000976562, -0.0126953, 0.318359, -9.79102, 1.12.2022 16:21:10.971
376, 1.80093, 0.135614, 65.5193, 0, -0.000976562, 0, -0.0361328, 0.310547, -9.77441, 1.12.2022 16:21:10.979
377, 1.80681, 0.139397, 65.5191, 0, -0.000976562, 0, -0.00195312, 0.27832, -9.74219, 1.12.2022 16:21:10.987
378, 1.80681, 0.139397, 65.5191, -0.000976562, 0, 0, -0.078125, 0.326172, -9.72363, 1.12.2022 16:21:10.995
379, 1.80681, 0.139397, 65.5191, 0, -0.000976562, 0, 0.0166016, 0.316406, -9.73926, 1.12.2022 16:21:11.003
380, 1.80681, 0.139397, 65.5191, -0.000976562, 0, -0.000976562, 0.0078125, 0.268555, -9.72852, 1.12.2022 16:21:11.011
381, 1.80681, 0.139397, 65.5191, -0.000976562, -0.000976562, 0, -0.0712891, 0.305664, -9.75684, 1.12.2022 16:21:11.019
382, 1.80681, 0.139397, 65.5191, -0.000976562, -0.00195312, -0.000976562, 0.0244141, 0.280273, -9.70996, 1.12.2022 16:21:11.027
383, 1.80681, 0.139397, 65.5191, 0, -0.000976562, 0, -0.0576172, 0.298828, -9.7666, 1.12.2022 16:21:11.035
384, 1.80681, 0.139397, 65.5191, -0.000976562, -0.000976562, -0.000976562, -0.0439453, 0.328125, -9.79199, 1.12.2022 16:21:11.043
385, 1.80681, 0.139397, 65.5191, 0, 0, 0, 0.0205078, 0.311523, -9.8125, 1.12.2022 16:21:11.051
386, 1.80681, 0.139397, 65.5191, 0, -0.000976562, -0.000976562, -0.0859375, 0.300781, -9.75195, 1.12.2022 16:21:11.059
387, 1.80681, 0.139397, 65.5191, -0.000976562, 0, 0, -0.0078125, 0.300781, -9.77734, 1.12.2022 16:21:11.067
388, 1.80681, 0.139397, 65.5191, -0.000976562, 0, 0, -0.0292969, 0.294922, -9.7959, 1.12.2022 16:21:11.075
389, 1.80681, 0.139397, 65.5191, -0.000976562, 0, 0, -0.0908203, 0.327148, -9.76074, 1.12.2022 16:21:11.083
390, 1.80681, 0.139397, 65.5191, -0.000976562, 0, -0.000976562, 0.00195312, 0.297852, -9.75879, 1.12.2022 16:21:11.091
391, 1.80681, 0.139397, 65.5191, -0.000976562, 0, 0, -0.0332031, 0.293945, -9.7627, 1.12.2022 16:21:11.099
392, 1.80681, 0.139397, 65.5191, 0, 0, 0, -0.0429688, 0.305664, -9.75293, 1.12.2022 16:21:11.107
393, 1.80681, 0.139397, 65.5191, -0.000976562, 0, 0, 0.0185547, 0.269531, -9.75977, 1.12.2022 16:21:11.115
394, 1.80681, 0.139397, 65.5191, -0.000976562, -0.000976562, 0, -0.0986328, 0.321289, -9.79199, 1.12.2022 16:21:11.123
395, 1.80681, 0.139397, 65.5191, 0, 0, 0, -0.0107422, 0.294922, -9.71094, 1.12.2022 16:21:11.131
396, 1.80681, 0.139397, 65.5191, 0, 0, -0.000976562, -0.00976562, 0.305664, -9.76953, 1.12.2022 16:21:11.139
397, 1.80681, 0.139397, 65.5191, 0, -0.000976562, -0.000976562, -0.0351562, 0.329102, -9.74023, 1.12.2022 16:21:11.147
398, 1.79715, 0.141494, 65.5193, 0, 0, 0, 0.03125, 0.294922, -9.72852, 1.12.2022 16:21:11.155
399, 1.79715, 0.141494, 65.5193, -0.000976562, -0.000976562, 0.000976562, -0.00683594, 0.290039, -9.73926, 1.12.2022 16:21:11.163
400, 1.79715, 0.141494, 65.5193, 0, 0, -0.000976562, -0.0332031, 0.320312, -9.76465, 1.12.2022 16:21:11.171
401, 1.79715, 0.141494, 65.5193, 0, 0, 0, 0.0214844, 0.27832, -9.74512, 1.12.2022 16:21:11.179
402, 1.79715, 0.141494, 65.5193, 0, -0.00195312, 0, -0.0498047, 0.338867, -9.74902, 1.12.2022 16:21:11.187
403, 1.79715, 0.141494, 65.5193, 0, -0.000976562, 0, -0.03125, 0.330078, -9.7666, 1.12.2022 16:21:11.195
404, 1.79715, 0.141494, 65.5193, -0.000976562, -0.000976562, 0, 0.0292969, 0.266602, -9.73828, 1.12.2022 16:21:11.203
405, 1.79715, 0.141494, 65.5193, -0.000976562, -0.000976562, 0.000976562, -0.0878906, 0.345703, -9.75098, 1.12.2022 16:21:11.211
406, 1.79715, 0.141494, 65.5193, 0, 0, -0.000976562, 0.00683594, 0.298828, -9.76758, 1.12.2022 16:21:11.219
407, 1.79715, 0.141494, 65.5193, -0.000976562, 0, 0, -0.0429688, 0.300781, -9.75977, 1.12.2022 16:21:11.227
408, 1.79715, 0.141494, 65.5193, -0.000976562, 0, -0.000976562, -0.0791016, 0.34375, -9.75781, 1.12.2022 16:21:11.235
409, 1.79715, 0.141494, 65.5193, -0.000976562, 0, -0.000976562, 0.00976562, 0.276367, -9.76367, 1.12.2022 16:21:11.243
410, 1.79715, 0.141494, 65.5193, -0.000976562, -0.000976562, -0.000976562, -0.0625, 0.330078, -9.76562, 1.12.2022 16:21:11.251
411, 1.79715, 0.141494, 65.5193, -0.000976562, -0.000976562, 0, -0.0166016, 0.322266, -9.75977, 1.12.2022 16:21:11.259
412, 1.79715, 0.141494, 65.5193, -0.000976562, -0.000976562, 0, -0.0126953, 0.293945, -9.78418, 1.12.2022 16:21:11.267
413, 1.79715, 0.141494, 65.5193, -0.000976562, -0.000976562, 0, -0.0859375, 0.327148, -9.74902, 1.12.2022 16:21:11.275
414, 1.79715, 0.141494, 65.5193, 0, -0.000976562, 0, 0.0078125, 0.323242, -9.72754, 1.12.2022 16:21:11.283
415, 1.79715, 0.141494, 65.5193, 0, -0.000976562, 0, -0.0166016, 0.314453, -9.74805, 1.12.2022 16:21:11.291
416, 1.79715, 0.141494, 65.5193, 0, -0.000976562, 0, -0.0400391, 0.324219, -9.75195, 1.12.2022 16:21:11.299
417, 1.79715, 0.141494, 65.5193, -0.000976562, 0, 0, 0.0419922, 0.268555, -9.79492, 1.12.2022 16:21:11.307
418, 1.79734, 0.141397, 65.5168, -0.000976562, 0, 0, -0.0576172, 0.317383, -9.75488, 1.12.2022 16:21:11.315
419, 1.79734, 0.141397, 65.5168, -0.000976562, 0.000976562, 0, -0.0478516, 0.344727, -9.77539, 1.12.2022 16:21:11.323
420, 1.79734, 0.141397, 65.5168, -0.000976562, 0.000976562, 0.000976562, 0.00195312, 0.307617, -9.75781, 1.12.2022 16:21:11.331
421, 1.80112, 0.135517, 65.5169, -0.000976562, 0, 0, -0.0957031, 0.327148, -9.77246, 1.12.2022 16:21:11.339
422, 1.80112, 0.135517, 65.5169, -0.000976562, -0.000976562, -0.000976562, 0.00195312, 0.317383, -9.7627, 1.12.2022 16:21:11.347
423, 1.807, 0.1393, 65.5167, 0, 0, -0.000976562, -0.0283203, 0.319336, -9.73633, 1.12.2022 16:21:11.355
424, 1.80681, 0.139397, 65.5191, 0, 0, -0.000976562, -0.0478516, 0.300781, -9.76465, 1.12.2022 16:21:11.363
425, 1.80681, 0.139397, 65.5191, -0.00195312, 0, -0.000976562, 0.0234375, 0.307617, -9.76758, 1.12.2022 16:21:11.371
426, 1.80681, 0.139397, 65.5191, 0, -0.000976562, 0, -0.0263672, 0.314453, -9.74805, 1.12.2022 16:21:11.379
427, 1.80681, 0.139397, 65.5191, -0.000976562, 0, 0, -0.0117188, 0.31543, -9.76758, 1.12.2022 16:21:11.387
428, 1.80681, 0.139397, 65.5191, -0.000976562, -0.00195312, -0.000976562, 0.0136719, 0.303711, -9.77246, 1.12.2022 16:21:11.395
429, 1.80681, 0.139397, 65.5191, -0.000976562, -0.00195312, -0.000976562, -0.0957031, 0.330078, -9.77734, 1.12.2022 16:21:11.403
430, 1.80681, 0.139397, 65.5191, 0, -0.000976562, 0, -0.00878906, 0.316406, -9.72656, 1.12.2022 16:21:11.411
431, 1.80681, 0.139397, 65.5191, 0, 0, -0.000976562, -0.0214844, 0.302734, -9.74609, 1.12.2022 16:21:11.419
432, 1.80681, 0.139397, 65.5191, -0.000976562, -0.000976562, 0, -0.0585938, 0.313477, -9.69824, 1.12.2022 16:21:11.427
433, 1.81269, 0.143181, 65.519, 0, 0, 0, 0.0253906, 0.318359, -9.78418, 1.12.2022 16:21:11.435
434, 1.81269, 0.143181, 65.519, 0, 0, 0, -0.0263672, 0.339844, -9.78516, 1.12.2022 16:21:11.443
435, 1.81269, 0.143181, 65.519, 0, 0, 0, -0.0429688, 0.329102, -9.74707, 1.12.2022 16:21:11.451
436, 1.81269, 0.143181, 65.519, -0.000976562, 0, 0, 0.0166016, 0.257812, -9.76465, 1.12.2022 16:21:11.459
437, 1.81269, 0.143181, 65.519, -0.000976562, 0, -0.000976562, -0.0761719, 0.30957, -9.72363, 1.12.2022 16:21:11.467
438, 1.81269, 0.143181, 65.519, 0, 0, -0.000976562, 0, 0.302734, -9.7627, 1.12.2022 16:21:11.475
439, 1.81269, 0.143181, 65.519, 0, 0, 0, -0.00292969, 0.28418, -9.76562, 1.12.2022 16:21:11.483
440, 1.81269, 0.143181, 65.519, -0.000976562, 0, 0, -0.0517578, 0.321289, -9.7334, 1.12.2022 16:21:11.491
441, 1.81269, 0.143181, 65.519, -0.000976562, -0.000976562, 0, 0.046875, 0.308594, -9.78711, 1.12.2022 16:21:11.499
442, 1.81269, 0.143181, 65.519, 0, -0.000976562, 0, -0.0527344, 0.302734, -9.75488, 1.12.2022 16:21:11.507
443, 1.81269, 0.143181, 65.519, 0, -0.000976562, -0.000976562, -0.0419922, 0.320312, -9.70703, 1.12.2022 16:21:11.515
444, 1.81269, 0.143181, 65.519, -0.000976562, -0.000976562, -0.000976562, 0.0117188, 0.293945, -9.79199, 1.12.2022 16:21:11.523
445, 1.81647, 0.137301, 65.519, 0, 0, -0.000976562, -0.0810547, 0.301758, -9.77832, 1.12.2022 16:21:11.531
446, 1.81647, 0.137301, 65.519, 0, 0, 0, 0.00195312, 0.318359, -9.78125, 1.12.2022 16:21:11.539
447, 1.81647, 0.137301, 65.519, -0.000976562, -0.000976562, 0, -0.0166016, 0.307617, -9.74121, 1.12.2022 16:21:11.547
448, 1.81647, 0.137301, 65.519, 0, -0.000976562, 0, -0.0927734, 0.292969, -9.73145, 1.12.2022 16:21:11.555
449, 1.81647, 0.137301, 65.519, 0, -0.000976562, 0, 0, 0.25293, -9.76172, 1.12.2022 16:21:11.563
450, 1.81647, 0.137301, 65.519, -0.000976562, -0.000976562, 0, -0.0458984, 0.287109, -9.77441, 1.12.2022 16:21:11.571
451, 1.81647, 0.137301, 65.519, -0.000976562, -0.000976562, 0, -0.03125, 0.321289, -9.79297, 1.12.2022 16:21:11.579
452, 1.81647, 0.137301, 65.519, 0, -0.000976562, 0, 0.0556641, 0.294922, -9.82812, 1.12.2022 16:21:11.587
453, 1.81647, 0.137301, 65.519, 0, -0.000976562, 0, -0.0673828, 0.310547, -9.7832, 1.12.2022 16:21:11.593
454, 1.81269, 0.143181, 65.519, 0.000976562, -0.000976562, 0, -0.0126953, 0.328125, -9.78613, 1.12.2022 16:21:11.601
455, 1.81269, 0.143181, 65.519, 0, -0.000976562, -0.000976562, 0.00683594, 0.264648, -9.76855, 1.12.2022 16:21:11.609
456, 1.81269, 0.143181, 65.519, 0, 0, 0, -0.0742188, 0.328125, -9.80078, 1.12.2022 16:21:11.617
457, 1.81269, 0.143181, 65.519, -0.000976562, 0, 0, 0.00683594, 0.291016, -9.75391, 1.12.2022 16:21:11.625
458, 1.81269, 0.143181, 65.519, -0.000976562, 0, 0, -0.0214844, 0.308594, -9.76953, 1.12.2022 16:21:11.633
459, 1.81269, 0.143181, 65.519, -0.000976562, -0.000976562, -0.000976562, -0.0498047, 0.31543, -9.76465, 1.12.2022 16:21:11.641
460, 1.81269, 0.143181, 65.519, 0, -0.000976562, -0.000976562, 0.00976562, 0.290039, -9.73535, 1.12.2022 16:21:11.649
461, 1.81269, 0.143181, 65.519, 0, -0.000976562, -0.000976562, -0.0673828, 0.305664, -9.77637, 1.12.2022 16:21:11.657
462, 1.81269, 0.143181, 65.519, -0.000976562, 0, 0, -0.00976562, 0.317383, -9.74609, 1.12.2022 16:21:11.665
463, 1.81269, 0.143181, 65.519, -0.000976562, 0, 0, 0.0292969, 0.271484, -9.73145, 1.12.2022 16:21:11.673
464, 1.80681, 0.139397, 65.5191, -0.00195312, 0, 0, -0.0703125, 0.337891, -9.80078, 1.12.2022 16:21:11.681
465, 1.80681, 0.139397, 65.5191, -0.000976562, 0, 0, -0.00878906, 0.304688, -9.73242, 1.12.2022 16:21:11.689
466, 1.80681, 0.139397, 65.5191, -0.000976562, -0.000976562, 0, -0.0712891, 0.28418, -9.75293, 1.12.2022 16:21:11.697
467, 1.80681, 0.139397, 65.5191, -0.000976562, -0.000976562, -0.000976562, -0.0595703, 0.314453, -9.73828, 1.12.2022 16:21:11.705
468, 1.80681, 0.139397, 65.5191, 0, -0.000976562, -0.000976562, 0.0117188, 0.292969, -9.74219, 1.12.2022 16:21:11.713
469, 1.80681, 0.139397, 65.5191, -0.000976562, 0, 0, -0.0742188, 0.329102, -9.75195, 1.12.2022 16:21:11.721
470, 1.80681, 0.139397, 65.5191, -0.000976562, 0, -0.000976562, -0.0380859, 0.332031, -9.76172, 1.12.2022 16:21:11.729
471, 1.80681, 0.139397, 65.5191, 0, -0.000976562, -0.000976562, 0.00292969, 0.316406, -9.74121, 1.12.2022 16:21:11.737
472, 1.80681, 0.139397, 65.5191, -0.000976562, -0.000976562, 0, -0.100586, 0.333008, -9.78613, 1.12.2022 16:21:11.745
473, 1.80681, 0.139397, 65.5191, -0.000976562, 0, 0, 0.0146484, 0.288086, -9.7373, 1.12.2022 16:21:11.753
474, 1.80681, 0.139397, 65.5191, -0.000976562, 0, -0.000976562, -0.0146484, 0.277344, -9.79395, 1.12.2022 16:21:11.761
475, 1.80681, 0.139397, 65.5191, -0.000976562, -0.00195312, 0, -0.0615234, 0.317383, -9.75, 1.12.2022 16:21:11.769
476, 1.80681, 0.139397, 65.5191, -0.000976562, -0.000976562, 0, 0.0234375, 0.291016, -9.75684, 1.12.2022 16:21:11.777
477, 1.80681, 0.139397, 65.5191, -0.000976562, -0.000976562, 0, -0.0566406, 0.307617, -9.75, 1.12.2022 16:21:11.785
478, 1.80681, 0.139397, 65.5191, -0.000976562, -0.000976562, 0, -0.0234375, 0.326172, -9.73633, 1.12.2022 16:21:11.793
479, 1.80681, 0.139397, 65.5191, 0, -0.000976562, 0, 0.0244141, 0.275391, -9.72363, 1.12.2022 16:21:11.801
480, 1.80303, 0.145278, 65.5191, 0, 0, 0, -0.0849609, 0.311523, -9.73047, 1.12.2022 16:21:11.809
481, 1.80303, 0.145278, 65.5191, 0, 0, -0.000976562, 0.00488281, 0.329102, -9.74316, 1.12.2022 16:21:11.817
482, 1.80303, 0.145278, 65.5191, 0, -0.000976562, 0, -0.0146484, 0.31543, -9.76758, 1.12.2022 16:21:11.825
483, 1.80303, 0.145278, 65.5191, -0.000976562, 0, 0, -0.0498047, 0.31543, -9.76465, 1.12.2022 16:21:11.833
484, 1.80303, 0.145278, 65.5191, 0, 0, 0, 0.0263672, 0.292969, -9.75391, 1.12.2022 16:21:11.841
485, 1.80303, 0.145278, 65.5191, -0.000976562, 0, 0, -0.0595703, 0.297852, -9.75, 1.12.2022 16:21:11.849
486, 1.80303, 0.145278, 65.5191, -0.000976562, 0, 0, -0.0234375, 0.313477, -9.71973, 1.12.2022 16:21:11.857
487, 1.80303, 0.145278, 65.5191, 0, 0, -0.000976562, 0.00195312, 0.276367, -9.75195, 1.12.2022 16:21:11.865
488, 1.80303, 0.145278, 65.5191, 0, 0, -0.000976562, -0.0742188, 0.349609, -9.80078, 1.12.2022 16:21:11.873
489, 1.80303, 0.145278, 65.5191, -0.000976562, -0.00195312, 0, -0.0244141, 0.301758, -9.79102, 1.12.2022 16:21:11.881
490, 1.80303, 0.145278, 65.5191, -0.000976562, -0.000976562, 0, -0.00195312, 0.28125, -9.74707, 1.12.2022 16:21:11.889
491, 1.80303, 0.145278, 65.5191, -0.000976562, -0.000976562, 0, -0.0888672, 0.308594, -9.7666, 1.12.2022 16:21:11.897
492, 1.80303, 0.145278, 65.5191, 0, 0, 0, 0, 0.295898, -9.75098, 1.12.2022 16:21:11.905
493, 1.80303, 0.145278, 65.5191, 0, -0.000976562, 0, -0.0566406, 0.283203, -9.71973, 1.12.2022 16:21:11.913
494, 1.80303, 0.145278, 65.5191, -0.000976562, 0, 0, -0.0185547, 0.307617, -9.73633, 1.12.2022 16:21:11.921
495, 1.80303, 0.145278, 65.5191, -0.000976562, 0, 0, 0.0195312, 0.286133, -9.75, 1.12.2022 16:21:11.929
496, 1.80303, 0.145278, 65.5191, -0.000976562, -0.000976562, 0, -0.0761719, 0.326172, -9.74023, 1.12.2022 16:21:11.937
497, 1.80303, 0.145278, 65.5191, 0, -0.000976562, -0.000976562, -0.0185547, 0.3125, -9.75293, 1.12.2022 16:21:11.945
498, 1.80303, 0.145278, 65.5191, 0, -0.000976562, 0, 0.00976562, 0.319336, -9.74609, 1.12.2022 16:21:11.953
499, 1.80303, 0.145278, 65.5191, -0.000976562, -0.000976562, 0, -0.0634766, 0.313477, -9.7002, 1.12.2022 16:21:11.961
500, 1.80303, 0.145278, 65.5191, -0.000976562, -0.00195312, -0.000976562, 0.0234375, 0.291992, -9.78711, 1.12.2022 16:21:11.969
501, 1.79925, 0.151159, 65.5191, 0, -0.000976562, 0, -0.0527344, 0.300781, -9.76172, 1.12.2022 16:21:11.977
502, 1.79925, 0.151159, 65.5191, -0.000976562, -0.000976562, -0.000976562, -0.0400391, 0.30957, -9.73828, 1.12.2022 16:21:11.985
503, 1.79925, 0.151159, 65.5191, -0.000976562, -0.000976562, -0.000976562, 0.0283203, 0.295898, -9.75879, 1.12.2022 16:21:11.993
504, 1.79925, 0.151159, 65.5191, -0.00195312, 0, 0.000976562, -0.0644531, 0.335938, -9.74902, 1.12.2022 16:21:12.001
505, 1.79925, 0.151159, 65.5191, -0.000976562, -0.000976562, 0.000976562, -0.0351562, 0.321289, -9.74316, 1.12.2022 16:21:12.009
506, 1.79925, 0.151159, 65.5191, -0.000976562, -0.000976562, 0, 0.0078125, 0.27832, -9.72363, 1.12.2022 16:21:12.017
507, 1.79925, 0.151159, 65.5191, -0.000976562, 0, 0, -0.0595703, 0.326172, -9.74023, 1.12.2022 16:21:12.025
508, 1.79925, 0.151159, 65.5191, 0, -0.000976562, 0, 0.0283203, 0.28418, -9.77344, 1.12.2022 16:21:12.033
509, 1.79943, 0.151062, 65.5166, 0, -0.000976562, 0, -0.0341797, 0.303711, -9.78613, 1.12.2022 16:21:12.041
510, 1.79943, 0.151062, 65.5166, 0, -0.000976562, 0, -0.0498047, 0.316406, -9.72168, 1.12.2022 16:21:12.049
511, 1.79943, 0.151062, 65.5166, -0.000976562, -0.000976562, 0, 0.0292969, 0.287109, -9.70996, 1.12.2022 16:21:12.057
512, 1.79943, 0.151062, 65.5166, 0, -0.000976562, 0, -0.078125, 0.316406, -9.70703, 1.12.2022 16:21:12.065
513, 1.79943, 0.151062, 65.5166, -0.000976562, 0, 0, -0.0361328, 0.327148, -9.76367, 1.12.2022 16:21:12.073
514, 1.79943, 0.151062, 65.5166, -0.000976562, -0.000976562, 0, 0.0117188, 0.292969, -9.75684, 1.12.2022 16:21:12.081
515, 1.79943, 0.151062, 65.5166, -0.000976562, 0, 0, -0.0771484, 0.337891, -9.79102, 1.12.2022 16:21:12.089
516, 1.79943, 0.151062, 65.5166, 0, -0.000976562, 0.000976562, 0.00683594, 0.302734, -9.75879, 1.12.2022 16:21:12.097
517, 1.79943, 0.151062, 65.5166, 0, -0.000976562, 0, -0.0244141, 0.305664, -9.77148, 1.12.2022 16:21:12.105
518, 1.79943, 0.151062, 65.5166, 0, -0.000976562, 0, -0.0429688, 0.327148, -9.75684, 1.12.2022 16:21:12.113
519, 1.79943, 0.151062, 65.5166, 0, -0.000976562, 0, 0.00976562, 0.276367, -9.74219, 1.12.2022 16:21:12.121
520, 1.79943, 0.151062, 65.5166, -0.000976562, 0, -0.000976562, -0.0908203, 0.264648, -9.7627, 1.12.2022 16:21:12.129
521, 1.79943, 0.151062, 65.5166, 0, -0.000976562, 0, -0.0371094, 0.328125, -9.71875, 1.12.2022 16:21:12.137
522, 1.79943, 0.151062, 65.5166, -0.000976562, -0.000976562, 0, -0.00292969, 0.293945, -9.77734, 1.12.2022 16:21:12.145
523, 1.79943, 0.151062, 65.5166, -0.000976562, -0.000976562, 0, -0.0546875, 0.325195, -9.77051, 1.12.2022 16:21:12.153
524, 1.79943, 0.151062, 65.5166, -0.000976562, 0, 0, -0.0166016, 0.291992, -9.77734, 1.12.2022 16:21:12.161
525, 1.79943, 0.151062, 65.5166, 0, 0, 0, -0.0146484, 0.305664, -9.75781, 1.12.2022 16:21:12.169
526, 1.79943, 0.151062, 65.5166, 0, 0, 0, -0.0341797, 0.323242, -9.78516, 1.12.2022 16:21:12.177
527, 1.79943, 0.151062, 65.5166, 0.000976562, 0, 0, 0.00195312, 0.297852, -9.7627, 1.12.2022 16:21:12.185
528, 1.79943, 0.151062, 65.5166, 0, 0, 0, -0.0634766, 0.31543, -9.7002, 1.12.2022 16:21:12.193
529, 1.79943, 0.151062, 65.5166, 0, -0.000976562, 0, -0.0429688, 0.310547, -9.75293, 1.12.2022 16:21:12.201
530, 1.79943, 0.151062, 65.5166, 0, -0.000976562, 0, 0.0117188, 0.310547, -9.77734, 1.12.2022 16:21:12.209
531, 1.79943, 0.151062, 65.5166, -0.000976562, -0.000976562, -0.000976562, -0.0957031, 0.339844, -9.78418, 1.12.2022 16:21:12.217
532, 1.79943, 0.151062, 65.5166, 0, 0, -0.000976562, -0.0146484, 0.310547, -9.77246, 1.12.2022 16:21:12.225
533, 1.79943, 0.151062, 65.5166, 0, 0, 0, -0.0351562, 0.299805, -9.73145, 1.12.2022 16:21:12.233
534, 1.79943, 0.151062, 65.5166, 0, -0.000976562, 0, -0.0742188, 0.339844, -9.7793, 1.12.2022 16:21:12.241
535, 1.79943, 0.151062, 65.5166, -0.000976562, 0, 0, 0.0214844, 0.307617, -9.75391, 1.12.2022 16:21:12.249
536, 1.79943, 0.151062, 65.5166, 0, 0, 0, -0.0429688, 0.319336, -9.74512, 1.12.2022 16:21:12.257
537, 1.79943, 0.151062, 65.5166, -0.000976562, -0.000976562, 0, -0.0332031, 0.305664, -9.75488, 1.12.2022 16:21:12.265
538, 1.79943, 0.151062, 65.5166, 0, 0, 0, 0.0244141, 0.296875, -9.72363, 1.12.2022 16:21:12.273
539, 1.79943, 0.151062, 65.5166, -0.000976562, 0, -0.000976562, -0.0810547, 0.322266, -9.75391, 1.12.2022 16:21:12.281
540, 1.79943, 0.151062, 65.5166, -0.000976562, -0.000976562, 0, -0.0117188, 0.307617, -9.75781, 1.12.2022 16:21:12.289
541, 1.79943, 0.151062, 65.5166, -0.000976562, -0.000976562, 0, -0.0410156, 0.329102, -9.76172, 1.12.2022 16:21:12.297
542, 1.79943, 0.151062, 65.5166, 0, -0.000976562, 0, -0.046875, 0.318359, -9.72363, 1.12.2022 16:21:12.305
543, 1.79943, 0.151062, 65.5166, 0, 0, 0, 0.0166016, 0.307617, -9.74902, 1.12.2022 16:21:12.313
544, 1.79943, 0.151062, 65.5166, 0, -0.000976562, 0, -0.0351562, 0.296875, -9.72754, 1.12.2022 16:21:12.321
545, 1.79943, 0.151062, 65.5166, -0.000976562, -0.000976562, 0, -0.0400391, 0.328125, -9.73047, 1.12.2022 16:21:12.329
546, 1.80531, 0.154845, 65.5165, 0, 0, 0, -0.00488281, 0.289062, -9.77246, 1.12.2022 16:21:12.337
547, 1.80531, 0.154845, 65.5165, 0, 0, 0, -0.0859375, 0.323242, -9.78223, 1.12.2022 16:21:12.345
548, 1.80531, 0.154845, 65.5165, -0.000976562, 0, 0, -0.0244141, 0.295898, -9.77441, 1.12.2022 16:21:12.353
549, 1.80531, 0.154845, 65.5165, -0.000976562, -0.000976562, 0, -0.00976562, 0.310547, -9.75781, 1.12.2022 16:21:12.361
550, 1.80531, 0.154845, 65.5165, -0.000976562, -0.000976562, 0, -0.0546875, 0.317383, -9.75977, 1.12.2022 16:21:12.369
551, 1.80531, 0.154845, 65.5165, 0, -0.000976562, 0, 0.0273438, 0.303711, -9.71387, 1.12.2022 16:21:12.377
552, 1.80531, 0.154845, 65.5165, 0, -0.000976562, 0, -0.0498047, 0.291016, -9.75781, 1.12.2022 16:21:12.385
553, 1.80531, 0.154845, 65.5165, -0.000976562, 0, 0, -0.0400391, 0.331055, -9.74512, 1.12.2022 16:21:12.393
554, 1.80531, 0.154845, 65.5165, 0, -0.000976562, 0, 0.0166016, 0.307617, -9.74414, 1.12.2022 16:21:12.401
555, 1.80531, 0.154845, 65.5165, -0.000976562, -0.000976562, 0, -0.0664062, 0.303711, -9.71191, 1.12.2022 16:21:12.409
556, 1.81119, 0.158629, 65.5163, -0.000976562, -0.000976562, 0, -0.00488281, 0.327148, -9.75781, 1.12.2022 16:21:12.417
557, 1.81119, 0.158629, 65.5163, -0.000976562, 0, -0.000976562, -0.00390625, 0.294922, -9.73242, 1.12.2022 16:21:12.425
558, 1.81119, 0.158629, 65.5163, -0.000976562, -0.000976562, -0.00195312, -0.0810547, 0.323242, -9.77539, 1.12.2022 16:21:12.433
559, 1.81119, 0.158629, 65.5163, -0.000976562, -0.000976562, -0.000976562, 0.0185547, 0.289062, -9.76562, 1.12.2022 16:21:12.441
560, 1.81119, 0.158629, 65.5163, -0.000976562, -0.000976562, 0, -0.0449219, 0.304688, -9.74805, 1.12.2022 16:21:12.449
561, 1.81119, 0.158629, 65.5163, -0.000976562, 0, 0, -0.0595703, 0.317383, -9.75, 1.12.2022 16:21:12.457
562, 1.81119, 0.158629, 65.5163, 0, 0, 0, 0.0166016, 0.295898, -9.76074, 1.12.2022 16:21:12.465
563, 1.81119, 0.158629, 65.5163, -0.000976562, -0.000976562, 0, -0.0546875, 0.307617, -9.74121, 1.12.2022 16:21:12.473
564, 1.81119, 0.158629, 65.5163, 0, -0.000976562, 0.000976562, -0.0185547, 0.329102, -9.75293, 1.12.2022 16:21:12.481
565, 1.81119, 0.158629, 65.5163, -0.000976562, -0.000976562, 0, -0.00976562, 0.286133, -9.74219, 1.12.2022 16:21:12.489
566, 1.81707, 0.162412, 65.5162, 0, -0.000976562, 0, -0.0927734, 0.296875, -9.71875, 1.12.2022 16:21:12.497
567, 1.81707, 0.162412, 65.5162, 0, 0, 0, 0.0224609, 0.275391, -9.71191, 1.12.2022 16:21:12.505
568, 1.81707, 0.162412, 65.5162, -0.000976562, -0.000976562, 0, 0.00488281, 0.313477, -9.72266, 1.12.2022 16:21:12.513
569, 1.81707, 0.162412, 65.5162, 0, -0.000976562, 0, -0.0419922, 0.325195, -9.70703, 1.12.2022 16:21:12.521
570, 1.81707, 0.162412, 65.5162, -0.000976562, -0.000976562, 0, 0.0351562, 0.295898, -9.78027, 1.12.2022 16:21:12.529
571, 1.81707, 0.162412, 65.5162, -0.000976562, 0, 0, -0.0615234, 0.302734, -9.75488, 1.12.2022 16:21:12.537
572, 1.81707, 0.162412, 65.5162, 0, 0, -0.000976562, -0.0117188, 0.302734, -9.74121, 1.12.2022 16:21:12.545
573, 1.81707, 0.162412, 65.5162, 0, 0, -0.000976562, -0.00488281, 0.314453, -9.74805, 1.12.2022 16:21:12.553
574, 1.82086, 0.156531, 65.5162, 0, -0.000976562, 0, -0.078125, 0.323242, -9.7207, 1.12.2022 16:21:12.561
575, 1.82086, 0.156531, 65.5162, -0.000976562, 0, -0.000976562, 0.00878906, 0.317383, -9.77734, 1.12.2022 16:21:12.569
576, 1.82086, 0.156531, 65.5162, -0.00195312, 0, 0, -0.0175781, 0.28418, -9.69434, 1.12.2022 16:21:12.575
577, 1.82086, 0.156531, 65.5162, -0.000976562, -0.000976562, 0, -0.0380859, 0.307617, -9.74609, 1.12.2022 16:21:12.583
578, 1.82086, 0.156531, 65.5162, -0.000976562, 0, 0, 0.0234375, 0.28418, -9.7666, 1.12.2022 16:21:12.591
579, 1.82086, 0.156531, 65.5162, 0, 0, 0, -0.0615234, 0.30957, -9.74316, 1.12.2022 16:21:12.601
580, 1.81498, 0.152748, 65.5164, -0.000976562, -0.000976562, 0, -0.0341797, 0.311523, -9.7998, 1.12.2022 16:21:12.607
581, 1.81498, 0.152748, 65.5164, 0, 0, 0, 0, 0.293945, -9.7793, 1.12.2022 16:21:12.615
582, 1.81498, 0.152748, 65.5164, 0, -0.000976562, 0, -0.0976562, 0.332031, -9.76562, 1.12.2022 16:21:12.623
583, 1.81498, 0.152748, 65.5164, -0.000976562, 0, 0, -0.0117188, 0.31543, -9.76758, 1.12.2022 16:21:12.631
584, 1.81498, 0.152748, 65.5164, 0, 0, -0.000976562, -0.0283203, 0.314453, -9.73633, 1.12.2022 16:21:12.639
585, 1.81498, 0.152748, 65.5164, -0.000976562, -0.000976562, 0, -0.0566406, 0.304688, -9.74316, 1.12.2022 16:21:12.647
586, 1.81498, 0.152748, 65.5164, 0, 0, 0, 0.00195312, 0.285156, -9.78906, 1.12.2022 16:21:12.655
587, 1.81498, 0.152748, 65.5164, 0, -0.000976562, 0, -0.0625, 0.31543, -9.7666, 1.12.2022 16:21:12.663
588, 1.81498, 0.152748, 65.5164, -0.000976562, -0.000976562, 0, -0.0410156, 0.302734, -9.75977, 1.12.2022 16:21:12.671
589, 1.81498, 0.152748, 65.5164, -0.000976562, -0.000976562, 0.000976562, 0.0117188, 0.282227, -9.77051, 1.12.2022 16:21:12.679
590, 1.81498, 0.152748, 65.5164, 0, 0, 0, -0.0644531, 0.325195, -9.76367, 1.12.2022 16:21:12.687
591, 1.81498, 0.152748, 65.5164, -0.000976562, -0.000976562, 0, -0.0078125, 0.310547, -9.78418, 1.12.2022 16:21:12.695
592, 1.81498, 0.152748, 65.5164, -0.000976562, -0.000976562, 0, -0.00683594, 0.283203, -9.74707, 1.12.2022 16:21:12.703
593, 1.81498, 0.152748, 65.5164, 0, -0.000976562, 0.000976562, -0.0546875, 0.324219, -9.75684, 1.12.2022 16:21:12.711
594, 1.81498, 0.152748, 65.5164, 0, 0, 0, 0.0361328, 0.28125, -9.75195, 1.12.2022 16:21:12.719
595, 1.81498, 0.152748, 65.5164, -0.000976562, 0, 0, -0.0195312, 0.300781, -9.7793, 1.12.2022 16:21:12.727
596, 1.81498, 0.152748, 65.5164, -0.000976562, -0.000976562, 0, -0.0332031, 0.350586, -9.74707, 1.12.2022 16:21:12.735
597, 1.81498, 0.152748, 65.5164, -0.000976562, -0.00195312, 0, 0.0117188, 0.298828, -9.78418, 1.12.2022 16:21:12.743
598, 1.81498, 0.152748, 65.5164, -0.000976562, 0, 0, -0.0605469, 0.301758, -9.80469, 1.12.2022 16:21:12.751
599, 1.8091, 0.148964, 65.5165, -0.000976562, 0, 0, 0.00976562, 0.320312, -9.76465, 1.12.2022 16:21:12.759
600, 1.8091, 0.148964, 65.5165, 0, 0, -0.000976562, -0.0214844, 0.305664, -9.77637, 1.12.2022 16:21:12.767
601, 1.8091, 0.148964, 65.5165, -0.000976562, 0, -0.000976562, -0.0810547, 0.320312, -9.75684, 1.12.2022 16:21:12.775
602, 1.8091, 0.148964, 65.5165, 0, 0, 0, 0.0185547, 0.300781, -9.76562, 1.12.2022 16:21:12.783
603, 1.8091, 0.148964, 65.5165, -0.000976562, -0.000976562, 0, -0.0458984, 0.293945, -9.76758, 1.12.2022 16:21:12.791
604, 1.8091, 0.148964, 65.5165, -0.000976562, 0, 0, -0.0585938, 0.299805, -9.72168, 1.12.2022 16:21:12.799
605, 1.8091, 0.148964, 65.5165, 0, -0.000976562, 0, 0.0107422, 0.306641, -9.79883, 1.12.2022 16:21:12.807
606, 1.8091, 0.148964, 65.5165, -0.000976562, 0, 0, -0.0527344, 0.324219, -9.75195, 1.12.2022 16:21:12.815
607, 1.8091, 0.148964, 65.5165, 0, -0.000976562, 0, -0.0292969, 0.330078, -9.77344, 1.12.2022 16:21:12.823
608, 1.8091, 0.148964, 65.5165, 0, 0, -0.000976562, -0.0214844, 0.317383, -9.75, 1.12.2022 16:21:12.831
609, 1.8091, 0.148964, 65.5165, -0.000976562, -0.000976562, 0, -0.0673828, 0.327148, -9.76562, 1.12.2022 16:21:12.839
610, 1.8091, 0.148964, 65.5165, -0.000976562, -0.000976562, 0, 0.0078125, 0.292969, -9.74023, 1.12.2022 16:21:12.847
611, 1.8091, 0.148964, 65.5165, -0.000976562, 0, -0.000976562, -0.0195312, 0.280273, -9.78906, 1.12.2022 16:21:12.855
612, 1.8091, 0.148964, 65.5165, 0, 0, -0.000976562, -0.0761719, 0.338867, -9.75098, 1.12.2022 16:21:12.863
613, 1.8091, 0.148964, 65.5165, -0.000976562, 0, 0, 0.00488281, 0.327148, -9.7627, 1.12.2022 16:21:12.871
614, 1.8091, 0.148964, 65.5165, -0.000976562, 0, 0, -0.0888672, 0.316406, -9.79199, 1.12.2022 16:21:12.879
615, 1.8091, 0.148964, 65.5165, -0.000976562, 0, 0, 0.00878906, 0.301758, -9.80078, 1.12.2022 16:21:12.887
616, 1.8091, 0.148964, 65.5165, 0.000976562, -0.00195312, 0, 0.0117188, 0.257812, -9.78125, 1.12.2022 16:21:12.895
617, 1.8091, 0.148964, 65.5165, -0.000976562, -0.000976562, 0, -0.0673828, 0.326172, -9.79395, 1.12.2022 16:21:12.903
618, 1.8091, 0.148964, 65.5165, -0.000976562, 0, 0, -0.00292969, 0.316406, -9.80078, 1.12.2022 16:21:12.911
619, 1.8091, 0.148964, 65.5165, 0, 0, 0, -0.0332031, 0.287109, -9.76953, 1.12.2022 16:21:12.919
620, 1.8091, 0.148964, 65.5165, 0, 0, 0, -0.0517578, 0.3125, -9.73828, 1.12.2022 16:21:12.927
621, 1.8091, 0.148964, 65.5165, -0.000976562, 0, 0, 0.0566406, 0.260742, -9.77441, 1.12.2022 16:21:12.935
622, 1.8091, 0.148964, 65.5165, -0.000976562, 0.000976562, 0, -0.0517578, 0.307617, -9.73828, 1.12.2022 16:21:12.943
623, 1.8091, 0.148964, 65.5165, -0.000976562, 0, 0, -0.0361328, 0.303711, -9.7832, 1.12.2022 16:21:12.951
624, 1.8091, 0.148964, 65.5165, -0.000976562, 0, 0, -0.00390625, 0.301758, -9.7207, 1.12.2022 16:21:12.959
625, 1.8091, 0.148964, 65.5165, -0.00195312, -0.000976562, -0.000976562, -0.0898438, 0.328125, -9.71582, 1.12.2022 16:21:12.967
626, 1.8091, 0.148964, 65.5165, -0.000976562, -0.000976562, -0.00195312, -0.0126953, 0.298828, -9.77734, 1.12.2022 16:21:12.975
627, 1.8091, 0.148964, 65.5165, -0.000976562, 0, 0, -0.0195312, 0.307617, -9.76758, 1.12.2022 16:21:12.983
628, 1.8091, 0.148964, 65.5165, -0.000976562, -0.000976562, 0, -0.0458984, 0.31543, -9.77832, 1.12.2022 16:21:12.991
629, 1.8091, 0.148964, 65.5165, -0.000976562, 0, 0, 0.0380859, 0.310547, -9.76855, 1.12.2022 16:21:12.999
630, 1.8091, 0.148964, 65.5165, 0, 0, 0, -0.0429688, 0.308594, -9.7666, 1.12.2022 16:21:13.007
631, 1.8091, 0.148964, 65.5165, 0.000976562, 0, 0, -0.0263672, 0.319336, -9.74121, 1.12.2022 16:21:13.015
632, 1.8091, 0.148964, 65.5165, -0.000976562, -0.000976562, 0.000976562, 0.0361328, 0.310547, -9.75879, 1.12.2022 16:21:13.023
633, 1.8091, 0.148964, 65.5165, 0, -0.00195312, 0.000976562, -0.0576172, 0.307617, -9.76465, 1.12.2022 16:21:13.031
634, 1.8091, 0.148964, 65.5165, 0, 0, 0, 0.0263672, 0.273438, -9.73828, 1.12.2022 16:21:13.039
635, 1.80322, 0.145181, 65.5167, 0, 0, 0, -0.0332031, 0.276367, -9.75879, 1.12.2022 16:21:13.047
636, 1.80322, 0.145181, 65.5167, -0.000976562, -0.000976562, 0, -0.0566406, 0.30957, -9.72852, 1.12.2022 16:21:13.055
637, 1.80322, 0.145181, 65.5167, -0.000976562, 0, 0, 0.00488281, 0.299805, -9.72559, 1.12.2022 16:21:13.063
638, 1.80322, 0.145181, 65.5167, -0.000976562, 0, 0, -0.0429688, 0.322266, -9.77637, 1.12.2022 16:21:13.071
639, 1.80322, 0.145181, 65.5167, -0.000976562, 0, 0, -0.0292969, 0.320312, -9.77344, 1.12.2022 16:21:13.079
640, 1.807, 0.1393, 65.5167, 0, 0, -0.000976562, -0.0078125, 0.293945, -9.78418, 1.12.2022 16:21:13.087
641, 1.807, 0.1393, 65.5167, 0, -0.000976562, 0, -0.0849609, 0.333008, -9.72266, 1.12.2022 16:21:13.095
642, 1.807, 0.1393, 65.5167, 0, 0, 0, -0.0078125, 0.320312, -9.77441, 1.12.2022 16:21:13.103
643, 1.807, 0.1393, 65.5167, -0.000976562, 0, 0, -0.0166016, 0.28125, -9.75879, 1.12.2022 16:21:13.111
644, 1.807, 0.1393, 65.5167, -0.000976562, 0, 0, -0.0595703, 0.30957, -9.74512, 1.12.2022 16:21:13.119
645, 1.807, 0.1393, 65.5167, -0.000976562, 0, 0, 0.03125, 0.291016, -9.74707, 1.12.2022 16:21:13.127
646, 1.807, 0.1393, 65.5167, 0, -0.000976562, 0, -0.0410156, 0.295898, -9.76465, 1.12.2022 16:21:13.135
647, 1.807, 0.1393, 65.5167, 0, 0, 0, -0.0527344, 0.337891, -9.78906, 1.12.2022 16:21:13.143
648, 1.807, 0.1393, 65.5167, 0, 0, -0.00195312, 0.0146484, 0.3125, -9.7627, 1.12.2022 16:21:13.151
649, 1.807, 0.1393, 65.5167, 0, 0, -0.00195312, -0.0830078, 0.316406, -9.73535, 1.12.2022 16:21:13.159
650, 1.807, 0.1393, 65.5167, -0.000976562, -0.000976562, -0.00195312, -0.00976562, 0.303711, -9.77246, 1.12.2022 16:21:13.167
651, 1.807, 0.1393, 65.5167, 0, 0, 0, -0.00488281, 0.295898, -9.75879, 1.12.2022 16:21:13.175
652, 1.807, 0.1393, 65.5167, 0, -0.000976562, 0, -0.0888672, 0.344727, -9.77734, 1.12.2022 16:21:13.183
653, 1.80112, 0.135517, 65.5169, 0, 0, -0.00195312, 0.00976562, 0.28418, -9.75391, 1.12.2022 16:21:13.191
654, 1.79734, 0.141397, 65.5168, -0.000976562, -0.000976562, 0, -0.0449219, 0.307617, -9.75977, 1.12.2022 16:21:13.199
655, 1.80322, 0.145181, 65.5167, -0.000976562, 0, 0, -0.0400391, 0.291016, -9.75098, 1.12.2022 16:21:13.207
656, 1.79734, 0.141397, 65.5168, 0, 0, 0, 0.0332031, 0.293945, -9.78223, 1.12.2022 16:21:13.215
657, 1.79734, 0.141397, 65.5168, -0.000976562, -0.000976562, 0, -0.0595703, 0.305664, -9.75977, 1.12.2022 16:21:13.223
658, 1.80322, 0.145181, 65.5167, -0.000976562, 0, 0, -0.0234375, 0.316406, -9.72949, 1.12.2022 16:21:13.231
659, 1.80322, 0.145181, 65.5167, -0.000976562, 0, 0, 0, 0.302734, -9.7373, 1.12.2022 16:21:13.239
660, 1.80322, 0.145181, 65.5167, 0, 0, 0, -0.102539, 0.339844, -9.7793, 1.12.2022 16:21:13.247
661, 1.80322, 0.145181, 65.5167, -0.000976562, 0, -0.00195312, 0.00976562, 0.291016, -9.76562, 1.12.2022 16:21:13.255
662, 1.80303, 0.145278, 65.5191, -0.000976562, 0, 0, -0.0664062, 0.288086, -9.74316, 1.12.2022 16:21:13.263
663, 1.80303, 0.145278, 65.5191, 0, -0.000976562, 0, -0.0498047, 0.324219, -9.73828, 1.12.2022 16:21:13.271
664, 1.80303, 0.145278, 65.5191, 0, -0.000976562, 0, 0.0244141, 0.299805, -9.74902, 1.12.2022 16:21:13.279
665, 1.80303, 0.145278, 65.5191, 0, -0.000976562, 0, -0.0625, 0.336914, -9.77246, 1.12.2022 16:21:13.287
666, 1.80303, 0.145278, 65.5191, 0, 0, 0, -0.0283203, 0.306641, -9.72266, 1.12.2022 16:21:13.295
667, 1.80303, 0.145278, 65.5191, 0, -0.000976562, 0, -0.000976562, 0.293945, -9.79199, 1.12.2022 16:21:13.303
668, 1.80303, 0.145278, 65.5191, 0, 0, -0.00195312, -0.0732422, 0.306641, -9.72656, 1.12.2022 16:21:13.311
669, 1.80303, 0.145278, 65.5191, 0, 0, -0.00195312, 0.0126953, 0.292969, -9.73047, 1.12.2022 16:21:13.319
670, 1.80303, 0.145278, 65.5191, -0.000976562, -0.000976562, 0, -0.0166016, 0.300781, -9.75098, 1.12.2022 16:21:13.327
671, 1.80303, 0.145278, 65.5191, -0.000976562, 0, -0.00195312, -0.0478516, 0.310547, -9.7666, 1.12.2022 16:21:13.335
672, 1.80303, 0.145278, 65.5191, 0, 0, 0, 0.00976562, 0.28125, -9.75684, 1.12.2022 16:21:13.343
673, 1.80303, 0.145278, 65.5191, 0, -0.000976562, 0, -0.0625, 0.325195, -9.76562, 1.12.2022 16:21:13.351
674, 1.80303, 0.145278, 65.5191, -0.000976562, 0, 0, -0.00195312, 0.311523, -9.73438, 1.12.2022 16:21:13.359
675, 1.80303, 0.145278, 65.5191, 0, -0.000976562, 0, -0.0117188, 0.272461, -9.76562, 1.12.2022 16:21:13.367
676, 1.80303, 0.145278, 65.5191, 0, 0, -0.000976562, -0.0429688, 0.314453, -9.75, 1.12.2022 16:21:13.375
677, 1.80303, 0.145278, 65.5191, 0, -0.000976562, -0.000976562, 0.00878906, 0.305664, -9.78223, 1.12.2022 16:21:13.383
678, 1.79925, 0.151159, 65.5191, 0.000976562, 0, 0, -0.0283203, 0.3125, -9.76465, 1.12.2022 16:21:13.391
679, 1.79925, 0.151159, 65.5191, 0.000976562, 0, 0, -0.0566406, 0.3125, -9.74316, 1.12.2022 16:21:13.399
680, 1.79925, 0.151159, 65.5191, 0.000976562, 0, 0, 0.0380859, 0.286133, -9.75195, 1.12.2022 16:21:13.407
681, 1.79925, 0.151159, 65.5191, -0.000976562, 0, -0.000976562, -0.0517578, 0.304688, -9.72461, 1.12.2022 16:21:13.415
682, 1.79925, 0.151159, 65.5191, -0.000976562, 0, -0.000976562, -0.0410156, 0.282227, -9.76953, 1.12.2022 16:21:13.423
683, 1.79337, 0.147375, 65.5192, 0, 0, -0.000976562, 0.00195312, 0.28418, -9.76367, 1.12.2022 16:21:13.431
684, 1.79337, 0.147375, 65.5192, -0.000976562, 0, 0, -0.0976562, 0.332031, -9.77246, 1.12.2022 16:21:13.439
685, 1.79337, 0.147375, 65.5192, 0, -0.000976562, 0, 0.00976562, 0.290039, -9.74023, 1.12.2022 16:21:13.447
686, 1.79337, 0.147375, 65.5192, 0, -0.000976562, 0, -0.00683594, 0.304688, -9.7373, 1.12.2022 16:21:13.455
687, 1.79337, 0.147375, 65.5192, -0.000976562, 0, 0.000976562, -0.0429688, 0.3125, -9.75, 1.12.2022 16:21:13.463
688, 1.79337, 0.147375, 65.5192, -0.000976562, 0, 0.000976562, 0.0263672, 0.295898, -9.76855, 1.12.2022 16:21:13.471
689, 1.79337, 0.147375, 65.5192, 0, 0, -0.000976562, -0.0546875, 0.295898, -9.75781, 1.12.2022 16:21:13.479
690, 1.79337, 0.147375, 65.5192, -0.000976562, 0, 0, -0.0244141, 0.298828, -9.77734, 1.12.2022 16:21:13.487
691, 1.79337, 0.147375, 65.5192, -0.000976562, 0, -0.000976562, 0.0166016, 0.310547, -9.76074, 1.12.2022 16:21:13.495
692, 1.79337, 0.147375, 65.5192, 0, -0.000976562, 0, -0.0761719, 0.313477, -9.76855, 1.12.2022 16:21:13.503
693, 1.79337, 0.147375, 65.5192, -0.000976562, 0, 0, -0.0244141, 0.303711, -9.76465, 1.12.2022 16:21:13.511
694, 1.79337, 0.147375, 65.5192, -0.000976562, 0.000976562, 0, -0.03125, 0.291016, -9.74902, 1.12.2022 16:21:13.519
695, 1.79337, 0.147375, 65.5192, 0, 0.000976562, 0, -0.0742188, 0.334961, -9.77246, 1.12.2022 16:21:13.527
696, 1.79715, 0.141494, 65.5193, -0.000976562, 0.000976562, 0, 0.03125, 0.285156, -9.71484, 1.12.2022 16:21:13.535
697, 1.79715, 0.141494, 65.5193, -0.000976562, 0, 0, -0.0644531, 0.289062, -9.75781, 1.12.2022 16:21:13.543
698, 1.79715, 0.141494, 65.5193, 0, 0, 0, -0.0283203, 0.306641, -9.72949, 1.12.2022 16:21:13.551
699, 1.79715, 0.141494, 65.5193, -0.000976562, -0.000976562, -0.000976562, 0.0253906, 0.303711, -9.78906, 1.12.2022 16:21:13.559
700, 1.79715, 0.141494, 65.5193, -0.000976562, -0.000976562, 0, -0.0664062, 0.317383, -9.75879, 1.12.2022 16:21:13.565
701, 1.79715, 0.141494, 65.5193, -0.000976562, -0.000976562, 0, 0.00976562, 0.306641, -9.72266, 1.12.2022 16:21:13.573
702, 1.79337, 0.147375, 65.5192, -0.000976562, -0.000976562, 0, 0.00976562, 0.327148, -9.75293, 1.12.2022 16:21:13.581
703, 1.79337, 0.147375, 65.5192, -0.000976562, 0, 0.000976562, -0.0742188, 0.317383, -9.75391, 1.12.2022 16:21:13.589
704, 1.79715, 0.141494, 65.5193, -0.000976562, 0, 0, 0.0488281, 0.321289, -9.80078, 1.12.2022 16:21:13.597
705, 1.79715, 0.141494, 65.5193, 0, 0, -0.000976562, -0.0244141, 0.282227, -9.77539, 1.12.2022 16:21:13.605
706, 1.79715, 0.141494, 65.5193, -0.00195312, 0, 0, -0.0283203, 0.321289, -9.74316, 1.12.2022 16:21:13.613
707, 1.79715, 0.141494, 65.5193, -0.000976562, -0.000976562, 0, 0.0429688, 0.274414, -9.77148, 1.12.2022 16:21:13.621
708, 1.79715, 0.141494, 65.5193, 0, -0.000976562, 0, -0.0498047, 0.319336, -9.75684, 1.12.2022 16:21:13.629
709, 1.79715, 0.141494, 65.5193, 0, -0.000976562, 0, -0.0126953, 0.313477, -9.77637, 1.12.2022 16:21:13.637
710, 1.79715, 0.141494, 65.5193, 0, 0, 0, 0.00488281, 0.320312, -9.7627, 1.12.2022 16:21:13.645
711, 1.79734, 0.141397, 65.5168, -0.000976562, 0, 0, -0.0673828, 0.332031, -9.77539, 1.12.2022 16:21:13.653
712, 1.79734, 0.141397, 65.5168, 0, -0.00195312, 0, 0.0214844, 0.303711, -9.77539, 1.12.2022 16:21:13.661
713, 1.79734, 0.141397, 65.5168, 0, 0, 0, -0.0644531, 0.279297, -9.75977, 1.12.2022 16:21:13.669
714, 1.79146, 0.137614, 65.517, -0.000976562, 0, -0.000976562, -0.0332031, 0.302734, -9.75098, 1.12.2022 16:21:13.677
715, 1.79127, 0.13771, 65.5194, -0.000976562, 0, 0, -0.00488281, 0.289062, -9.75586, 1.12.2022 16:21:13.685
716, 1.79146, 0.137614, 65.517, -0.000976562, -0.000976562, 0, -0.0566406, 0.321289, -9.72168, 1.12.2022 16:21:13.693
717, 1.79146, 0.137614, 65.517, 0, 0, 0, -0.03125, 0.329102, -9.76367, 1.12.2022 16:21:13.701
718, 1.79146, 0.137614, 65.517, 0, 0, 0, -0.0146484, 0.297852, -9.75586, 1.12.2022 16:21:13.709
719, 1.79146, 0.137614, 65.517, -0.000976562, 0, 0, -0.0595703, 0.307617, -9.74512, 1.12.2022 16:21:13.717
720, 1.79146, 0.137614, 65.517, 0, -0.000976562, 0, 0.0185547, 0.28418, -9.76367, 1.12.2022 16:21:13.725
721, 1.79146, 0.137614, 65.517, 0, -0.000976562, -0.000976562, -0.0273438, 0.308594, -9.7959, 1.12.2022 16:21:13.733
722, 1.79127, 0.13771, 65.5194, 0, 0, -0.000976562, -0.0644531, 0.353516, -9.75781, 1.12.2022 16:21:13.741
723, 1.79127, 0.13771, 65.5194, -0.000976562, -0.000976562, 0, 0.00878906, 0.327148, -9.78418, 1.12.2022 16:21:13.749
724, 1.79506, 0.13183, 65.5195, -0.000976562, -0.000976562, -0.000976562, -0.0849609, 0.290039, -9.72852, 1.12.2022 16:21:13.757
725, 1.79506, 0.13183, 65.5195, 0, -0.000976562, 0, -0.0263672, 0.307617, -9.75488, 1.12.2022 16:21:13.765
726, 1.79506, 0.13183, 65.5195, -0.000976562, -0.000976562, 0, -0.00488281, 0.302734, -9.75391, 1.12.2022 16:21:13.773
727, 1.80093, 0.135614, 65.5193, -0.000976562, 0, -0.000976562, -0.0712891, 0.304688, -9.74023, 1.12.2022 16:21:13.781
728, 1.80093, 0.135614, 65.5193, 0, -0.000976562, -0.000976562, 0.00976562, 0.291992, -9.72559, 1.12.2022 16:21:13.789
729, 1.80093, 0.135614, 65.5193, -0.000976562, 0, 0, -0.0234375, 0.314453, -9.72461, 1.12.2022 16:21:13.797
730, 1.80093, 0.135614, 65.5193, 0, 0, 0, -0.03125, 0.329102, -9.75977, 1.12.2022 16:21:13.805
731, 1.80093, 0.135614, 65.5193, 0, -0.000976562, 0, 0.0332031, 0.28418, -9.77344, 1.12.2022 16:21:13.813
732, 1.80093, 0.135614, 65.5193, 0, -0.000976562, 0, -0.0839844, 0.327148, -9.76367, 1.12.2022 16:21:13.821
733, 1.79715, 0.141494, 65.5193, 0, -0.000976562, 0, -0.0234375, 0.317383, -9.75293, 1.12.2022 16:21:13.829
734, 1.79715, 0.141494, 65.5193, 0, -0.000976562, 0, -0.0078125, 0.290039, -9.78906, 1.12.2022 16:21:13.837
735, 1.79715, 0.141494, 65.5193, 0, 0, 0, -0.0839844, 0.330078, -9.76562, 1.12.2022 16:21:13.845
736, 1.79715, 0.141494, 65.5193, 0, -0.000976562, 0, 0.015625, 0.313477, -9.80078, 1.12.2022 16:21:13.853
737, 1.79715, 0.141494, 65.5193, -0.000976562, 0, 0, -0.0302734, 0.311523, -9.72461, 1.12.2022 16:21:13.861
738, 1.79715, 0.141494, 65.5193, -0.000976562, -0.000976562, 0, -0.0683594, 0.331055, -9.72852, 1.12.2022 16:21:13.869
739, 1.79715, 0.141494, 65.5193, -0.000976562, 0, 0, 0.0400391, 0.289062, -9.77148, 1.12.2022 16:21:13.877
740, 1.79715, 0.141494, 65.5193, -0.000976562, 0, 0, -0.0478516, 0.302734, -9.75488, 1.12.2022 16:21:13.885
741, 1.80093, 0.135614, 65.5193, -0.000976562, -0.000976562, 0, -0.0458984, 0.320312, -9.78516, 1.12.2022 16:21:13.893
742, 1.80681, 0.139397, 65.5191, -0.000976562, -0.000976562, 0, -0.0146484, 0.297852, -9.74902, 1.12.2022 16:21:13.901
743, 1.807, 0.1393, 65.5167, 0, 0, 0, -0.0742188, 0.322266, -9.76172, 1.12.2022 16:21:13.909
744, 1.807, 0.1393, 65.5167, 0, -0.000976562, 0, -0.0146484, 0.317383, -9.75488, 1.12.2022 16:21:13.917
745, 1.807, 0.1393, 65.5167, -0.000976562, -0.000976562, 0, -0.00683594, 0.285156, -9.71582, 1.12.2022 16:21:13.925
746, 1.807, 0.1393, 65.5167, 0, 0, 0, -0.0566406, 0.304688, -9.72461, 1.12.2022 16:21:13.933
747, 1.80322, 0.145181, 65.5167, 0, -0.000976562, 0, 0.0439453, 0.240234, -9.8125, 1.12.2022 16:21:13.941
748, 1.80322, 0.145181, 65.5167, 0, 0, 0, -0.0546875, 0.295898, -9.75488, 1.12.2022 16:21:13.949
749, 1.80322, 0.145181, 65.5167, 0, 0, -0.000976562, -0.0429688, 0.30957, -9.7334, 1.12.2022 16:21:13.957
750, 1.80322, 0.145181, 65.5167, 0, -0.000976562, 0, 0.0107422, 0.306641, -9.81738, 1.12.2022 16:21:13.965
751, 1.80322, 0.145181, 65.5167, 0, 0, 0, -0.0859375, 0.326172, -9.73926, 1.12.2022 16:21:13.973
752, 1.80322, 0.145181, 65.5167, -0.000976562, -0.000976562, 0, 0.0117188, 0.289062, -9.76367, 1.12.2022 16:21:13.981
753, 1.80322, 0.145181, 65.5167, -0.000976562, -0.000976562, 0, -0.0361328, 0.295898, -9.75293, 1.12.2022 16:21:13.989
754, 1.80322, 0.145181, 65.5167, -0.000976562, -0.000976562, 0, -0.0712891, 0.30957, -9.74316, 1.12.2022 16:21:13.997
755, 1.80322, 0.145181, 65.5167, -0.000976562, 0, 0, 0.0117188, 0.310547, -9.75586, 1.12.2022 16:21:14.005
756, 1.80322, 0.145181, 65.5167, 0, -0.000976562, -0.000976562, -0.0410156, 0.341797, -9.77539, 1.12.2022 16:21:14.013
757, 1.80322, 0.145181, 65.5167, -0.000976562, -0.000976562, -0.000976562, -0.03125, 0.326172, -9.79688, 1.12.2022 16:21:14.021
758, 1.80322, 0.145181, 65.5167, -0.000976562, -0.000976562, 0.000976562, 0.0136719, 0.275391, -9.7832, 1.12.2022 16:21:14.029
759, 1.80322, 0.145181, 65.5167, 0, 0, 0, -0.0859375, 0.30957, -9.73828, 1.12.2022 16:21:14.037
760, 1.80322, 0.145181, 65.5167, 0, 0, 0, 0.0078125, 0.314453, -9.74121, 1.12.2022 16:21:14.045
761, 1.80322, 0.145181, 65.5167, 0, 0, 0, -0.0126953, 0.272461, -9.78711, 1.12.2022 16:21:14.053
762, 1.80322, 0.145181, 65.5167, 0, -0.000976562, -0.000976562, -0.0449219, 0.338867, -9.74902, 1.12.2022 16:21:14.061
763, 1.80322, 0.145181, 65.5167, -0.00195312, -0.000976562, -0.000976562, 0.0400391, 0.289062, -9.77148, 1.12.2022 16:21:14.069
764, 1.80303, 0.145278, 65.5191, 0, 0, 0, -0.0214844, 0.283203, -9.73926, 1.12.2022 16:21:14.077
765, 1.80322, 0.145181, 65.5167, -0.000976562, 0, 0, -0.0380859, 0.313477, -9.77832, 1.12.2022 16:21:14.085
766, 1.80322, 0.145181, 65.5167, -0.000976562, 0, 0, 0.0224609, 0.270508, -9.7168, 1.12.2022 16:21:14.093
767, 1.80322, 0.145181, 65.5167, 0, -0.000976562, 0.000976562, -0.0458984, 0.274414, -9.7627, 1.12.2022 16:21:14.101
768, 1.80322, 0.145181, 65.5167, -0.000976562, -0.000976562, 0, -0.00585938, 0.313477, -9.79297, 1.12.2022 16:21:14.109
769, 1.80322, 0.145181, 65.5167, 0.000976562, -0.000976562, 0, -0.0263672, 0.317383, -9.75977, 1.12.2022 16:21:14.117
770, 1.80322, 0.145181, 65.5167, 0, 0, 0, -0.0693359, 0.300781, -9.76465, 1.12.2022 16:21:14.125
771, 1.80322, 0.145181, 65.5167, -0.000976562, -0.000976562, 0, 0.0214844, 0.293945, -9.77734, 1.12.2022 16:21:14.133
772, 1.80322, 0.145181, 65.5167, -0.000976562, 0, 0, -0.0234375, 0.299805, -9.73438, 1.12.2022 16:21:14.141
773, 1.80322, 0.145181, 65.5167, 0, -0.000976562, 0, -0.0546875, 0.327148, -9.76855, 1.12.2022 16:21:14.149
774, 1.80322, 0.145181, 65.5167, -0.000976562, -0.000976562, 0, 0.0117188, 0.293945, -9.76074, 1.12.2022 16:21:14.157
775, 1.80322, 0.145181, 65.5167, 0, 0, 0, -0.0498047, 0.342773, -9.73535, 1.12.2022 16:21:14.165
776, 1.79734, 0.141397, 65.5168, -0.000976562, 0, 0, 0.00390625, 0.316406, -9.7959, 1.12.2022 16:21:14.173
777, 1.79734, 0.141397, 65.5168, -0.000976562, -0.000976562, 0, 0.0166016, 0.287109, -9.77832, 1.12.2022 16:21:14.181
778, 1.79734, 0.141397, 65.5168, -0.000976562, -0.000976562, 0, -0.0693359, 0.297852, -9.74512, 1.12.2022 16:21:14.189
779, 1.79734, 0.141397, 65.5168, -0.000976562, -0.000976562, 0, 0.03125, 0.276367, -9.74805, 1.12.2022 16:21:14.197
780, 1.79734, 0.141397, 65.5168, -0.000976562, -0.000976562, 0, -0.0527344, 0.292969, -9.74609, 1.12.2022 16:21:14.205
781, 1.79734, 0.141397, 65.5168, 0, 0, 0, -0.0449219, 0.304688, -9.72949, 1.12.2022 16:21:14.213
782, 1.79734, 0.141397, 65.5168, 0, -0.000976562, -0.00195312, 0.0498047, 0.3125, -9.74902, 1.12.2022 16:21:14.221
783, 1.79734, 0.141397, 65.5168, 0, -0.000976562, 0, -0.0664062, 0.301758, -9.7168, 1.12.2022 16:21:14.229
784, 1.79734, 0.141397, 65.5168, -0.000976562, -0.000976562, 0.000976562, -0.00683594, 0.305664, -9.75293, 1.12.2022 16:21:14.237
785, 1.79734, 0.141397, 65.5168, 0, -0.000976562, 0, -0.00683594, 0.295898, -9.75391, 1.12.2022 16:21:14.245
786, 1.79734, 0.141397, 65.5168, 0, 0, -0.000976562, -0.0546875, 0.322266, -9.76367, 1.12.2022 16:21:14.253
787, 1.79146, 0.137614, 65.517, 0, 0, 0, 0.0214844, 0.305664, -9.75879, 1.12.2022 16:21:14.261
788, 1.79146, 0.137614, 65.517, 0, -0.000976562, 0, 0.00976562, 0.302734, -9.75879, 1.12.2022 16:21:14.269
789, 1.79146, 0.137614, 65.517, -0.000976562, -0.000976562, 0, -0.0380859, 0.325195, -9.78027, 1.12.2022 16:21:14.277
790, 1.79146, 0.137614, 65.517, 0, -0.000976562, 0, 0.0214844, 0.292969, -9.7373, 1.12.2022 16:21:14.285
791, 1.79524, 0.131733, 65.517, -0.000976562, 0, 0.000976562, -0.0615234, 0.286133, -9.73926, 1.12.2022 16:21:14.293
792, 1.79524, 0.131733, 65.517, -0.000976562, -0.000976562, 0, -0.0253906, 0.304688, -9.73438, 1.12.2022 16:21:14.301
793, 1.79524, 0.131733, 65.517, 0, -0.000976562, 0, 0.0146484, 0.271484, -9.75977, 1.12.2022 16:21:14.309
794, 1.79524, 0.131733, 65.517, -0.000976562, -0.00195312, 0, -0.125977, 0.319336, -9.73438, 1.12.2022 16:21:14.317
795, 1.79524, 0.131733, 65.517, -0.00195312, -0.000976562, -0.000976562, 0.0078125, 0.27832, -9.74023, 1.12.2022 16:21:14.325
796, 1.79524, 0.131733, 65.517, 0, -0.000976562, -0.00195312, -0.00488281, 0.308594, -9.7793, 1.12.2022 16:21:14.333
797, 1.79524, 0.131733, 65.517, 0, 0, 0, -0.0615234, 0.34375, -9.75879, 1.12.2022 16:21:14.341
798, 1.79524, 0.131733, 65.517, -0.00195312, 0, -0.000976562, 0.0195312, 0.292969, -9.74902, 1.12.2022 16:21:14.349
799, 1.79524, 0.131733, 65.517, -0.000976562, 0, -0.000976562, -0.0595703, 0.307617, -9.75293, 1.12.2022 16:21:14.357
800, 1.78936, 0.12795, 65.5172, -0.000976562, 0, -0.000976562, -0.0400391, 0.329102, -9.75684, 1.12.2022 16:21:14.365
801, 1.78936, 0.12795, 65.5172, -0.00195312, -0.000976562, 0, 0.0214844, 0.273438, -9.74805, 1.12.2022 16:21:14.373
802, 1.78936, 0.12795, 65.5172, -0.000976562, -0.000976562, 0, -0.0644531, 0.3125, -9.74512, 1.12.2022 16:21:14.381
803, 1.78936, 0.12795, 65.5172, -0.000976562, 0, 0, 0.00976562, 0.3125, -9.74121, 1.12.2022 16:21:14.389
804, 1.78936, 0.12795, 65.5172, -0.000976562, 0, 0, -0.0244141, 0.31543, -9.77441, 1.12.2022 16:21:14.397
805, 1.78936, 0.12795, 65.5172, -0.000976562, 0, -0.000976562, -0.0556641, 0.328125, -9.78027, 1.12.2022 16:21:14.405
806, 1.78918, 0.128046, 65.5196, -0.000976562, 0, 0, 0.0214844, 0.295898, -9.75195, 1.12.2022 16:21:14.413
807, 1.79314, 0.122069, 65.5172, 0, 0, 0, -0.0585938, 0.31543, -9.70215, 1.12.2022 16:21:14.421
808, 1.79314, 0.122069, 65.5172, 0, 0, 0, -0.0380859, 0.322266, -9.76855, 1.12.2022 16:21:14.429
809, 1.79314, 0.122069, 65.5172, 0, -0.000976562, 0.000976562, -0.00292969, 0.279297, -9.75684, 1.12.2022 16:21:14.437
810, 1.79314, 0.122069, 65.5172, -0.000976562, -0.000976562, 0, -0.0810547, 0.314453, -9.74512, 1.12.2022 16:21:14.445
811, 1.78936, 0.12795, 65.5172, 0, -0.000976562, 0, -0.0332031, 0.310547, -9.76465, 1.12.2022 16:21:14.453
812, 1.78936, 0.12795, 65.5172, -0.000976562, -0.000976562, 0, 0.0175781, 0.268555, -9.72656, 1.12.2022 16:21:14.461
813, 1.78936, 0.12795, 65.5172, -0.000976562, -0.000976562, 0, -0.0761719, 0.320312, -9.75684, 1.12.2022 16:21:14.469
814, 1.78936, 0.12795, 65.5172, 0, 0, -0.000976562, 0.0380859, 0.289062, -9.75879, 1.12.2022 16:21:14.477
815, 1.78936, 0.12795, 65.5172, 0, -0.000976562, 0, -0.0351562, 0.304688, -9.73438, 1.12.2022 16:21:14.485
816, 1.78936, 0.12795, 65.5172, 0, -0.000976562, 0, -0.0283203, 0.296875, -9.72754, 1.12.2022 16:21:14.493
817, 1.78936, 0.12795, 65.5172, -0.000976562, 0, 0, 0.0263672, 0.288086, -9.7334, 1.12.2022 16:21:14.501
818, 1.78936, 0.12795, 65.5172, -0.000976562, 0, -0.000976562, -0.0429688, 0.305664, -9.75488, 1.12.2022 16:21:14.509
819, 1.78936, 0.12795, 65.5172, -0.000976562, 0, -0.000976562, -0.0146484, 0.31543, -9.77441, 1.12.2022 16:21:14.517
820, 1.78936, 0.12795, 65.5172, 0, 0, 0, -0.0136719, 0.316406, -9.73145, 1.12.2022 16:21:14.523
821, 1.78936, 0.12795, 65.5172, -0.000976562, 0, 0, -0.0400391, 0.3125, -9.75293, 1.12.2022 16:21:14.531
822, 1.78936, 0.12795, 65.5172, 0, 0, 0, 0.0302734, 0.296875, -9.79199, 1.12.2022 16:21:14.539
823, 1.78936, 0.12795, 65.5172, 0, -0.000976562, 0.000976562, -0.0410156, 0.318359, -9.78809, 1.12.2022 16:21:14.547
824, 1.78936, 0.12795, 65.5172, -0.000976562, -0.000976562, 0, -0.0322266, 0.291992, -9.70801, 1.12.2022 16:21:14.555
825, 1.78936, 0.12795, 65.5172, -0.000976562, -0.000976562, 0, 0.0126953, 0.306641, -9.7373, 1.12.2022 16:21:14.563
826, 1.78936, 0.12795, 65.5172, 0, 0, 0, -0.0761719, 0.338867, -9.75586, 1.12.2022 16:21:14.571
827, 1.78936, 0.12795, 65.5172, 0, 0, 0, 0.0166016, 0.331055, -9.74121, 1.12.2022 16:21:14.579
828, 1.79314, 0.122069, 65.5172, -0.000976562, -0.000976562, 0, 0.0078125, 0.299805, -9.74414, 1.12.2022 16:21:14.587
829, 1.79314, 0.122069, 65.5172, 0, -0.000976562, 0, -0.0693359, 0.307617, -9.74805, 1.12.2022 16:21:14.595
830, 1.79314, 0.122069, 65.5172, 0, 0, -0.000976562, 0.0185547, 0.28125, -9.7666, 1.12.2022 16:21:14.603
831, 1.79314, 0.122069, 65.5172, 0, -0.000976562, 0, -0.0263672, 0.289062, -9.75586, 1.12.2022 16:21:14.611
832, 1.79314, 0.122069, 65.5172, 0, -0.000976562, 0, -0.0429688, 0.307617, -9.76172, 1.12.2022 16:21:14.619
833, 1.79314, 0.122069, 65.5172, 0, -0.000976562, 0, 0.0361328, 0.313477, -9.7207, 1.12.2022 16:21:14.627
834, 1.79314, 0.122069, 65.5172, -0.00195312, 0, 0, -0.0478516, 0.299805, -9.74121, 1.12.2022 16:21:14.635
835, 1.79314, 0.122069, 65.5172, -0.000976562, -0.000976562, 0, -0.0244141, 0.318359, -9.79004, 1.12.2022 16:21:14.643
836, 1.79314, 0.122069, 65.5172, -0.000976562, 0, -0.000976562, 0.00976562, 0.299805, -9.74414, 1.12.2022 16:21:14.651
837, 1.79314, 0.122069, 65.5172, 0, 0, 0, -0.0546875, 0.299805, -9.73145, 1.12.2022 16:21:14.659
838, 1.79314, 0.122069, 65.5172, 0, 0, -0.000976562, 0.0253906, 0.282227, -9.77539, 1.12.2022 16:21:14.667
839, 1.79314, 0.122069, 65.5172, -0.000976562, 0, 0, -0.0195312, 0.293945, -9.76953, 1.12.2022 16:21:14.675
840, 1.79314, 0.122069, 65.5172, 0, -0.000976562, 0, -0.0449219, 0.304688, -9.73828, 1.12.2022 16:21:14.683
841, 1.79314, 0.122069, 65.5172, -0.000976562, -0.00195312, -0.00195312, 0.0410156, 0.304688, -9.73047, 1.12.2022 16:21:14.691
842, 1.79314, 0.122069, 65.5172, 0, -0.000976562, 0, -0.0644531, 0.319336, -9.73828, 1.12.2022 16:21:14.699
843, 1.79314, 0.122069, 65.5172, 0, -0.000976562, 0, -0.0185547, 0.319336, -9.75, 1.12.2022 16:21:14.707
844, 1.79314, 0.122069, 65.5172, 0, -0.000976562, 0, 0.00292969, 0.294922, -9.73535, 1.12.2022 16:21:14.715
845, 1.79296, 0.122165, 65.5197, 0, -0.000976562, -0.00195312, -0.0839844, 0.327148, -9.76074, 1.12.2022 16:21:14.723
846, 1.79296, 0.122165, 65.5197, -0.000976562, -0.000976562, -0.00195312, 0.0175781, 0.299805, -9.71875, 1.12.2022 16:21:14.731
847, 1.79296, 0.122165, 65.5197, -0.000976562, -0.000976562, 0, 0.00683594, 0.305664, -9.76562, 1.12.2022 16:21:14.739
848, 1.79296, 0.122165, 65.5197, 0, -0.000976562, 0.000976562, -0.03125, 0.313477, -9.77148, 1.12.2022 16:21:14.747
849, 1.79296, 0.122165, 65.5197, -0.000976562, 0, 0, 0, 0.259766, -9.76855, 1.12.2022 16:21:14.755
850, 1.78708, 0.118381, 65.5198, -0.000976562, 0, 0, -0.0595703, 0.298828, -9.76465, 1.12.2022 16:21:14.763
851, 1.79086, 0.1125, 65.5198, 0, 0, 0, -0.0205078, 0.311523, -9.72949, 1.12.2022 16:21:14.771
852, 1.79105, 0.112404, 65.5174, 0, 0, 0, -0.00683594, 0.294922, -9.72266, 1.12.2022 16:21:14.779
853, 1.79105, 0.112404, 65.5174, -0.000976562, 0, 0, -0.0791016, 0.330078, -9.76562, 1.12.2022 16:21:14.787
854, 1.79105, 0.112404, 65.5174, 0, 0, 0, 0.00976562, 0.311523, -9.7373, 1.12.2022 16:21:14.795
855, 1.79105, 0.112404, 65.5174, -0.00195312, -0.000976562, 0, -0.0166016, 0.30957, -9.73145, 1.12.2022 16:21:14.803
856, 1.79105, 0.112404, 65.5174, -0.000976562, -0.000976562, 0, -0.0576172, 0.305664, -9.76465, 1.12.2022 16:21:14.811
857, 1.79105, 0.112404, 65.5174, 0, 0, 0, 0.0458984, 0.28125, -9.74316, 1.12.2022 16:21:14.819
858, 1.79105, 0.112404, 65.5174, 0, -0.000976562, 0, -0.0429688, 0.293945, -9.77246, 1.12.2022 16:21:14.827
859, 1.79105, 0.112404, 65.5174, -0.000976562, -0.000976562, 0, -0.0478516, 0.299805, -9.74121, 1.12.2022 16:21:14.835
860, 1.79105, 0.112404, 65.5174, 0, -0.000976562, 0, 0.00292969, 0.304688, -9.74609, 1.12.2022 16:21:14.843
861, 1.79105, 0.112404, 65.5174, 0, 0, 0, -0.0742188, 0.307617, -9.76367, 1.12.2022 16:21:14.851
862, 1.79105, 0.112404, 65.5174, -0.000976562, 0, 0, -0.00195312, 0.302734, -9.74902, 1.12.2022 16:21:14.859
863, 1.79105, 0.112404, 65.5174, 0, 0, 0, -0.00488281, 0.310547, -9.77441, 1.12.2022 16:21:14.867
864, 1.79105, 0.112404, 65.5174, 0, 0, 0, -0.0742188, 0.336914, -9.76367, 1.12.2022 16:21:14.875
865, 1.79105, 0.112404, 65.5174, 0, 0, 0, 0.0351562, 0.293945, -9.78223, 1.12.2022 16:21:14.883
866, 1.79105, 0.112404, 65.5174, 0, 0, 0, -0.0126953, 0.287109, -9.78418, 1.12.2022 16:21:14.891
867, 1.79105, 0.112404, 65.5174, -0.000976562, -0.000976562, 0, -0.0615234, 0.307617, -9.7334, 1.12.2022 16:21:14.899
868, 1.79105, 0.112404, 65.5174, -0.000976562, -0.000976562, 0, -0.00488281, 0.28418, -9.76074, 1.12.2022 16:21:14.907
869, 1.79105, 0.112404, 65.5174, 0, 0, 0, -0.0976562, 0.305664, -9.75195, 1.12.2022 16:21:14.915
870, 1.79105, 0.112404, 65.5174, -0.000976562, 0, 0, -0.00488281, 0.310547, -9.75781, 1.12.2022 16:21:14.923
871, 1.79105, 0.112404, 65.5174, -0.000976562, 0, 0, -0.00488281, 0.307617, -9.76465, 1.12.2022 16:21:14.931
872, 1.79105, 0.112404, 65.5174, 0, 0, 0, -0.0498047, 0.336914, -9.75879, 1.12.2022 16:21:14.939
873, 1.79105, 0.112404, 65.5174, -0.000976562, 0, 0, 0.0527344, 0.295898, -9.76172, 1.12.2022 16:21:14.947
874, 1.79105, 0.112404, 65.5174, 0, 0, 0, -0.0146484, 0.291016, -9.75098, 1.12.2022 16:21:14.955
875, 1.79105, 0.112404, 65.5174, -0.000976562, -0.000976562, 0, -0.0283203, 0.294922, -9.74121, 1.12.2022 16:21:14.963
876, 1.79105, 0.112404, 65.5174, 0, -0.000976562, 0, 0.00976562, 0.286133, -9.74707, 1.12.2022 16:21:14.971
877, 1.79105, 0.112404, 65.5174, -0.000976562, -0.000976562, -0.000976562, -0.0595703, 0.320312, -9.77539, 1.12.2022 16:21:14.979
878, 1.79105, 0.112404, 65.5174, -0.000976562, -0.000976562, 0, 0.00195312, 0.313477, -9.78125, 1.12.2022 16:21:14.987
879, 1.79105, 0.112404, 65.5174, 0, 0, -0.000976562, -0.0146484, 0.313477, -9.7793, 1.12.2022 16:21:14.995
880, 1.79105, 0.112404, 65.5174, -0.000976562, 0, 0, -0.0732422, 0.292969, -9.74121, 1.12.2022 16:21:15.003
881, 1.79105, 0.112404, 65.5174, -0.000976562, 0, 0, 0.0195312, 0.270508, -9.7168, 1.12.2022 16:21:15.011
882, 1.79105, 0.112404, 65.5174, -0.000976562, 0, 0, -0.00488281, 0.307617, -9.76758, 1.12.2022 16:21:15.019
883, 1.79105, 0.112404, 65.5174, 0, 0, -0.000976562, -0.0507812, 0.316406, -9.80859, 1.12.2022 16:21:15.027
884, 1.79105, 0.112404, 65.5174, -0.000976562, 0.000976562, 0, 0.0078125, 0.271484, -9.73535, 1.12.2022 16:21:15.035
885, 1.79105, 0.112404, 65.5174, 0, 0, 0, -0.0527344, 0.297852, -9.75781, 1.12.2022 16:21:15.043
886, 1.79105, 0.112404, 65.5174, -0.000976562, -0.000976562, 0, -0.0283203, 0.323242, -9.71484, 1.12.2022 16:21:15.051
887, 1.79105, 0.112404, 65.5174, -0.000976562, 0, 0, -0.00683594, 0.290039, -9.72559, 1.12.2022 16:21:15.059
888, 1.79105, 0.112404, 65.5174, -0.000976562, 0, 0, -0.0927734, 0.333984, -9.75098, 1.12.2022 16:21:15.067
889, 1.79105, 0.112404, 65.5174, 0, 0, 0, 0.00683594, 0.303711, -9.77246, 1.12.2022 16:21:15.075
890, 1.79105, 0.112404, 65.5174, 0, 0, -0.000976562, -0.0351562, 0.303711, -9.70117, 1.12.2022 16:21:15.083
891, 1.79105, 0.112404, 65.5174, 0, 0, -0.000976562, -0.0498047, 0.3125, -9.73828, 1.12.2022 16:21:15.091
892, 1.79086, 0.1125, 65.5198, 0, -0.000976562, -0.000976562, 0.0341797, 0.30957, -9.82227, 1.12.2022 16:21:15.099
893, 1.79086, 0.1125, 65.5198, 0, 0, 0.000976562, -0.0546875, 0.299805, -9.73145, 1.12.2022 16:21:15.107
894, 1.79086, 0.1125, 65.5198, -0.000976562, -0.000976562, 0, -0.0117188, 0.304688, -9.74414, 1.12.2022 16:21:15.115
895, 1.79086, 0.1125, 65.5198, -0.000976562, 0, -0.000976562, -0.00976562, 0.28418, -9.76758, 1.12.2022 16:21:15.123
896, 1.79086, 0.1125, 65.5198, -0.000976562, 0, 0, -0.0830078, 0.316406, -9.73047, 1.12.2022 16:21:15.131
897, 1.79086, 0.1125, 65.5198, 0, -0.000976562, -0.000976562, -0.00878906, 0.316406, -9.73438, 1.12.2022 16:21:15.139
898, 1.79086, 0.1125, 65.5198, 0, 0, -0.000976562, -0.0166016, 0.304688, -9.72949, 1.12.2022 16:21:15.147
899, 1.78708, 0.118381, 65.5198, -0.000976562, -0.000976562, 0, -0.0263672, 0.31543, -9.75977, 1.12.2022 16:21:15.155
900, 1.78708, 0.118381, 65.5198, 0, 0, 0, 0.0302734, 0.28418, -9.7832, 1.12.2022 16:21:15.163
901, 1.78708, 0.118381, 65.5198, 0, -0.000976562, 0, -0.0712891, 0.305664, -9.75488, 1.12.2022 16:21:15.171
902, 1.78708, 0.118381, 65.5198, 0, 0, 0, -0.0283203, 0.300781, -9.75977, 1.12.2022 16:21:15.179
903, 1.78708, 0.118381, 65.5198, 0, 0, -0.000976562, -0.00878906, 0.304688, -9.7207, 1.12.2022 16:21:15.187
904, 1.78708, 0.118381, 65.5198, 0, 0, -0.000976562, -0.0830078, 0.299805, -9.72852, 1.12.2022 16:21:15.195
905, 1.78708, 0.118381, 65.5198, 0, -0.000976562, 0.000976562, 0.00292969, 0.306641, -9.72559, 1.12.2022 16:21:15.203
906, 1.78708, 0.118381, 65.5198, 0, 0, 0, -0.0185547, 0.280273, -9.72559, 1.12.2022 16:21:15.211
907, 1.78708, 0.118381, 65.5198, 0, 0, 0, -0.0615234, 0.306641, -9.72852, 1.12.2022 16:21:15.219
908, 1.78708, 0.118381, 65.5198, 0, -0.000976562, 0, 0.0283203, 0.292969, -9.76172, 1.12.2022 16:21:15.227
909, 1.78708, 0.118381, 65.5198, 0, -0.000976562, -0.000976562, -0.0449219, 0.304688, -9.7334, 1.12.2022 16:21:15.235
910, 1.7833, 0.124262, 65.5198, 0, -0.000976562, -0.000976562, -0.0429688, 0.331055, -9.74023, 1.12.2022 16:21:15.243
911, 1.7833, 0.124262, 65.5198, -0.000976562, 0, -0.000976562, 0.0332031, 0.269531, -9.76172, 1.12.2022 16:21:15.251
912, 1.7833, 0.124262, 65.5198, 0, -0.000976562, 0, -0.078125, 0.308594, -9.70703, 1.12.2022 16:21:15.259
913, 1.7833, 0.124262, 65.5198, 0, -0.000976562, 0, -0.00976562, 0.298828, -9.78418, 1.12.2022 16:21:15.267
914, 1.7833, 0.124262, 65.5198, -0.000976562, -0.00195312, 0, -0.0449219, 0.297852, -9.74121, 1.12.2022 16:21:15.275
915, 1.7833, 0.124262, 65.5198, 0, -0.000976562, 0, -0.0664062, 0.321289, -9.74023, 1.12.2022 16:21:15.283
916, 1.7833, 0.124262, 65.5198, -0.000976562, -0.000976562, 0, 0.0429688, 0.297852, -9.76172, 1.12.2022 16:21:15.291
917, 1.7833, 0.124262, 65.5198, 0, 0, 0, -0.0498047, 0.332031, -9.76855, 1.12.2022 16:21:15.299
918, 1.7833, 0.124262, 65.5198, 0, 0, 0, -0.0410156, 0.296875, -9.78418, 1.12.2022 16:21:15.307
919, 1.77952, 0.130143, 65.5197, 0, -0.000976562, 0, 0.00683594, 0.3125, -9.75293, 1.12.2022 16:21:15.315
920, 1.77952, 0.130143, 65.5197, 0, 0, 0, -0.0927734, 0.279297, -9.75, 1.12.2022 16:21:15.323
921, 1.77952, 0.130143, 65.5197, 0, -0.000976562, -0.000976562, -0.0332031, 0.314453, -9.7334, 1.12.2022 16:21:15.331
922, 1.77952, 0.130143, 65.5197, 0, 0, 0, -0.0332031, 0.295898, -9.75781, 1.12.2022 16:21:15.339
923, 1.77952, 0.130143, 65.5197, 0, -0.000976562, 0, -0.0566406, 0.326172, -9.72363, 1.12.2022 16:21:15.347
924, 1.77952, 0.130143, 65.5197, -0.000976562, -0.000976562, 0, 0.0498047, 0.305664, -9.75879, 1.12.2022 16:21:15.355
925, 1.78539, 0.133926, 65.5196, 0, 0, 0, -0.0166016, 0.348633, -9.75195, 1.12.2022 16:21:15.363
926, 1.78539, 0.133926, 65.5196, 0, 0, 0, -0.0546875, 0.316406, -9.72656, 1.12.2022 16:21:15.371
927, 1.78539, 0.133926, 65.5196, 0, 0, 0, 0.0195312, 0.283203, -9.74023, 1.12.2022 16:21:15.379
928, 1.78539, 0.133926, 65.5196, 0, 0, 0, -0.0712891, 0.311523, -9.71484, 1.12.2022 16:21:15.387
929, 1.78539, 0.133926, 65.5196, -0.000976562, 0, 0, -0.00488281, 0.295898, -9.77734, 1.12.2022 16:21:15.395
930, 1.78539, 0.133926, 65.5196, 0, 0, 0, 0.0107422, 0.290039, -9.80176, 1.12.2022 16:21:15.403
931, 1.78161, 0.139807, 65.5195, 0, -0.000976562, 0, -0.0498047, 0.335938, -9.7334, 1.12.2022 16:21:15.411
932, 1.78161, 0.139807, 65.5195, -0.000976562, -0.000976562, 0, 0.0605469, 0.303711, -9.70508, 1.12.2022 16:21:15.419
933, 1.78161, 0.139807, 65.5195, -0.000976562, 0, 0, -0.03125, 0.300781, -9.75977, 1.12.2022 16:21:15.427
934, 1.78539, 0.133926, 65.5196, -0.000976562, 0, 0, -0.0332031, 0.320312, -9.7666, 1.12.2022 16:21:15.435
935, 1.78558, 0.13383, 65.5171, -0.000976562, 0, 0, -0.00195312, 0.317383, -9.75781, 1.12.2022 16:21:15.443
936, 1.78558, 0.13383, 65.5171, -0.000976562, 0, 0, -0.0673828, 0.31543, -9.77148, 1.12.2022 16:21:15.451
937, 1.78558, 0.13383, 65.5171, -0.000976562, 0, 0, -0.0185547, 0.30957, -9.72949, 1.12.2022 16:21:15.459
938, 1.78558, 0.13383, 65.5171, 0, -0.000976562, 0, -0.0078125, 0.307617, -9.76758, 1.12.2022 16:21:15.467
939, 1.79146, 0.137614, 65.517, 0, 0, 0, -0.0498047, 0.322266, -9.76855, 1.12.2022 16:21:15.475
940, 1.79146, 0.137614, 65.517, 0, -0.000976562, -0.000976562, 0.0615234, 0.300781, -9.77344, 1.12.2022 16:21:15.483
941, 1.79146, 0.137614, 65.517, 0, 0, 0, -0.0136719, 0.30957, -9.72754, 1.12.2022 16:21:15.491
942, 1.79146, 0.137614, 65.517, 0, 0, 0, -0.0332031, 0.322266, -9.76172, 1.12.2022 16:21:15.499
943, 1.79146, 0.137614, 65.517, -0.000976562, 0, 0, 0.0332031, 0.307617, -9.74414, 1.12.2022 16:21:15.505
944, 1.79146, 0.137614, 65.517, -0.000976562, -0.000976562, 0, -0.0859375, 0.310547, -9.76172, 1.12.2022 16:21:15.513
945, 1.79524, 0.131733, 65.517, 0, -0.000976562, 0, 0, 0.289062, -9.76855, 1.12.2022 16:21:15.521
946, 1.79524, 0.131733, 65.517, 0, -0.000976562, 0, 0.00878906, 0.320312, -9.78418, 1.12.2022 16:21:15.529
947, 1.79524, 0.131733, 65.517, 0, 0, 0, -0.0693359, 0.306641, -9.78027, 1.12.2022 16:21:15.537
948, 1.79524, 0.131733, 65.517, 0, 0, 0, -0.00292969, 0.298828, -9.77246, 1.12.2022 16:21:15.545
949, 1.79524, 0.131733, 65.517, 0, 0, 0, -0.0556641, 0.293945, -9.7793, 1.12.2022 16:21:15.553
950, 1.79524, 0.131733, 65.517, 0, 0, -0.000976562, -0.0498047, 0.329102, -9.75684, 1.12.2022 16:21:15.561
951, 1.79524, 0.131733, 65.517, -0.000976562, 0, -0.000976562, 0.00195312, 0.271484, -9.75195, 1.12.2022 16:21:15.569
952, 1.79506, 0.13183, 65.5195, -0.000976562, 0, -0.000976562, -0.0527344, 0.301758, -9.77832, 1.12.2022 16:21:15.577
953, 1.79884, 0.125949, 65.5195, -0.000976562, 0.000976562, -0.000976562, -0.0166016, 0.317383, -9.76465, 1.12.2022 16:21:15.585
954, 1.79884, 0.125949, 65.5195, -0.000976562, -0.000976562, 0, 0.00292969, 0.292969, -9.74414, 1.12.2022 16:21:15.593
955, 1.79884, 0.125949, 65.5195, -0.000976562, 0, 0, -0.0947266, 0.329102, -9.73242, 1.12.2022 16:21:15.601
956, 1.79884, 0.125949, 65.5195, -0.000976562, 0, 0, -0.0078125, 0.330078, -9.77441, 1.12.2022 16:21:15.609
957, 1.79884, 0.125949, 65.5195, 0, 0, 0, -0.0078125, 0.287109, -9.79883, 1.12.2022 16:21:15.617
958, 1.79884, 0.125949, 65.5195, -0.000976562, 0, 0, -0.0400391, 0.324219, -9.75488, 1.12.2022 16:21:15.625
959, 1.79884, 0.125949, 65.5195, 0, 0, 0, 0.0302734, 0.306641, -9.80566, 1.12.2022 16:21:15.633
960, 1.79884, 0.125949, 65.5195, -0.000976562, 0, -0.000976562, -0.0410156, 0.301758, -9.7998, 1.12.2022 16:21:15.641
961, 1.79884, 0.125949, 65.5195, -0.000976562, 0, -0.000976562, -0.0166016, 0.319336, -9.74609, 1.12.2022 16:21:15.649
962, 1.8085, 0.123852, 65.5194, 0, -0.000976562, 0, 0.00878906, 0.28418, -9.77344, 1.12.2022 16:21:15.657
963, 1.8085, 0.123852, 65.5194, 0, 0, 0, -0.0683594, 0.324219, -9.73535, 1.12.2022 16:21:15.665
964, 1.8085, 0.123852, 65.5194, -0.000976562, 0, -0.000976562, 0.0527344, 0.319336, -9.74219, 1.12.2022 16:21:15.673
965, 1.8085, 0.123852, 65.5194, -0.000976562, 0, 0, -0.0244141, 0.311523, -9.78809, 1.12.2022 16:21:15.681
966, 1.8085, 0.123852, 65.5194, 0, 0, 0, -0.0664062, 0.335938, -9.75195, 1.12.2022 16:21:15.689
967, 1.8085, 0.123852, 65.5194, -0.000976562, -0.000976562, 0, 0.00976562, 0.28418, -9.75879, 1.12.2022 16:21:15.697
968, 1.8085, 0.123852, 65.5194, 0, -0.000976562, 0, -0.0576172, 0.322266, -9.76172, 1.12.2022 16:21:15.705
969, 1.8085, 0.123852, 65.5194, 0, -0.000976562, -0.000976562, -0.0458984, 0.322266, -9.77148, 1.12.2022 16:21:15.713
970, 1.8085, 0.123852, 65.5194, 0, 0, 0, 0.00683594, 0.297852, -9.74707, 1.12.2022 16:21:15.721
971, 1.8085, 0.123852, 65.5194, -0.000976562, 0, 0, -0.0683594, 0.314453, -9.72656, 1.12.2022 16:21:15.729
972, 1.8085, 0.123852, 65.5194, 0, 0, 0, 0.0136719, 0.335938, -9.81445, 1.12.2022 16:21:15.737
973, 1.8085, 0.123852, 65.5194, 0, 0, 0, 0.00488281, 0.307617, -9.75781, 1.12.2022 16:21:15.745
974, 1.8085, 0.123852, 65.5194, 0, 0, 0, -0.0732422, 0.333984, -9.74707, 1.12.2022 16:21:15.753
975, 1.8085, 0.123852, 65.5194, -0.000976562, 0, 0, 0.0214844, 0.322266, -9.74902, 1.12.2022 16:21:15.761
976, 1.8085, 0.123852, 65.5194, -0.000976562, 0, -0.000976562, -0.0390625, 0.285156, -9.78613, 1.12.2022 16:21:15.769
977, 1.8085, 0.123852, 65.5194, -0.000976562, 0, 0, -0.0615234, 0.299805, -9.73828, 1.12.2022 16:21:15.777
978, 1.8085, 0.123852, 65.5194, 0, -0.000976562, 0, 0.00292969, 0.283203, -9.74707, 1.12.2022 16:21:15.785
979, 1.8085, 0.123852, 65.5194, 0.000976562, -0.000976562, 0, -0.0927734, 0.327148, -9.74902, 1.12.2022 16:21:15.793
980, 1.8085, 0.123852, 65.5194, 0.000976562, 0, -0.000976562, 0.00488281, 0.314453, -9.72949, 1.12.2022 16:21:15.801
981, 1.8085, 0.123852, 65.5194, -0.000976562, -0.000976562, -0.000976562, -0.0273438, 0.323242, -9.80469, 1.12.2022 16:21:15.809
982, 1.8085, 0.123852, 65.5194, -0.000976562, 0, -0.000976562, -0.0478516, 0.336914, -9.76855, 1.12.2022 16:21:15.817
983, 1.8085, 0.123852, 65.5194, -0.000976562, 0, 0, 0.0136719, 0.28418, -9.77344, 1.12.2022 16:21:15.825
984, 1.8085, 0.123852, 65.5194, 0, -0.000976562, -0.000976562, -0.0400391, 0.288086, -9.75293, 1.12.2022 16:21:15.833
985, 1.81438, 0.127636, 65.5192, 0, -0.000976562, -0.000976562, -0.0400391, 0.322266, -9.74512, 1.12.2022 16:21:15.841
986, 1.81438, 0.127636, 65.5192, 0, 0, 0, 0.0283203, 0.297852, -9.74902, 1.12.2022 16:21:15.849
987, 1.81438, 0.127636, 65.5192, -0.000976562, -0.000976562, 0, -0.0810547, 0.316406, -9.73535, 1.12.2022 16:21:15.857
988, 1.81438, 0.127636, 65.5192, -0.000976562, -0.000976562, -0.000976562, 0.00976562, 0.294922, -9.71875, 1.12.2022 16:21:15.865
989, 1.81438, 0.127636, 65.5192, -0.000976562, -0.000976562, -0.000976562, 0.00683594, 0.317383, -9.75586, 1.12.2022 16:21:15.873
990, 1.81438, 0.127636, 65.5192, 0, -0.000976562, 0, -0.0576172, 0.325195, -9.76855, 1.12.2022 16:21:15.881
991, 1.81438, 0.127636, 65.5192, -0.000976562, -0.000976562, 0, 0.0263672, 0.290039, -9.73535, 1.12.2022 16:21:15.889
992, 1.81438, 0.127636, 65.5192, -0.000976562, 0, 0, -0.0410156, 0.302734, -9.75781, 1.12.2022 16:21:15.897
993, 1.81438, 0.127636, 65.5192, 0, -0.000976562, 0, -0.0400391, 0.324219, -9.75488, 1.12.2022 16:21:15.905
994, 1.81438, 0.127636, 65.5192, -0.000976562, -0.000976562, -0.000976562, 0.0234375, 0.305664, -9.75391, 1.12.2022 16:21:15.913
995, 1.81438, 0.127636, 65.5192, -0.000976562, -0.000976562, -0.000976562, -0.0595703, 0.305664, -9.75293, 1.12.2022 16:21:15.921
996, 1.81438, 0.127636, 65.5192, -0.000976562, 0, 0, -0.00976562, 0.300781, -9.75391, 1.12.2022 16:21:15.929
997, 1.82026, 0.13142, 65.5191, -0.000976562, 0, -0.000976562, -0.0117188, 0.295898, -9.76758, 1.12.2022 16:21:15.937
998, 1.82026, 0.13142, 65.5191, -0.000976562, 0, 0, -0.0546875, 0.333984, -9.75391, 1.12.2022 16:21:15.945
999, 1.82026, 0.13142, 65.5191, 0, -0.000976562, 0, 0.0224609, 0.298828, -9.71582, 1.12.2022 16:21:15.953
1000, 1.82026, 0.13142, 65.5191, 0, -0.000976562, 0, -0.0400391, 0.292969, -9.74414, 1.12.2022 16:21:15.961
1001, 1.82026, 0.13142, 65.5191, 0, 0, 0, -0.0498047, 0.286133, -9.7627, 1.12.2022 16:21:15.969
1002, 1.82026, 0.13142, 65.5191, 0, -0.000976562, -0.000976562, 0.0351562, 0.300781, -9.77539, 1.12.2022 16:21:15.977
1003, 1.82026, 0.13142, 65.5191, 0, -0.000976562, -0.000976562, -0.0410156, 0.3125, -9.76953, 1.12.2022 16:21:15.985
1004, 1.81438, 0.127636, 65.5192, 0, -0.000976562, 0, -0.0263672, 0.299805, -9.74121, 1.12.2022 16:21:15.993
1005, 1.81438, 0.127636, 65.5192, 0, -0.000976562, -0.000976562, -0.00976562, 0.269531, -9.75, 1.12.2022 16:21:16.001
1006, 1.81438, 0.127636, 65.5192, 0, -0.000976562, 0, -0.0810547, 0.30957, -9.73535, 1.12.2022 16:21:16.009
1007, 1.81438, 0.127636, 65.5192, -0.000976562, -0.000976562, 0, 0.00488281, 0.290039, -9.74023, 1.12.2022 16:21:16.017
1008, 1.81438, 0.127636, 65.5192, 0, -0.000976562, 0, -0.046875, 0.288086, -9.72949, 1.12.2022 16:21:16.025
1009, 1.81438, 0.127636, 65.5192, -0.000976562, -0.000976562, 0, -0.0341797, 0.323242, -9.79004, 1.12.2022 16:21:16.033
1010, 1.81438, 0.127636, 65.5192, 0, -0.000976562, 0, 0.0214844, 0.295898, -9.77539, 1.12.2022 16:21:16.041
1011, 1.81438, 0.127636, 65.5192, 0, -0.000976562, 0, -0.0292969, 0.328125, -9.79297, 1.12.2022 16:21:16.049
1012, 1.8106, 0.133517, 65.5192, -0.000976562, -0.000976562, 0, -0.0214844, 0.329102, -9.73633, 1.12.2022 16:21:16.057
1013, 1.8106, 0.133517, 65.5192, 0, 0, 0, 0.0166016, 0.326172, -9.73926, 1.12.2022 16:21:16.065
1014, 1.8106, 0.133517, 65.5192, -0.000976562, -0.000976562, 0.000976562, -0.0546875, 0.321289, -9.72656, 1.12.2022 16:21:16.073
1015, 1.8106, 0.133517, 65.5192, 0, 0, 0.000976562, 0.0195312, 0.30957, -9.75586, 1.12.2022 16:21:16.081
1016, 1.8106, 0.133517, 65.5192, 0, 0, 0.000976562, -0.00683594, 0.317383, -9.75098, 1.12.2022 16:21:16.089
1017, 1.8106, 0.133517, 65.5192, 0, 0, -0.000976562, -0.0527344, 0.320312, -9.78516, 1.12.2022 16:21:16.097
1018, 1.8106, 0.133517, 65.5192, 0, -0.000976562, 0, 0.0185547, 0.291016, -9.76855, 1.12.2022 16:21:16.105
1019, 1.81078, 0.133419, 65.5168, -0.000976562, -0.000976562, 0, -0.0664062, 0.338867, -9.74219, 1.12.2022 16:21:16.113
1020, 1.8106, 0.133517, 65.5192, 0, -0.000976562, -0.000976562, -0.0234375, 0.314453, -9.73438, 1.12.2022 16:21:16.121
1021, 1.81438, 0.127636, 65.5192, -0.000976562, 0, 0, 0.00488281, 0.257812, -9.75684, 1.12.2022 16:21:16.129
1022, 1.81456, 0.127539, 65.5168, 0, 0, 0, -0.0712891, 0.317383, -9.77051, 1.12.2022 16:21:16.137
1023, 1.81456, 0.127539, 65.5168, -0.000976562, 0, 0, 0.0214844, 0.336914, -9.7832, 1.12.2022 16:21:16.145
1024, 1.81456, 0.127539, 65.5168, 0, 0, -0.000976562, -0.0283203, 0.299805, -9.71973, 1.12.2022 16:21:16.153
1025, 1.80869, 0.123755, 65.5169, -0.000976562, 0, 0, -0.0458984, 0.34668, -9.78711, 1.12.2022 16:21:16.161
1026, 1.80869, 0.123755, 65.5169, -0.000976562, 0, 0.000976562, 0.0234375, 0.282227, -9.77148, 1.12.2022 16:21:16.169
1027, 1.80869, 0.123755, 65.5169, 0, -0.000976562, 0.000976562, -0.0449219, 0.297852, -9.74316, 1.12.2022 16:21:16.177
1028, 1.80869, 0.123755, 65.5169, 0, -0.000976562, 0, -0.015625, 0.306641, -9.80762, 1.12.2022 16:21:16.185
1029, 1.80869, 0.123755, 65.5169, 0, 0, -0.00195312, 0.0361328, 0.273438, -9.74512, 1.12.2022 16:21:16.193
1030, 1.80869, 0.123755, 65.5169, -0.000976562, 0, 0, -0.0957031, 0.320312, -9.76562, 1.12.2022 16:21:16.201
1031, 1.80869, 0.123755, 65.5169, -0.000976562, -0.000976562, -0.00195312, -0.00195312, 0.321289, -9.73145, 1.12.2022 16:21:16.209
1032, 1.80869, 0.123755, 65.5169, -0.000976562, -0.000976562, -0.00195312, -0.0146484, 0.319336, -9.75293, 1.12.2022 16:21:16.217
1033, 1.80869, 0.123755, 65.5169, -0.00195312, 0, 0, -0.0585938, 0.318359, -9.70996, 1.12.2022 16:21:16.225
1034, 1.81456, 0.127539, 65.5168, -0.000976562, -0.000976562, 0, 0.0332031, 0.279297, -9.75977, 1.12.2022 16:21:16.233
1035, 1.80869, 0.123755, 65.5169, 0, 0, -0.00195312, -0.0576172, 0.294922, -9.79492, 1.12.2022 16:21:16.241
1036, 1.8085, 0.123852, 65.5194, -0.000976562, -0.000976562, 0, -0.046875, 0.294922, -9.73145, 1.12.2022 16:21:16.249
1037, 1.8085, 0.123852, 65.5194, 0, 0, 0, 0.00683594, 0.298828, -9.77734, 1.12.2022 16:21:16.257
1038, 1.8085, 0.123852, 65.5194, 0, -0.000976562, 0, -0.0673828, 0.296875, -9.79297, 1.12.2022 16:21:16.265
1039, 1.8085, 0.123852, 65.5194, -0.000976562, -0.000976562, 0, -0.0146484, 0.338867, -9.75977, 1.12.2022 16:21:16.273
1040, 1.8085, 0.123852, 65.5194, -0.000976562, 0, -0.000976562, -0.0166016, 0.280273, -9.72363, 1.12.2022 16:21:16.281
1041, 1.8085, 0.123852, 65.5194, -0.000976562, -0.000976562, 0, -0.0908203, 0.317383, -9.75684, 1.12.2022 16:21:16.289
1042, 1.8085, 0.123852, 65.5194, -0.000976562, 0, -0.000976562, 0.00195312, 0.308594, -9.78418, 1.12.2022 16:21:16.297
1043, 1.81228, 0.117971, 65.5194, -0.000976562, 0, 0, -0.0644531, 0.308594, -9.77148, 1.12.2022 16:21:16.305
1044, 1.81228, 0.117971, 65.5194, -0.000976562, 0, -0.000976562, -0.0449219, 0.317383, -9.74316, 1.12.2022 16:21:16.313
1045, 1.8085, 0.123852, 65.5194, 0, -0.000976562, -0.00195312, 0.00488281, 0.271484, -9.75684, 1.12.2022 16:21:16.321
1046, 1.8085, 0.123852, 65.5194, 0, -0.000976562, 0, -0.0712891, 0.319336, -9.75391, 1.12.2022 16:21:16.329
1047, 1.8085, 0.123852, 65.5194, 0, 0, -0.00195312, -0.0146484, 0.31543, -9.76465, 1.12.2022 16:21:16.337
1048, 1.8085, 0.123852, 65.5194, -0.000976562, -0.000976562, 0, -0.00878906, 0.301758, -9.72754, 1.12.2022 16:21:16.345
1049, 1.81438, 0.127636, 65.5192, 0, -0.000976562, 0, -0.0878906, 0.335938, -9.74609, 1.12.2022 16:21:16.353
1050, 1.81438, 0.127636, 65.5192, 0, 0, 0, -0.00195312, 0.296875, -9.7207, 1.12.2022 16:21:16.361
1051, 1.81438, 0.127636, 65.5192, -0.000976562, 0, 0, -0.0205078, 0.291992, -9.71777, 1.12.2022 16:21:16.369
1052, 1.81438, 0.127636, 65.5192, 0, 0, 0, -0.0703125, 0.323242, -9.79688, 1.12.2022 16:21:16.377
1053, 1.81438, 0.127636, 65.5192, 0, 0, 0, 0.0185547, 0.279297, -9.7666, 1.12.2022 16:21:16.385
1054, 1.81438, 0.127636, 65.5192, 0, 0, 0, -0.0839844, 0.318359, -9.79199, 1.12.2022 16:21:16.393
1055, 1.81438, 0.127636, 65.5192, 0, -0.000976562, 0, -0.0205078, 0.34082, -9.81836, 1.12.2022 16:21:16.401
1056, 1.8106, 0.133517, 65.5192, 0, 0, 0, 0.0185547, 0.274414, -9.77832, 1.12.2022 16:21:16.409
1057, 1.8106, 0.133517, 65.5192, 0, -0.000976562, 0, -0.0742188, 0.318359, -9.77832, 1.12.2022 16:21:16.417
1058, 1.8106, 0.133517, 65.5192, -0.000976562, -0.000976562, 0, 0.00683594, 0.317383, -9.76074, 1.12.2022 16:21:16.425
1059, 1.8106, 0.133517, 65.5192, -0.000976562, 0, -0.000976562, -0.0361328, 0.305664, -9.7666, 1.12.2022 16:21:16.433
1060, 1.8106, 0.133517, 65.5192, 0, 0, 0, -0.0517578, 0.321289, -9.74316, 1.12.2022 16:21:16.441
1061, 1.8106, 0.133517, 65.5192, -0.000976562, -0.000976562, -0.000976562, 0.0117188, 0.303711, -9.78418, 1.12.2022 16:21:16.449
1062, 1.8106, 0.133517, 65.5192, 0, -0.000976562, -0.000976562, -0.0546875, 0.302734, -9.73145, 1.12.2022 16:21:16.457
1063, 1.80681, 0.139397, 65.5191, 0, -0.000976562, 0, -0.0263672, 0.286133, -9.76758, 1.12.2022 16:21:16.465
1064, 1.80681, 0.139397, 65.5191, 0, 0, 0, -0.00292969, 0.298828, -9.76758, 1.12.2022 16:21:16.473
1065, 1.80681, 0.139397, 65.5191, 0, -0.000976562, 0, -0.0644531, 0.330078, -9.76562, 1.12.2022 16:21:16.479
1066, 1.80681, 0.139397, 65.5191, -0.000976562, -0.000976562, 0, 0.00683594, 0.277344, -9.79004, 1.12.2022 16:21:16.489
1067, 1.80681, 0.139397, 65.5191, -0.000976562, 0, -0.000976562, -0.0400391, 0.306641, -9.72656, 1.12.2022 16:21:16.495
