Seq, Rot x, Rot y, Rot z, Vel x, Vel y, Vel z, Acc x, Acc y, Acc z, Time(m.d.y h:m:s.ms)
0, 1.98964, 0.850087, 251.282, -0.00292969, 0, 0, -0.145508, 0.339844, -9.78125, 12.10.2021 14:32:57.454
1, 1.98964, 0.850087, 251.282, -0.00292969, 0, 0, -0.120117, 0.328125, -9.78418, 12.10.2021 14:32:57.461
2, 1.98964, 0.850087, 251.282, -0.00195312, 0, 0, -0.205078, 0.34668, -9.77539, 12.10.2021 14:32:57.469
3, 1.98964, 0.850087, 251.282, -0.00195312, 0, 0, -0.0888672, 0.323242, -9.79883, 12.10.2021 14:32:57.477
4, 1.98964, 0.850087, 251.282, -0.00195312, 0.000976562, 0, -0.133789, 0.304688, -9.7959, 12.10.2021 14:32:57.485
5, 1.98964, 0.850087, 251.282, -0.00195312, 0.000976562, -0.000976562, -0.150391, 0.316406, -9.78418, 12.10.2021 14:32:57.493
6, 1.98964, 0.850087, 251.282, -0.00292969, 0, 0, -0.0888672, 0.320312, -9.77539, 12.10.2021 14:32:57.501
7, 1.98964, 0.850087, 251.282, -0.00195312, 0.000976562, 0, -0.143555, 0.320312, -9.78125, 12.10.2021 14:32:57.509
8, 1.98964, 0.850087, 251.282, -0.00195312, 0.000976562, -0.000976562, -0.163086, 0.333008, -9.78516, 12.10.2021 14:32:57.517
9, 1.98964, 0.850087, 251.282, -0.00195312, 0, 0, -0.102539, 0.276367, -9.74316, 12.10.2021 14:32:57.525
10, 1.99397, 0.844274, 251.273, -0.00292969, 0, 0.000976562, -0.191406, 0.334961, -9.77051, 12.10.2021 14:32:57.533
11, 1.99397, 0.844274, 251.273, -0.00292969, 0.000976562, 0, -0.136719, 0.34082, -9.80957, 12.10.2021 14:32:57.541
12, 1.99397, 0.844274, 251.273, -0.00292969, 0.000976562, -0.000976562, -0.118164, 0.314453, -9.80566, 12.10.2021 14:32:57.549
13, 1.99397, 0.844274, 251.273, -0.00195312, 0, -0.000976562, -0.167969, 0.316406, -9.79102, 12.10.2021 14:32:57.557
14, 1.99397, 0.844274, 251.273, -0.00292969, 0.000976562, 0, -0.0966797, 0.323242, -9.80566, 12.10.2021 14:32:57.565
15, 1.99965, 0.84835, 251.273, -0.00195312, 0, 0, -0.163086, 0.319336, -9.81934, 12.10.2021 14:32:57.573
16, 1.99965, 0.84835, 251.273, -0.00292969, 0, 0, -0.160156, 0.330078, -9.78809, 12.10.2021 14:32:57.581
17, 1.99965, 0.84835, 251.273, -0.00390625, 0.000976562, -0.000976562, -0.0917969, 0.3125, -9.83691, 12.10.2021 14:32:57.589
18, 2.00372, 0.842667, 251.273, -0.00292969, 0.000976562, -0.000976562, -0.171875, 0.334961, -9.77344, 12.10.2021 14:32:57.597
19, 2.00372, 0.842667, 251.273, -0.00292969, 0, 0, -0.138672, 0.349609, -9.79004, 12.10.2021 14:32:57.605
20, 2.00372, 0.842667, 251.273, -0.00292969, 0.000976562, 0, -0.126953, 0.320312, -9.77441, 12.10.2021 14:32:57.613
21, 2.00372, 0.842667, 251.273, -0.00292969, 0.000976562, 0, -0.195312, 0.332031, -9.76855, 12.10.2021 14:32:57.621
22, 2.00372, 0.842667, 251.273, -0.00292969, 0.00195312, 0, -0.0976562, 0.310547, -9.77539, 12.10.2021 14:32:57.629
23, 2.00372, 0.842667, 251.273, -0.00292969, 0.000976562, 0, -0.163086, 0.314453, -9.81445, 12.10.2021 14:32:57.637
24, 2.00372, 0.842667, 251.273, -0.000976562, 0.00195312, 0.000976562, -0.162109, 0.341797, -9.7666, 12.10.2021 14:32:57.645
25, 2.00779, 0.836983, 251.273, -0.00292969, 0.000976562, 0, -0.0380859, 0.314453, -9.74512, 12.10.2021 14:32:57.653
26, 2.00779, 0.836983, 251.273, -0.00292969, 0, 0, -0.176758, 0.310547, -9.7666, 12.10.2021 14:32:57.661
27, 2.00779, 0.836983, 251.273, -0.00292969, 0, 0, -0.148438, 0.319336, -9.80469, 12.10.2021 14:32:57.669
28, 2.00779, 0.836983, 251.273, -0.00292969, 0.000976562, 0, -0.113281, 0.283203, -9.80664, 12.10.2021 14:32:57.677
29, 2.00779, 0.836983, 251.273, -0.00292969, -0.000976562, 0, -0.19043, 0.371094, -9.85449, 12.10.2021 14:32:57.685
30, 2.00779, 0.836983, 251.273, -0.00195312, 0, 0, -0.0800781, 0.329102, -9.81543, 12.10.2021 14:32:57.693
31, 1.91765, 0.806735, 251.273, 0, -0.000976562, 0, -0.120117, 0.334961, -9.78418, 12.10.2021 14:32:57.701
32, 1.89629, 0.800164, 251.274, -0.000976562, -0.000976562, 0, -0.18457, 0.34375, -9.82227, 12.10.2021 14:32:57.709
33, 1.89629, 0.800164, 251.274, -0.000976562, -0.000976562, 0, -0.100586, 0.301758, -9.80664, 12.10.2021 14:32:57.717
34, 1.89629, 0.800164, 251.274, -0.000976562, 0, 0.000976562, -0.135742, 0.31543, -9.76758, 12.10.2021 14:32:57.725
35, 1.89629, 0.800164, 251.274, -0.000976562, 0, 0.000976562, -0.151367, 0.357422, -9.79883, 12.10.2021 14:32:57.733
36, 1.89629, 0.800164, 251.274, -0.00195312, 0.000976562, 0, -0.100586, 0.301758, -9.78516, 12.10.2021 14:32:57.741
37, 1.89629, 0.800164, 251.274, -0.00195312, 0, 0, -0.182617, 0.338867, -9.83008, 12.10.2021 14:32:57.749
38, 1.89629, 0.800164, 251.274, -0.000976562, -0.000976562, 0, -0.133789, 0.318359, -9.78418, 12.10.2021 14:32:57.757
39, 1.89629, 0.800164, 251.274, -0.000976562, -0.00195312, 0, -0.128906, 0.298828, -9.78027, 12.10.2021 14:32:57.765
40, 1.89629, 0.800164, 251.274, -0.000976562, -0.000976562, 0, -0.193359, 0.330078, -9.76855, 12.10.2021 14:32:57.773
41, 1.89221, 0.805848, 251.274, 0, -0.000976562, -0.000976562, -0.0888672, 0.313477, -9.78223, 12.10.2021 14:32:57.781
42, 1.89221, 0.805848, 251.274, 0, -0.000976562, 0, -0.131836, 0.328125, -9.77637, 12.10.2021 14:32:57.789
43, 1.89221, 0.805848, 251.274, -0.000976562, -0.000976562, 0, -0.15332, 0.352539, -9.79492, 12.10.2021 14:32:57.797
44, 1.89221, 0.805848, 251.274, 0, -0.000976562, 0.000976562, -0.0820312, 0.318359, -9.80176, 12.10.2021 14:32:57.805
45, 1.89221, 0.805848, 251.274, 0, -0.000976562, 0, -0.15332, 0.337891, -9.79004, 12.10.2021 14:32:57.813
46, 1.89221, 0.805848, 251.274, 0, -0.000976562, 0, -0.133789, 0.333008, -9.7793, 12.10.2021 14:32:57.821
47, 1.89221, 0.805848, 251.274, 0, -0.000976562, -0.000976562, -0.105469, 0.294922, -9.80859, 12.10.2021 14:32:57.829
48, 1.89221, 0.805848, 251.274, -0.000976562, -0.000976562, 0, -0.205078, 0.316406, -9.78516, 12.10.2021 14:32:57.837
49, 1.89221, 0.805848, 251.274, -0.000976562, -0.00195312, 0, -0.108398, 0.318359, -9.80078, 12.10.2021 14:32:57.845
50, 1.89221, 0.805848, 251.274, -0.00195312, -0.000976562, -0.000976562, -0.120117, 0.327148, -9.82422, 12.10.2021 14:32:57.853
51, 1.89221, 0.805848, 251.274, 0, -0.000976562, -0.000976562, -0.163086, 0.352539, -9.80664, 12.10.2021 14:32:57.861
52, 1.89629, 0.800164, 251.274, -0.00195312, 0, 0, -0.0957031, 0.333008, -9.79102, 12.10.2021 14:32:57.869
53, 1.89629, 0.800164, 251.274, -0.000976562, -0.000976562, 0, -0.152344, 0.3125, -9.76074, 12.10.2021 14:32:57.877
54, 1.89629, 0.800164, 251.274, -0.00195312, -0.00195312, -0.000976562, -0.155273, 0.341797, -9.76367, 12.10.2021 14:32:57.885
55, 1.89629, 0.800164, 251.274, -0.000976562, -0.00195312, 0, -0.105469, 0.298828, -9.78711, 12.10.2021 14:32:57.893
56, 1.89629, 0.800164, 251.274, 0, 0, 0, -0.179688, 0.321289, -9.79297, 12.10.2021 14:32:57.901
57, 1.89629, 0.800164, 251.274, -0.000976562, 0, -0.000976562, -0.139648, 0.333984, -9.82617, 12.10.2021 14:32:57.909
58, 1.89629, 0.800164, 251.274, -0.000976562, 0, 0, -0.145508, 0.289062, -9.76855, 12.10.2021 14:32:57.917
59, 1.89221, 0.805848, 251.274, -0.000976562, -0.000976562, 0, -0.186523, 0.34375, -9.81836, 12.10.2021 14:32:57.925
60, 1.89221, 0.805848, 251.274, -0.000976562, 0, 0, -0.0859375, 0.295898, -9.77148, 12.10.2021 14:32:57.933
61, 1.89221, 0.805848, 251.274, 0, -0.000976562, 0, -0.15332, 0.328125, -9.78809, 12.10.2021 14:32:57.941
62, 1.89221, 0.805848, 251.274, -0.00195312, 0, 0, -0.169922, 0.318359, -9.76953, 12.10.2021 14:32:57.949
63, 1.89221, 0.805848, 251.274, -0.000976562, 0, 0, -0.107422, 0.303711, -9.77734, 12.10.2021 14:32:57.957
64, 1.89221, 0.805848, 251.274, 0, -0.000976562, 0, -0.171875, 0.31543, -9.76465, 12.10.2021 14:32:57.965
65, 1.89221, 0.805848, 251.274, 0, -0.000976562, -0.00195312, -0.141602, 0.321289, -9.79297, 12.10.2021 14:32:57.973
66, 1.89221, 0.805848, 251.274, -0.000976562, -0.000976562, 0, -0.0742188, 0.318359, -9.79395, 12.10.2021 14:32:57.981
67, 1.88814, 0.811532, 251.274, -0.000976562, 0, -0.000976562, -0.191406, 0.324219, -9.7998, 12.10.2021 14:32:57.989
68, 1.88839, 0.811559, 251.272, -0.000976562, 0, -0.000976562, -0.120117, 0.313477, -9.79395, 12.10.2021 14:32:57.997
69, 1.88839, 0.811559, 251.272, -0.000976562, -0.000976562, 0, -0.12207, 0.319336, -9.80566, 12.10.2021 14:32:58.005
70, 1.88839, 0.811559, 251.272, 0, 0, 0, -0.155273, 0.328125, -9.79297, 12.10.2021 14:32:58.013
71, 1.88271, 0.807483, 251.272, -0.000976562, 0, 0.000976562, -0.0791016, 0.333984, -9.75879, 12.10.2021 14:32:58.021
72, 1.88246, 0.807456, 251.274, -0.000976562, 0, 0, -0.167969, 0.337891, -9.80664, 12.10.2021 14:32:58.029
73, 1.88246, 0.807456, 251.274, -0.00195312, -0.000976562, 0, -0.15332, 0.314453, -9.80273, 12.10.2021 14:32:58.037
74, 1.88246, 0.807456, 251.274, -0.000976562, -0.000976562, 0, -0.09375, 0.287109, -9.77148, 12.10.2021 14:32:58.045
75, 1.88246, 0.807456, 251.274, -0.000976562, 0, 0, -0.18457, 0.354492, -9.79883, 12.10.2021 14:32:58.053
76, 1.88653, 0.801773, 251.274, -0.000976562, 0, 0, -0.150391, 0.337891, -9.78809, 12.10.2021 14:32:58.061
77, 1.88653, 0.801773, 251.274, 0, 0, 0, -0.131836, 0.348633, -9.82324, 12.10.2021 14:32:58.069
78, 1.88653, 0.801773, 251.274, -0.000976562, -0.000976562, 0, -0.171875, 0.347656, -9.79199, 12.10.2021 14:32:58.077
79, 1.89221, 0.805848, 251.274, 0, -0.000976562, 0, -0.0820312, 0.325195, -9.79199, 12.10.2021 14:32:58.085
80, 1.89221, 0.805848, 251.274, -0.000976562, 0, 0, -0.133789, 0.328125, -9.79297, 12.10.2021 14:32:58.093
81, 1.89221, 0.805848, 251.274, -0.000976562, 0, 0, -0.138672, 0.347656, -9.79297, 12.10.2021 14:32:58.101
82, 1.89221, 0.805848, 251.274, -0.000976562, -0.000976562, 0, -0.0888672, 0.327148, -9.77246, 12.10.2021 14:32:58.109
83, 1.89221, 0.805848, 251.274, -0.000976562, -0.000976562, 0, -0.18457, 0.347656, -9.80371, 12.10.2021 14:32:58.117
84, 1.89629, 0.800164, 251.274, -0.000976562, 0.000976562, 0, -0.129883, 0.352539, -9.80664, 12.10.2021 14:32:58.125
85, 1.89629, 0.800164, 251.274, -0.000976562, 0, 0, -0.103516, 0.336914, -9.83105, 12.10.2021 14:32:58.133
86, 1.89629, 0.800164, 251.274, -0.000976562, 0, 0, -0.181641, 0.334961, -9.77832, 12.10.2021 14:32:58.141
87, 1.90197, 0.80424, 251.274, 0, -0.000976562, 0, -0.107422, 0.334961, -9.76758, 12.10.2021 14:32:58.149
88, 1.90604, 0.798556, 251.274, 0, 0, 0, -0.135742, 0.331055, -9.73633, 12.10.2021 14:32:58.157
89, 1.90604, 0.798556, 251.274, 0, -0.000976562, 0, -0.176758, 0.344727, -9.79004, 12.10.2021 14:32:58.165
90, 1.90604, 0.798556, 251.274, -0.000976562, -0.000976562, -0.00195312, -0.107422, 0.313477, -9.77246, 12.10.2021 14:32:58.173
91, 1.90604, 0.798556, 251.274, -0.000976562, -0.000976562, -0.00195312, -0.15625, 0.337891, -9.81152, 12.10.2021 14:32:58.181
92, 1.91197, 0.80266, 251.273, -0.000976562, -0.000976562, 0, -0.15332, 0.361328, -9.77734, 12.10.2021 14:32:58.189
93, 1.91197, 0.80266, 251.273, -0.00292969, -0.000976562, 0, -0.103516, 0.317383, -9.82031, 12.10.2021 14:32:58.197
94, 1.91605, 0.796976, 251.273, -0.00195312, -0.000976562, 0, -0.163086, 0.354492, -9.78711, 12.10.2021 14:32:58.205
95, 1.91605, 0.796976, 251.273, 0, -0.000976562, 0, -0.108398, 0.333008, -9.79785, 12.10.2021 14:32:58.213
96, 1.92173, 0.801052, 251.273, -0.00195312, -0.000976562, 0, -0.115234, 0.34082, -9.7998, 12.10.2021 14:32:58.221
97, 1.92173, 0.801052, 251.273, -0.000976562, -0.000976562, -0.000976562, -0.146484, 0.335938, -9.7998, 12.10.2021 14:32:58.229
98, 1.9258, 0.795369, 251.273, -0.000976562, 0, -0.000976562, -0.0722656, 0.332031, -9.78027, 12.10.2021 14:32:58.237
99, 1.9258, 0.795369, 251.273, -0.000976562, -0.000976562, -0.000976562, -0.139648, 0.331055, -9.80957, 12.10.2021 14:32:58.245
100, 1.9258, 0.795369, 251.273, 0, -0.000976562, -0.000976562, -0.167969, 0.344727, -9.79492, 12.10.2021 14:32:58.253
101, 1.9258, 0.795369, 251.273, 0, -0.000976562, -0.000976562, -0.108398, 0.313477, -9.79395, 12.10.2021 14:32:58.261
102, 1.9258, 0.795369, 251.273, -0.000976562, -0.000976562, 0, -0.194336, 0.337891, -9.80859, 12.10.2021 14:32:58.269
103, 1.92988, 0.789685, 251.273, 0, -0.000976562, 0, -0.0859375, 0.339844, -9.78418, 12.10.2021 14:32:58.277
104, 1.92988, 0.789685, 251.273, 0, -0.00195312, 0, -0.0986328, 0.311523, -9.81348, 12.10.2021 14:32:58.285
105, 1.92988, 0.789685, 251.273, -0.000976562, -0.000976562, 0, -0.179688, 0.335938, -9.81543, 12.10.2021 14:32:58.293
106, 1.92988, 0.789685, 251.273, -0.000976562, -0.000976562, 0, -0.12207, 0.334961, -9.78809, 12.10.2021 14:32:58.301
107, 1.92988, 0.789685, 251.273, -0.00195312, -0.000976562, 0, -0.167969, 0.304688, -9.80078, 12.10.2021 14:32:58.309
108, 1.93556, 0.793761, 251.273, 0, 0, 0, -0.157227, 0.338867, -9.76172, 12.10.2021 14:32:58.317
109, 1.92988, 0.789685, 251.273, 0, -0.000976562, 0, -0.103516, 0.297852, -9.80371, 12.10.2021 14:32:58.323
110, 1.92988, 0.789685, 251.273, 0, -0.000976562, 0.000976562, -0.174805, 0.333008, -9.79492, 12.10.2021 14:32:58.331
111, 1.92988, 0.789685, 251.273, -0.000976562, -0.000976562, 0, -0.140625, 0.330078, -9.77148, 12.10.2021 14:32:58.341
112, 1.92988, 0.789685, 251.273, 0, -0.000976562, 0, -0.0898438, 0.3125, -9.7373, 12.10.2021 14:32:58.349
113, 1.9258, 0.795369, 251.273, -0.000976562, -0.000976562, -0.000976562, -0.172852, 0.333984, -9.83984, 12.10.2021 14:32:58.357
114, 1.9258, 0.795369, 251.273, 0, -0.000976562, 0, -0.109375, 0.322266, -9.74219, 12.10.2021 14:32:58.365
115, 1.9258, 0.795369, 251.273, 0, -0.000976562, -0.000976562, -0.108398, 0.321289, -9.7959, 12.10.2021 14:32:58.373
116, 1.9258, 0.795369, 251.273, -0.000976562, -0.00195312, 0, -0.174805, 0.334961, -9.7832, 12.10.2021 14:32:58.379
117, 1.9258, 0.795369, 251.273, -0.000976562, -0.000976562, 0, -0.108398, 0.319336, -9.81055, 12.10.2021 14:32:58.387
118, 1.9258, 0.795369, 251.273, -0.000976562, -0.000976562, 0, -0.165039, 0.334961, -9.7832, 12.10.2021 14:32:58.395
119, 1.9258, 0.795369, 251.273, 0, -0.000976562, -0.000976562, -0.143555, 0.323242, -9.7959, 12.10.2021 14:32:58.403
120, 1.9258, 0.795369, 251.273, -0.000976562, -0.000976562, -0.000976562, -0.100586, 0.306641, -9.79883, 12.10.2021 14:32:58.411
121, 1.9258, 0.795369, 251.273, 0, -0.000976562, 0, -0.148438, 0.320312, -9.77148, 12.10.2021 14:32:58.419
122, 1.9258, 0.795369, 251.273, 0, -0.000976562, 0, -0.117188, 0.349609, -9.77832, 12.10.2021 14:32:58.427
123, 1.92012, 0.791293, 251.273, -0.00195312, -0.00195312, 0, -0.12207, 0.308594, -9.78711, 12.10.2021 14:32:58.435
124, 1.92012, 0.791293, 251.273, -0.00195312, -0.000976562, 0, -0.178711, 0.341797, -9.77832, 12.10.2021 14:32:58.443
125, 1.92012, 0.791293, 251.273, 0, -0.000976562, -0.000976562, -0.0839844, 0.316406, -9.79004, 12.10.2021 14:32:58.451
126, 1.92012, 0.791293, 251.273, 0, 0, 0, -0.120117, 0.319336, -9.80762, 12.10.2021 14:32:58.459
127, 1.92012, 0.791293, 251.273, -0.000976562, -0.000976562, 0, -0.160156, 0.332031, -9.77148, 12.10.2021 14:32:58.467
128, 1.92012, 0.791293, 251.273, -0.000976562, -0.000976562, 0, -0.0957031, 0.298828, -9.76855, 12.10.2021 14:32:58.475
129, 1.92012, 0.791293, 251.273, -0.000976562, -0.000976562, 0, -0.165039, 0.305664, -9.76758, 12.10.2021 14:32:58.483
130, 1.92012, 0.791293, 251.273, -0.000976562, -0.000976562, 0.000976562, -0.149414, 0.34082, -9.73828, 12.10.2021 14:32:58.491
131, 1.91444, 0.787218, 251.273, -0.000976562, -0.000976562, 0, -0.105469, 0.328125, -9.80078, 12.10.2021 14:32:58.499
132, 1.91444, 0.787218, 251.273, -0.00195312, -0.000976562, 0, -0.210938, 0.342773, -9.79883, 12.10.2021 14:32:58.507
133, 1.91444, 0.787218, 251.273, -0.000976562, -0.00195312, -0.000976562, -0.0986328, 0.325195, -9.78906, 12.10.2021 14:32:58.515
134, 1.91444, 0.787218, 251.273, -0.000976562, -0.000976562, 0, -0.138672, 0.342773, -9.80664, 12.10.2021 14:32:58.523
135, 1.92012, 0.791293, 251.273, -0.000976562, 0.000976562, 0, -0.158203, 0.34082, -9.79688, 12.10.2021 14:32:58.531
136, 1.91444, 0.787218, 251.273, -0.000976562, -0.000976562, 0, -0.0820312, 0.325195, -9.78906, 12.10.2021 14:32:58.539
137, 1.91444, 0.787218, 251.273, 0, -0.00195312, -0.000976562, -0.161133, 0.327148, -9.82812, 12.10.2021 14:32:58.547
138, 1.92012, 0.791293, 251.273, -0.000976562, -0.000976562, 0, -0.128906, 0.348633, -9.75684, 12.10.2021 14:32:58.555
139, 1.92012, 0.791293, 251.273, -0.000976562, -0.000976562, 0, -0.105469, 0.324219, -9.8125, 12.10.2021 14:32:58.563
140, 1.92012, 0.791293, 251.273, -0.000976562, -0.000976562, 0, -0.172852, 0.350586, -9.81055, 12.10.2021 14:32:58.571
141, 1.92012, 0.791293, 251.273, -0.000976562, -0.000976562, 0, -0.0986328, 0.333984, -9.83105, 12.10.2021 14:32:58.579
142, 1.92012, 0.791293, 251.273, -0.000976562, 0, -0.000976562, -0.12207, 0.318359, -9.78906, 12.10.2021 14:32:58.587
143, 1.92012, 0.791293, 251.273, -0.000976562, -0.000976562, 0, -0.179688, 0.331055, -9.80859, 12.10.2021 14:32:58.595
144, 1.92012, 0.791293, 251.273, -0.000976562, -0.000976562, 0, -0.0791016, 0.311523, -9.80371, 12.10.2021 14:32:58.603
145, 1.92012, 0.791293, 251.273, -0.000976562, -0.000976562, 0, -0.141602, 0.328125, -9.80469, 12.10.2021 14:32:58.611
146, 1.92419, 0.78561, 251.273, -0.000976562, 0.000976562, 0.000976562, -0.158203, 0.337891, -9.80469, 12.10.2021 14:32:58.619
147, 1.92394, 0.78558, 251.274, -0.000976562, 0.000976562, 0, -0.0742188, 0.325195, -9.77051, 12.10.2021 14:32:58.627
148, 1.91826, 0.781505, 251.274, 0, -0.000976562, 0, -0.166016, 0.324219, -9.82617, 12.10.2021 14:32:58.635
149, 1.91826, 0.781505, 251.274, -0.000976562, -0.00195312, 0, -0.12207, 0.31543, -9.77734, 12.10.2021 14:32:58.643
150, 1.91826, 0.781505, 251.274, -0.000976562, -0.000976562, 0, -0.0712891, 0.304688, -9.73828, 12.10.2021 14:32:58.651
151, 1.91826, 0.781505, 251.274, -0.000976562, -0.000976562, 0, -0.183594, 0.351562, -9.78223, 12.10.2021 14:32:58.659
152, 1.91826, 0.781505, 251.274, -0.000976562, -0.00195312, 0, -0.100586, 0.306641, -9.79004, 12.10.2021 14:32:58.667
153, 1.91826, 0.781505, 251.274, -0.000976562, -0.000976562, 0, -0.129883, 0.311523, -9.80273, 12.10.2021 14:32:58.675
154, 1.91826, 0.781505, 251.274, -0.00195312, -0.000976562, 0, -0.181641, 0.358398, -9.77539, 12.10.2021 14:32:58.683
155, 1.92233, 0.775821, 251.274, -0.00195312, -0.00195312, 0, -0.0830078, 0.333984, -9.74414, 12.10.2021 14:32:58.691
156, 1.92233, 0.775821, 251.274, -0.000976562, -0.000976562, 0, -0.149414, 0.34082, -9.82812, 12.10.2021 14:32:58.699
157, 1.92233, 0.775821, 251.274, 0, -0.000976562, 0, -0.160156, 0.342773, -9.80176, 12.10.2021 14:32:58.707
158, 1.92233, 0.775821, 251.274, 0.000976562, -0.000976562, 0, -0.100586, 0.320312, -9.77734, 12.10.2021 14:32:58.715
159, 1.92233, 0.775821, 251.274, 0, -0.000976562, -0.00195312, -0.179688, 0.331055, -9.81641, 12.10.2021 14:32:58.723
160, 1.92233, 0.775821, 251.274, -0.000976562, 0, 0, -0.118164, 0.316406, -9.81543, 12.10.2021 14:32:58.731
161, 1.92233, 0.775821, 251.274, 0, 0, 0, -0.105469, 0.34082, -9.81738, 12.10.2021 14:32:58.739
162, 1.92233, 0.775821, 251.274, 0, 0, 0, -0.174805, 0.349609, -9.78516, 12.10.2021 14:32:58.747
163, 1.92233, 0.775821, 251.274, -0.000976562, 0, 0, -0.09375, 0.324219, -9.81738, 12.10.2021 14:32:58.755
164, 1.92233, 0.775821, 251.274, -0.000976562, -0.00195312, 0.000976562, -0.141602, 0.285156, -9.80176, 12.10.2021 14:32:58.763
165, 1.92233, 0.775821, 251.274, 0, 0, 0, -0.150391, 0.320312, -9.7793, 12.10.2021 14:32:58.771
166, 1.92233, 0.775821, 251.274, -0.000976562, 0, -0.00195312, -0.0820312, 0.301758, -9.80664, 12.10.2021 14:32:58.779
167, 1.91665, 0.771746, 251.274, -0.000976562, 0.000976562, -0.000976562, -0.198242, 0.342773, -9.80566, 12.10.2021 14:32:58.787
168, 1.91665, 0.771746, 251.274, -0.000976562, 0, 0, -0.150391, 0.356445, -9.76855, 12.10.2021 14:32:58.795
169, 1.91665, 0.771746, 251.274, 0, 0, 0, -0.115234, 0.329102, -9.82422, 12.10.2021 14:32:58.803
170, 1.91826, 0.781505, 251.274, -0.000976562, 0, 0, -0.200195, 0.351562, -9.75391, 12.10.2021 14:32:58.811
171, 1.91826, 0.781505, 251.274, -0.000976562, 0.000976562, 0, -0.129883, 0.342773, -9.7998, 12.10.2021 14:32:58.819
172, 1.91826, 0.781505, 251.274, 0, 0, 0, -0.144531, 0.3125, -9.83105, 12.10.2021 14:32:58.827
173, 1.91826, 0.781505, 251.274, -0.00195312, 0, 0, -0.158203, 0.349609, -9.78711, 12.10.2021 14:32:58.835
174, 1.91826, 0.781505, 251.274, -0.00195312, 0, 0, -0.0869141, 0.313477, -9.79883, 12.10.2021 14:32:58.843
175, 1.92394, 0.78558, 251.274, -0.000976562, 0, 0, -0.169922, 0.345703, -9.81836, 12.10.2021 14:32:58.851
176, 1.92394, 0.78558, 251.274, -0.000976562, 0, 0.000976562, -0.126953, 0.347656, -9.79004, 12.10.2021 14:32:58.859
177, 1.92394, 0.78558, 251.274, -0.000976562, 0.000976562, 0, -0.0869141, 0.333984, -9.82715, 12.10.2021 14:32:58.867
178, 1.92394, 0.78558, 251.274, -0.000976562, 0, 0, -0.191406, 0.330078, -9.77051, 12.10.2021 14:32:58.875
179, 1.92394, 0.78558, 251.274, 0, 0.000976562, 0, -0.110352, 0.31543, -9.7793, 12.10.2021 14:32:58.883
180, 1.92394, 0.78558, 251.274, -0.000976562, 0, 0, -0.125, 0.323242, -9.80078, 12.10.2021 14:32:58.891
181, 1.92394, 0.78558, 251.274, 0, 0, 0, -0.206055, 0.354492, -9.80078, 12.10.2021 14:32:58.899
182, 1.92394, 0.78558, 251.274, 0.000976562, 0.000976562, 0.000976562, -0.0869141, 0.322266, -9.82227, 12.10.2021 14:32:58.907
183, 1.92394, 0.78558, 251.274, -0.000976562, 0, 0.000976562, -0.115234, 0.306641, -9.78223, 12.10.2021 14:32:58.915
184, 1.92394, 0.78558, 251.274, -0.000976562, 0, 0, -0.140625, 0.322266, -9.76465, 12.10.2021 14:32:58.923
185, 1.92394, 0.78558, 251.274, -0.000976562, 0, 0, -0.0800781, 0.310547, -9.84375, 12.10.2021 14:32:58.931
186, 1.92394, 0.78558, 251.274, -0.000976562, -0.000976562, 0, -0.164062, 0.313477, -9.86914, 12.10.2021 14:32:58.939
187, 1.92394, 0.78558, 251.274, -0.000976562, 0, -0.00195312, -0.131836, 0.34082, -9.82129, 12.10.2021 14:32:58.947
188, 1.92394, 0.78558, 251.274, 0, 0.000976562, 0, -0.117188, 0.306641, -9.78418, 12.10.2021 14:32:58.955
189, 1.92394, 0.78558, 251.274, -0.000976562, 0, -0.00195312, -0.205078, 0.34668, -9.77246, 12.10.2021 14:32:58.963
190, 1.92394, 0.78558, 251.274, -0.000976562, 0, -0.00195312, -0.09375, 0.316406, -9.78906, 12.10.2021 14:32:58.971
191, 1.92394, 0.78558, 251.274, -0.000976562, -0.000976562, -0.00195312, -0.12207, 0.344727, -9.78613, 12.10.2021 14:32:58.979
192, 1.92394, 0.78558, 251.274, -0.000976562, 0, 0.000976562, -0.181641, 0.344727, -9.79199, 12.10.2021 14:32:58.987
193, 1.92394, 0.78558, 251.274, -0.000976562, -0.000976562, 0, -0.0869141, 0.338867, -9.83105, 12.10.2021 14:32:58.995
194, 1.92394, 0.78558, 251.274, -0.00195312, -0.000976562, 0, -0.161133, 0.329102, -9.81641, 12.10.2021 14:32:59.003
195, 1.92394, 0.78558, 251.274, -0.00195312, -0.000976562, 0, -0.131836, 0.339844, -9.7832, 12.10.2021 14:32:59.011
196, 1.92394, 0.78558, 251.274, -0.000976562, -0.000976562, 0, -0.09375, 0.311523, -9.80176, 12.10.2021 14:32:59.019
197, 1.92394, 0.78558, 251.274, -0.000976562, -0.000976562, 0, -0.176758, 0.349609, -9.78516, 12.10.2021 14:32:59.027
198, 1.92394, 0.78558, 251.274, 0, -0.000976562, 0, -0.107422, 0.316406, -9.79199, 12.10.2021 14:32:59.035
199, 1.92394, 0.78558, 251.274, 0, -0.000976562, 0, -0.124023, 0.311523, -9.78223, 12.10.2021 14:32:59.043
200, 1.92394, 0.78558, 251.274, -0.000976562, -0.00195312, -0.00195312, -0.174805, 0.337891, -9.78027, 12.10.2021 14:32:59.051
201, 1.92394, 0.78558, 251.274, -0.000976562, -0.00195312, 0, -0.0703125, 0.333984, -9.81543, 12.10.2021 14:32:59.059
202, 1.92394, 0.78558, 251.274, 0, -0.00195312, 0, -0.173828, 0.34668, -9.75391, 12.10.2021 14:32:59.067
203, 1.92394, 0.78558, 251.274, 0, -0.00195312, 0, -0.166992, 0.351562, -9.77832, 12.10.2021 14:32:59.075
204, 1.92394, 0.78558, 251.274, -0.000976562, -0.000976562, 0, -0.108398, 0.321289, -9.80762, 12.10.2021 14:32:59.083
205, 1.92394, 0.78558, 251.274, -0.000976562, -0.000976562, -0.00195312, -0.198242, 0.335938, -9.79199, 12.10.2021 14:32:59.091
206, 1.92394, 0.78558, 251.274, -0.000976562, -0.000976562, -0.00195312, -0.105469, 0.353516, -9.77637, 12.10.2021 14:32:59.099
207, 1.92962, 0.789656, 251.274, -0.000976562, -0.000976562, 0, -0.115234, 0.331055, -9.80762, 12.10.2021 14:32:59.107
208, 1.92962, 0.789656, 251.274, -0.00195312, -0.000976562, 0, -0.194336, 0.324219, -9.82324, 12.10.2021 14:32:59.115
209, 1.92962, 0.789656, 251.274, -0.000976562, -0.000976562, 0, -0.100586, 0.328125, -9.80273, 12.10.2021 14:32:59.123
210, 1.92962, 0.789656, 251.274, -0.000976562, 0, 0, -0.128906, 0.277344, -9.78711, 12.10.2021 14:32:59.131
211, 1.92962, 0.789656, 251.274, 0, -0.000976562, 0, -0.176758, 0.313477, -9.78613, 12.10.2021 14:32:59.139
212, 1.92962, 0.789656, 251.274, -0.000976562, -0.000976562, -0.00195312, -0.0673828, 0.333008, -9.78223, 12.10.2021 14:32:59.147
213, 1.92988, 0.789685, 251.273, -0.000976562, -0.000976562, 0, -0.163086, 0.345703, -9.81836, 12.10.2021 14:32:59.155
214, 1.92962, 0.789656, 251.274, 0, -0.000976562, 0, -0.150391, 0.342773, -9.79492, 12.10.2021 14:32:59.163
215, 1.92962, 0.789656, 251.274, 0, 0, 0, -0.0888672, 0.296875, -9.80176, 12.10.2021 14:32:59.171
216, 1.92962, 0.789656, 251.274, 0, -0.000976562, 0.000976562, -0.178711, 0.348633, -9.75684, 12.10.2021 14:32:59.179
217, 1.92962, 0.789656, 251.274, -0.000976562, -0.00195312, 0, -0.0957031, 0.329102, -9.76074, 12.10.2021 14:32:59.187
218, 1.92962, 0.789656, 251.274, -0.000976562, -0.000976562, -0.00195312, -0.110352, 0.339844, -9.79785, 12.10.2021 14:32:59.195
219, 1.92962, 0.789656, 251.274, -0.000976562, -0.000976562, 0, -0.160156, 0.334961, -9.77832, 12.10.2021 14:32:59.203
220, 1.92962, 0.789656, 251.274, -0.00195312, -0.000976562, 0, -0.112305, 0.351562, -9.77637, 12.10.2021 14:32:59.211
221, 1.92962, 0.789656, 251.274, -0.000976562, -0.000976562, 0, -0.138672, 0.301758, -9.77539, 12.10.2021 14:32:59.219
222, 1.92962, 0.789656, 251.274, -0.000976562, -0.000976562, 0, -0.134766, 0.347656, -9.81348, 12.10.2021 14:32:59.227
223, 1.92394, 0.78558, 251.274, -0.000976562, 0, 0, -0.0869141, 0.311523, -9.80176, 12.10.2021 14:32:59.235
224, 1.92962, 0.789656, 251.274, -0.00195312, 0, 0, -0.188477, 0.354492, -9.78711, 12.10.2021 14:32:59.243
225, 1.92988, 0.789685, 251.273, -0.000976562, 0, -0.00292969, -0.124023, 0.339844, -9.78613, 12.10.2021 14:32:59.251
226, 1.92988, 0.789685, 251.273, 0, 0.000976562, -0.000976562, -0.134766, 0.319336, -9.8125, 12.10.2021 14:32:59.259
227, 1.92988, 0.789685, 251.273, 0, 0, 0, -0.204102, 0.34375, -9.81543, 12.10.2021 14:32:59.267
228, 1.92988, 0.789685, 251.273, 0, 0.000976562, 0, -0.129883, 0.321289, -9.81738, 12.10.2021 14:32:59.275
229, 1.92988, 0.789685, 251.273, 0, 0, 0, -0.133789, 0.328125, -9.78809, 12.10.2021 14:32:59.283
230, 1.92988, 0.789685, 251.273, 0, -0.00195312, 0, -0.176758, 0.34668, -9.76855, 12.10.2021 14:32:59.291
231, 1.92988, 0.789685, 251.273, 0, -0.00195312, 0, -0.100586, 0.296875, -9.77148, 12.10.2021 14:32:59.299
232, 1.92988, 0.789685, 251.273, 0, 0.000976562, -0.000976562, -0.158203, 0.34375, -9.82031, 12.10.2021 14:32:59.307
233, 1.92988, 0.789685, 251.273, 0, 0.000976562, -0.000976562, -0.136719, 0.328125, -9.80273, 12.10.2021 14:32:59.315
234, 1.92988, 0.789685, 251.273, -0.000976562, 0.000976562, -0.000976562, -0.105469, 0.30957, -9.80078, 12.10.2021 14:32:59.323
235, 1.92988, 0.789685, 251.273, -0.000976562, 0.000976562, 0, -0.186523, 0.341797, -9.77344, 12.10.2021 14:32:59.331
236, 1.9258, 0.795369, 251.273, 0, 0, -0.00195312, -0.12207, 0.337891, -9.80469, 12.10.2021 14:32:59.339
237, 1.9258, 0.795369, 251.273, 0, 0, 0, -0.138672, 0.328125, -9.7832, 12.10.2021 14:32:59.347
238, 1.9258, 0.795369, 251.273, -0.000976562, 0, 0, -0.178711, 0.341797, -9.74707, 12.10.2021 14:32:59.353
239, 1.9258, 0.795369, 251.273, -0.000976562, 0, 0, -0.0742188, 0.326172, -9.79395, 12.10.2021 14:32:59.361
240, 1.9258, 0.795369, 251.273, -0.000976562, 0, 0, -0.143555, 0.328125, -9.77441, 12.10.2021 14:32:59.369
241, 1.9258, 0.795369, 251.273, -0.000976562, -0.00195312, 0, -0.151367, 0.319336, -9.8125, 12.10.2021 14:32:59.377
242, 1.9258, 0.795369, 251.273, -0.000976562, 0.000976562, -0.000976562, -0.108398, 0.31543, -9.83691, 12.10.2021 14:32:59.385
243, 1.9258, 0.795369, 251.273, -0.00195312, 0.000976562, 0.000976562, -0.203125, 0.342773, -9.78418, 12.10.2021 14:32:59.393
244, 1.9258, 0.795369, 251.273, -0.000976562, 0, 0, -0.133789, 0.321289, -9.79102, 12.10.2021 14:32:59.401
245, 1.9258, 0.795369, 251.273, -0.000976562, 0.000976562, -0.000976562, -0.103516, 0.304688, -9.81348, 12.10.2021 14:32:59.409
246, 1.9258, 0.795369, 251.273, -0.000976562, 0, 0, -0.179688, 0.338867, -9.81543, 12.10.2021 14:32:59.417
247, 1.9258, 0.795369, 251.273, 0, 0, 0, -0.112305, 0.311523, -9.78711, 12.10.2021 14:32:59.425
248, 1.92173, 0.801052, 251.273, -0.000976562, 0, 0, -0.136719, 0.314453, -9.82617, 12.10.2021 14:32:59.433
249, 1.92173, 0.801052, 251.273, 0, 0, 0, -0.173828, 0.363281, -9.76074, 12.10.2021 14:32:59.441
250, 1.92173, 0.801052, 251.273, 0, 0, -0.00195312, -0.0693359, 0.323242, -9.79395, 12.10.2021 14:32:59.449
251, 1.92173, 0.801052, 251.273, -0.000976562, 0, 0, -0.176758, 0.349609, -9.77734, 12.10.2021 14:32:59.457
252, 1.92173, 0.801052, 251.273, -0.000976562, 0.000976562, 0, -0.145508, 0.351562, -9.78809, 12.10.2021 14:32:59.465
253, 1.92173, 0.801052, 251.273, -0.000976562, 0, 0, -0.0917969, 0.311523, -9.80371, 12.10.2021 14:32:59.473
254, 1.92173, 0.801052, 251.273, -0.000976562, 0, -0.000976562, -0.183594, 0.330078, -9.77539, 12.10.2021 14:32:59.481
255, 1.92173, 0.801052, 251.273, -0.00195312, 0, -0.000976562, -0.131836, 0.319336, -9.81738, 12.10.2021 14:32:59.489
256, 1.92173, 0.801052, 251.273, -0.000976562, 0, 0, -0.131836, 0.333984, -9.81152, 12.10.2021 14:32:59.497
257, 1.92173, 0.801052, 251.273, -0.000976562, -0.000976562, 0, -0.161133, 0.324219, -9.81445, 12.10.2021 14:32:59.505
258, 1.92173, 0.801052, 251.273, -0.000976562, -0.000976562, -0.000976562, -0.110352, 0.296875, -9.78711, 12.10.2021 14:32:59.513
259, 1.92148, 0.801176, 251.282, -0.000976562, -0.000976562, 0, -0.158203, 0.301758, -9.7959, 12.10.2021 14:32:59.521
260, 1.92148, 0.801176, 251.282, -0.000976562, -0.000976562, -0.000976562, -0.143555, 0.306641, -9.78223, 12.10.2021 14:32:59.529
261, 1.92148, 0.801176, 251.282, -0.000976562, -0.000976562, -0.000976562, -0.0625, 0.328125, -9.80566, 12.10.2021 14:32:59.537
262, 1.92148, 0.801176, 251.282, 0, -0.00195312, -0.000976562, -0.179688, 0.349609, -9.79883, 12.10.2021 14:32:59.545
263, 1.92148, 0.801176, 251.282, 0, -0.000976562, 0, -0.115234, 0.329102, -9.81934, 12.10.2021 14:32:59.553
264, 1.92148, 0.801176, 251.282, -0.000976562, -0.000976562, 0, -0.123047, 0.307617, -9.83887, 12.10.2021 14:32:59.561
265, 1.9158, 0.7971, 251.282, -0.000976562, -0.000976562, 0.000976562, -0.179688, 0.337891, -9.80176, 12.10.2021 14:32:59.569
266, 1.91197, 0.80266, 251.273, -0.000976562, -0.00195312, 0.000976562, -0.0888672, 0.299805, -9.79199, 12.10.2021 14:32:59.577
267, 1.91197, 0.80266, 251.273, 0, -0.000976562, 0.000976562, -0.131836, 0.299805, -9.78906, 12.10.2021 14:32:59.585
268, 1.91197, 0.80266, 251.273, 0, 0, 0, -0.176758, 0.333008, -9.78809, 12.10.2021 14:32:59.593
269, 1.91197, 0.80266, 251.273, 0, -0.000976562, 0, -0.115234, 0.331055, -9.79297, 12.10.2021 14:32:59.601
270, 1.91197, 0.80266, 251.273, -0.000976562, -0.00195312, -0.000976562, -0.195312, 0.338867, -9.74512, 12.10.2021 14:32:59.609
271, 1.91197, 0.80266, 251.273, 0, -0.000976562, -0.000976562, -0.143555, 0.349609, -9.77637, 12.10.2021 14:32:59.617
272, 1.91197, 0.80266, 251.273, -0.000976562, -0.000976562, -0.000976562, -0.100586, 0.325195, -9.78418, 12.10.2021 14:32:59.625
273, 1.91197, 0.80266, 251.273, -0.000976562, 0, 0, -0.166992, 0.328125, -9.77832, 12.10.2021 14:32:59.633
274, 1.91197, 0.80266, 251.273, -0.000976562, -0.000976562, 0, -0.113281, 0.34668, -9.84277, 12.10.2021 14:32:59.641
275, 1.91197, 0.80266, 251.273, 0, -0.000976562, 0, -0.126953, 0.34375, -9.81934, 12.10.2021 14:32:59.649
276, 1.91197, 0.80266, 251.273, -0.000976562, -0.000976562, 0, -0.158203, 0.333984, -9.81836, 12.10.2021 14:32:59.657
277, 1.91197, 0.80266, 251.273, -0.000976562, -0.00195312, -0.000976562, -0.0693359, 0.317383, -9.76367, 12.10.2021 14:32:59.665
278, 1.91197, 0.80266, 251.273, 0, -0.00195312, 0, -0.158203, 0.306641, -9.7793, 12.10.2021 14:32:59.673
279, 1.91197, 0.80266, 251.273, 0, 0, 0, -0.138672, 0.34082, -9.7998, 12.10.2021 14:32:59.681
280, 1.91197, 0.80266, 251.273, 0, -0.000976562, 0, -0.101562, 0.331055, -9.81738, 12.10.2021 14:32:59.689
281, 1.91197, 0.80266, 251.273, -0.00195312, 0, 0, -0.171875, 0.341797, -9.76855, 12.10.2021 14:32:59.697
282, 1.91197, 0.80266, 251.273, 0, -0.00195312, 0, -0.128906, 0.323242, -9.77441, 12.10.2021 14:32:59.705
283, 1.91197, 0.80266, 251.273, -0.000976562, -0.00195312, -0.000976562, -0.0917969, 0.306641, -9.80371, 12.10.2021 14:32:59.713
284, 1.91197, 0.80266, 251.273, -0.000976562, -0.000976562, 0, -0.171875, 0.333008, -9.79004, 12.10.2021 14:32:59.721
285, 1.91605, 0.796976, 251.273, -0.000976562, -0.000976562, 0, -0.0742188, 0.304688, -9.79492, 12.10.2021 14:32:59.729
286, 1.91037, 0.792901, 251.273, 0, -0.000976562, 0, -0.143555, 0.323242, -9.79102, 12.10.2021 14:32:59.737
287, 1.91037, 0.792901, 251.273, -0.000976562, 0, 0, -0.155273, 0.351562, -9.77344, 12.10.2021 14:32:59.745
288, 1.91037, 0.792901, 251.273, 0, 0, 0, -0.0957031, 0.337891, -9.80566, 12.10.2021 14:32:59.753
289, 1.91037, 0.792901, 251.273, -0.000976562, 0, 0, -0.158203, 0.329102, -9.80957, 12.10.2021 14:32:59.761
290, 1.91037, 0.792901, 251.273, 0, 0, 0, -0.133789, 0.330078, -9.77441, 12.10.2021 14:32:59.769
291, 1.91037, 0.792901, 251.273, 0, 0.000976562, 0, -0.105469, 0.303711, -9.79004, 12.10.2021 14:32:59.777
292, 1.91037, 0.792901, 251.273, -0.000976562, 0.000976562, 0.000976562, -0.196289, 0.342773, -9.79199, 12.10.2021 14:32:59.785
293, 1.91418, 0.787189, 251.274, -0.000976562, 0.000976562, 0, -0.0722656, 0.301758, -9.80859, 12.10.2021 14:32:59.793
294, 1.9085, 0.783113, 251.274, -0.000976562, 0.000976562, 0, -0.125, 0.292969, -9.81543, 12.10.2021 14:32:59.801
295, 1.9085, 0.783113, 251.274, -0.000976562, 0, 0, -0.178711, 0.336914, -9.77539, 12.10.2021 14:32:59.809
296, 1.9085, 0.783113, 251.274, 0, 0.000976562, 0, -0.100586, 0.326172, -9.80762, 12.10.2021 14:32:59.817
297, 1.9085, 0.783113, 251.274, 0, 0, 0, -0.148438, 0.342773, -9.79688, 12.10.2021 14:32:59.825
298, 1.9085, 0.783113, 251.274, 0, 0.000976562, -0.000976562, -0.150391, 0.331055, -9.79492, 12.10.2021 14:32:59.833
299, 1.9085, 0.783113, 251.274, -0.000976562, 0.000976562, 0, -0.117188, 0.332031, -9.77246, 12.10.2021 14:32:59.841
300, 1.9085, 0.783113, 251.274, 0, 0, 0.000976562, -0.174805, 0.319336, -9.80469, 12.10.2021 14:32:59.849
301, 1.9085, 0.783113, 251.274, 0, 0, -0.000976562, -0.125, 0.347656, -9.79004, 12.10.2021 14:32:59.857
302, 1.9085, 0.783113, 251.274, -0.000976562, 0, -0.000976562, -0.104492, 0.303711, -9.85059, 12.10.2021 14:32:59.865
303, 1.9085, 0.783113, 251.274, -0.000976562, 0.000976562, 0, -0.167969, 0.342773, -9.79199, 12.10.2021 14:32:59.873
304, 1.9085, 0.783113, 251.274, -0.00195312, 0, 0, -0.0888672, 0.294922, -9.81836, 12.10.2021 14:32:59.881
305, 1.9085, 0.783113, 251.274, -0.000976562, -0.00195312, 0, -0.143555, 0.320312, -9.7793, 12.10.2021 14:32:59.889
306, 1.9085, 0.783113, 251.274, -0.000976562, 0, 0, -0.140625, 0.334961, -9.76953, 12.10.2021 14:32:59.897
307, 1.90282, 0.779038, 251.274, -0.000976562, 0, 0, -0.0693359, 0.316406, -9.79199, 12.10.2021 14:32:59.905
308, 1.90282, 0.779038, 251.274, 0, 0, 0.000976562, -0.165039, 0.330078, -9.77832, 12.10.2021 14:32:59.913
309, 1.90282, 0.779038, 251.274, 0, 0.000976562, 0, -0.125, 0.339844, -9.79297, 12.10.2021 14:32:59.921
310, 1.9069, 0.773354, 251.274, 0, 0, 0, -0.100586, 0.323242, -9.80566, 12.10.2021 14:32:59.929
311, 1.9069, 0.773354, 251.274, 0, 0.000976562, 0, -0.193359, 0.347656, -9.78711, 12.10.2021 14:32:59.937
312, 1.9069, 0.773354, 251.274, -0.000976562, 0.000976562, 0, -0.107422, 0.318359, -9.78711, 12.10.2021 14:32:59.945
313, 1.9069, 0.773354, 251.274, 0, 0, 0, -0.141602, 0.299805, -9.79883, 12.10.2021 14:32:59.953
314, 1.9069, 0.773354, 251.274, 0, 0, 0, -0.174805, 0.331055, -9.80664, 12.10.2021 14:32:59.961
315, 1.9069, 0.773354, 251.274, 0, -0.00195312, 0, -0.0693359, 0.286133, -9.76465, 12.10.2021 14:32:59.969
316, 1.90122, 0.769279, 251.274, -0.000976562, 0.000976562, 0, -0.145508, 0.313477, -9.78613, 12.10.2021 14:32:59.977
317, 1.90122, 0.769279, 251.274, 0, 0.000976562, 0.000976562, -0.136719, 0.355469, -9.82324, 12.10.2021 14:32:59.985
318, 1.90122, 0.769279, 251.274, -0.000976562, 0, 0.000976562, -0.09375, 0.317383, -9.82031, 12.10.2021 14:32:59.993
319, 1.90122, 0.769279, 251.274, -0.000976562, -0.000976562, -0.000976562, -0.18457, 0.333008, -9.80371, 12.10.2021 14:33:0.001
320, 1.90122, 0.769279, 251.274, -0.000976562, -0.00195312, -0.000976562, -0.120117, 0.331055, -9.80469, 12.10.2021 14:33:0.009
321, 1.90122, 0.769279, 251.274, -0.000976562, -0.00195312, -0.000976562, -0.0927734, 0.338867, -9.7627, 12.10.2021 14:33:0.017
322, 1.90122, 0.769279, 251.274, -0.000976562, -0.000976562, -0.000976562, -0.177734, 0.321289, -9.80957, 12.10.2021 14:33:0.025
323, 1.90122, 0.769279, 251.274, 0, -0.000976562, -0.000976562, -0.0966797, 0.306641, -9.81055, 12.10.2021 14:33:0.033
324, 1.90122, 0.769279, 251.274, 0, -0.000976562, -0.00195312, -0.131836, 0.333008, -9.80273, 12.10.2021 14:33:0.041
325, 1.90122, 0.769279, 251.274, -0.000976562, -0.000976562, -0.000976562, -0.15332, 0.338867, -9.81641, 12.10.2021 14:33:0.049
326, 1.90122, 0.769279, 251.274, 0, -0.000976562, -0.000976562, -0.0771484, 0.311523, -9.81348, 12.10.2021 14:33:0.057
327, 1.90122, 0.769279, 251.274, -0.000976562, -0.000976562, -0.000976562, -0.162109, 0.330078, -9.77148, 12.10.2021 14:33:0.065
328, 1.90122, 0.769279, 251.274, -0.000976562, -0.000976562, -0.000976562, -0.12207, 0.337891, -9.81152, 12.10.2021 14:33:0.073
329, 1.90122, 0.769279, 251.274, 0, -0.000976562, -0.000976562, -0.0800781, 0.320312, -9.8584, 12.10.2021 14:33:0.081
330, 1.90122, 0.769279, 251.274, 0, -0.00195312, -0.00195312, -0.203125, 0.362305, -9.81445, 12.10.2021 14:33:0.089
331, 1.90122, 0.769279, 251.274, 0, -0.000976562, -0.000976562, -0.103516, 0.316406, -9.80371, 12.10.2021 14:33:0.097
332, 1.90122, 0.769279, 251.274, 0, 0, -0.000976562, -0.145508, 0.305664, -9.75098, 12.10.2021 14:33:0.105
333, 1.90122, 0.769279, 251.274, 0, -0.000976562, -0.000976562, -0.185547, 0.326172, -9.72852, 12.10.2021 14:33:0.113
334, 1.90122, 0.769279, 251.274, 0, -0.000976562, -0.00195312, -0.0820312, 0.350586, -9.80957, 12.10.2021 14:33:0.121
335, 1.90122, 0.769279, 251.274, -0.000976562, -0.000976562, -0.00195312, -0.167969, 0.341797, -9.83008, 12.10.2021 14:33:0.129
336, 1.90122, 0.769279, 251.274, -0.000976562, -0.000976562, -0.000976562, -0.117188, 0.320312, -9.7793, 12.10.2021 14:33:0.137
337, 1.90122, 0.769279, 251.274, -0.00195312, -0.000976562, -0.000976562, -0.0693359, 0.27832, -9.73633, 12.10.2021 14:33:0.145
338, 1.90122, 0.769279, 251.274, -0.000976562, 0, -0.000976562, -0.186523, 0.34082, -9.81543, 12.10.2021 14:33:0.153
339, 1.90122, 0.769279, 251.274, -0.000976562, -0.000976562, 0.000976562, -0.138672, 0.326172, -9.79102, 12.10.2021 14:33:0.161
340, 1.90122, 0.769279, 251.274, 0, -0.000976562, -0.000976562, -0.160156, 0.31543, -9.7793, 12.10.2021 14:33:0.169
341, 1.9069, 0.773354, 251.274, -0.000976562, -0.000976562, 0.000976562, -0.200195, 0.332031, -9.76562, 12.10.2021 14:33:0.177
342, 1.9069, 0.773354, 251.274, -0.000976562, -0.000976562, -0.000976562, -0.0839844, 0.296875, -9.78027, 12.10.2021 14:33:0.185
343, 1.90282, 0.779038, 251.274, 0, -0.000976562, 0.000976562, -0.167969, 0.335938, -9.80469, 12.10.2021 14:33:0.193
344, 1.90282, 0.779038, 251.274, 0, -0.000976562, -0.000976562, -0.169922, 0.335938, -9.82031, 12.10.2021 14:33:0.201
345, 1.90282, 0.779038, 251.274, -0.000976562, -0.00195312, -0.00195312, -0.100586, 0.313477, -9.78516, 12.10.2021 14:33:0.209
346, 1.90282, 0.779038, 251.274, -0.000976562, -0.000976562, -0.000976562, -0.171875, 0.331055, -9.79297, 12.10.2021 14:33:0.217
347, 1.89875, 0.784721, 251.274, 0, -0.000976562, -0.00195312, -0.119141, 0.307617, -9.74707, 12.10.2021 14:33:0.225
348, 1.89875, 0.784721, 251.274, -0.000976562, -0.000976562, -0.00195312, -0.118164, 0.324219, -9.81445, 12.10.2021 14:33:0.233
349, 1.89875, 0.784721, 251.274, -0.000976562, 0, -0.000976562, -0.198242, 0.334961, -9.77734, 12.10.2021 14:33:0.241
350, 1.90443, 0.788797, 251.274, -0.000976562, 0, -0.000976562, -0.124023, 0.327148, -9.77246, 12.10.2021 14:33:0.249
351, 1.90469, 0.788826, 251.273, -0.000976562, 0, -0.000976562, -0.136719, 0.328125, -9.7793, 12.10.2021 14:33:0.257
352, 1.90469, 0.788826, 251.273, -0.00195312, 0, -0.000976562, -0.174805, 0.34082, -9.82031, 12.10.2021 14:33:0.265
353, 1.90061, 0.794509, 251.273, -0.000976562, 0, -0.000976562, -0.0800781, 0.302734, -9.81348, 12.10.2021 14:33:0.273
354, 1.90061, 0.794509, 251.273, -0.000976562, -0.000976562, 0, -0.169922, 0.320312, -9.77148, 12.10.2021 14:33:0.281
355, 1.90061, 0.794509, 251.273, 0, 0.000976562, -0.000976562, -0.143555, 0.336914, -9.77832, 12.10.2021 14:33:0.289
356, 1.90061, 0.794509, 251.273, -0.000976562, 0, -0.000976562, -0.0722656, 0.321289, -9.79004, 12.10.2021 14:33:0.297
357, 1.90061, 0.794509, 251.273, -0.000976562, 0.000976562, 0, -0.176758, 0.316406, -9.77832, 12.10.2021 14:33:0.305
358, 1.90061, 0.794509, 251.273, 0, 0.000976562, 0, -0.107422, 0.313477, -9.77539, 12.10.2021 14:33:0.313
359, 1.90061, 0.794509, 251.273, 0, 0.000976562, 0, -0.12207, 0.318359, -9.78613, 12.10.2021 14:33:0.319
360, 1.90061, 0.794509, 251.273, -0.000976562, 0.000976562, 0, -0.188477, 0.363281, -9.77441, 12.10.2021 14:33:0.327
361, 1.90061, 0.794509, 251.273, -0.000976562, 0.000976562, 0, -0.0859375, 0.345703, -9.75293, 12.10.2021 14:33:0.335
362, 1.90061, 0.794509, 251.273, -0.00195312, 0.000976562, 0.000976562, -0.15332, 0.323242, -9.79492, 12.10.2021 14:33:0.343
363, 1.90061, 0.794509, 251.273, -0.000976562, -0.00195312, 0, -0.176758, 0.338867, -9.75684, 12.10.2021 14:33:0.351
364, 1.90061, 0.794509, 251.273, -0.000976562, -0.00195312, 0, -0.113281, 0.30957, -9.80078, 12.10.2021 14:33:0.359
365, 1.90629, 0.798584, 251.273, 0, -0.00195312, 0, -0.173828, 0.332031, -9.76367, 12.10.2021 14:33:0.367
366, 1.90629, 0.798584, 251.273, -0.000976562, -0.000976562, 0, -0.12793, 0.320312, -9.83398, 12.10.2021 14:33:0.375
367, 1.90629, 0.798584, 251.273, -0.000976562, -0.000976562, 0, -0.12793, 0.302734, -9.8252, 12.10.2021 14:33:0.383
368, 1.90629, 0.798584, 251.273, 0, 0.000976562, 0.000976562, -0.183594, 0.324219, -9.74316, 12.10.2021 14:33:0.391
369, 1.90629, 0.798584, 251.273, 0, 0, -0.000976562, -0.102539, 0.336914, -9.77441, 12.10.2021 14:33:0.399
370, 1.90629, 0.798584, 251.273, -0.000976562, -0.00195312, -0.000976562, -0.157227, 0.306641, -9.77441, 12.10.2021 14:33:0.407
371, 1.90222, 0.804268, 251.272, -0.000976562, -0.000976562, 0, -0.157227, 0.344727, -9.77832, 12.10.2021 14:33:0.415
372, 1.90222, 0.804268, 251.272, -0.000976562, 0, -0.000976562, -0.0917969, 0.320312, -9.8457, 12.10.2021 14:33:0.423
373, 1.90222, 0.804268, 251.272, -0.000976562, 0, -0.000976562, -0.161133, 0.34082, -9.82324, 12.10.2021 14:33:0.431
374, 1.90222, 0.804268, 251.272, -0.000976562, 0.000976562, 0, -0.132812, 0.338867, -9.74121, 12.10.2021 14:33:0.439
375, 1.90222, 0.804268, 251.272, -0.000976562, 0, -0.000976562, -0.118164, 0.324219, -9.83398, 12.10.2021 14:33:0.447
376, 1.90222, 0.804268, 251.272, -0.000976562, -0.000976562, 0, -0.186523, 0.333008, -9.7832, 12.10.2021 14:33:0.455
377, 1.9079, 0.808343, 251.272, 0, -0.000976562, 0, -0.128906, 0.356445, -9.77637, 12.10.2021 14:33:0.463
378, 1.9079, 0.808343, 251.272, -0.000976562, 0.000976562, 0, -0.125977, 0.322266, -9.74414, 12.10.2021 14:33:0.471
379, 1.91197, 0.80266, 251.273, -0.00195312, 0, 0, -0.18457, 0.345703, -9.80371, 12.10.2021 14:33:0.479
380, 1.91197, 0.80266, 251.273, -0.00195312, -0.00195312, 0, -0.0771484, 0.296875, -9.80176, 12.10.2021 14:33:0.487
381, 1.91197, 0.80266, 251.273, -0.000976562, -0.00195312, 0, -0.146484, 0.305664, -9.82422, 12.10.2021 14:33:0.495
382, 1.9079, 0.808343, 251.272, -0.000976562, -0.000976562, 0, -0.158203, 0.316406, -9.78809, 12.10.2021 14:33:0.503
383, 1.9079, 0.808343, 251.272, -0.000976562, -0.000976562, 0, -0.102539, 0.314453, -9.74414, 12.10.2021 14:33:0.511
384, 1.9079, 0.808343, 251.272, 0, -0.000976562, 0, -0.166992, 0.336914, -9.7666, 12.10.2021 14:33:0.519
385, 1.9079, 0.808343, 251.272, 0, -0.000976562, 0, -0.131836, 0.34668, -9.78125, 12.10.2021 14:33:0.527
386, 1.9079, 0.808343, 251.272, -0.000976562, -0.000976562, 0, -0.110352, 0.290039, -9.80859, 12.10.2021 14:33:0.535
387, 1.9079, 0.808343, 251.272, -0.000976562, -0.000976562, 0, -0.172852, 0.331055, -9.80859, 12.10.2021 14:33:0.543
388, 1.9079, 0.808343, 251.272, 0, -0.000976562, 0, -0.110352, 0.330078, -9.77734, 12.10.2021 14:33:0.551
389, 1.9079, 0.808343, 251.272, 0, -0.000976562, 0, -0.120117, 0.306641, -9.78223, 12.10.2021 14:33:0.559
390, 1.9079, 0.808343, 251.272, 0, -0.000976562, 0, -0.167969, 0.333008, -9.79492, 12.10.2021 14:33:0.567
391, 1.9079, 0.808343, 251.272, -0.000976562, 0, 0, -0.101562, 0.325195, -9.85547, 12.10.2021 14:33:0.575
392, 1.90222, 0.804268, 251.272, 0, -0.000976562, 0, -0.151367, 0.358398, -9.83887, 12.10.2021 14:33:0.583
393, 1.90222, 0.804268, 251.272, 0, -0.000976562, 0, -0.155273, 0.320312, -9.76465, 12.10.2021 14:33:0.591
394, 1.90222, 0.804268, 251.272, 0, 0, 0, -0.115234, 0.317383, -9.81738, 12.10.2021 14:33:0.599
395, 1.90222, 0.804268, 251.272, -0.000976562, -0.000976562, 0, -0.181641, 0.328125, -9.80176, 12.10.2021 14:33:0.607
396, 1.90222, 0.804268, 251.272, -0.000976562, -0.000976562, 0, -0.126953, 0.323242, -9.7793, 12.10.2021 14:33:0.615
397, 1.90222, 0.804268, 251.272, -0.000976562, -0.000976562, 0, -0.110352, 0.302734, -9.80859, 12.10.2021 14:33:0.623
398, 1.90222, 0.804268, 251.272, -0.000976562, -0.000976562, 0, -0.172852, 0.345703, -9.81543, 12.10.2021 14:33:0.631
399, 1.90222, 0.804268, 251.272, -0.000976562, -0.000976562, -0.000976562, -0.09375, 0.331055, -9.82715, 12.10.2021 14:33:0.639
400, 1.90222, 0.804268, 251.272, -0.000976562, -0.000976562, 0, -0.163086, 0.322266, -9.83496, 12.10.2021 14:33:0.647
401, 1.90222, 0.804268, 251.272, 0.00195312, -0.000976562, 0, -0.136719, 0.332031, -9.82617, 12.10.2021 14:33:0.655
402, 1.90222, 0.804268, 251.272, 0, -0.000976562, 0, -0.0791016, 0.300781, -9.76367, 12.10.2021 14:33:0.663
403, 1.90222, 0.804268, 251.272, -0.000976562, 0, 0, -0.176758, 0.355469, -9.75586, 12.10.2021 14:33:0.671
404, 1.90222, 0.804268, 251.272, -0.000976562, 0, 0, -0.129883, 0.321289, -9.8125, 12.10.2021 14:33:0.679
405, 1.90197, 0.80424, 251.274, -0.000976562, -0.000976562, 0, -0.120117, 0.335938, -9.8125, 12.10.2021 14:33:0.687
406, 1.90222, 0.804268, 251.272, 0, -0.00195312, -0.000976562, -0.18457, 0.347656, -9.79883, 12.10.2021 14:33:0.695
407, 1.90222, 0.804268, 251.272, 0, -0.00195312, 0, -0.0976562, 0.303711, -9.76367, 12.10.2021 14:33:0.703
408, 1.90222, 0.804268, 251.272, -0.000976562, -0.000976562, 0, -0.119141, 0.333008, -9.78125, 12.10.2021 14:33:0.711
409, 1.90629, 0.798584, 251.273, -0.000976562, 0, 0, -0.174805, 0.349609, -9.79199, 12.10.2021 14:33:0.719
410, 1.90604, 0.798556, 251.274, -0.000976562, -0.000976562, 0, -0.0839844, 0.324219, -9.81348, 12.10.2021 14:33:0.727
411, 1.90604, 0.798556, 251.274, 0, -0.000976562, 0, -0.148438, 0.331055, -9.81934, 12.10.2021 14:33:0.735
412, 1.90604, 0.798556, 251.274, 0, 0, 0, -0.140625, 0.34375, -9.7666, 12.10.2021 14:33:0.743
413, 1.90604, 0.798556, 251.274, 0, -0.000976562, 0, -0.131836, 0.30957, -9.81055, 12.10.2021 14:33:0.751
414, 1.90604, 0.798556, 251.274, -0.000976562, 0, -0.000976562, -0.18457, 0.352539, -9.81055, 12.10.2021 14:33:0.759
415, 1.90629, 0.798584, 251.273, -0.000976562, -0.000976562, -0.000976562, -0.12207, 0.320312, -9.78418, 12.10.2021 14:33:0.767
416, 1.90629, 0.798584, 251.273, 0, 0, -0.000976562, -0.133789, 0.337891, -9.7998, 12.10.2021 14:33:0.775
417, 1.90629, 0.798584, 251.273, 0, -0.000976562, 0, -0.171875, 0.361328, -9.79199, 12.10.2021 14:33:0.783
418, 1.90629, 0.798584, 251.273, 0, 0, 0, -0.0703125, 0.324219, -9.81348, 12.10.2021 14:33:0.791
419, 1.91037, 0.792901, 251.273, -0.000976562, -0.000976562, -0.000976562, -0.128906, 0.333008, -9.79102, 12.10.2021 14:33:0.799
420, 1.91605, 0.796976, 251.273, -0.000976562, -0.000976562, 0, -0.152344, 0.336914, -9.74805, 12.10.2021 14:33:0.807
421, 1.91605, 0.796976, 251.273, -0.000976562, -0.00195312, 0, -0.0888672, 0.316406, -9.79883, 12.10.2021 14:33:0.815
422, 1.91605, 0.796976, 251.273, -0.000976562, -0.000976562, 0, -0.165039, 0.339844, -9.76855, 12.10.2021 14:33:0.823
423, 1.91605, 0.796976, 251.273, 0, 0, -0.000976562, -0.138672, 0.325195, -9.78125, 12.10.2021 14:33:0.831
424, 1.92012, 0.791293, 251.273, -0.000976562, -0.000976562, 0, -0.09375, 0.30957, -9.79688, 12.10.2021 14:33:0.839
425, 1.92012, 0.791293, 251.273, -0.000976562, -0.000976562, 0, -0.154297, 0.321289, -9.72656, 12.10.2021 14:33:0.847
426, 1.92012, 0.791293, 251.273, -0.000976562, -0.000976562, -0.000976562, -0.0839844, 0.303711, -9.79199, 12.10.2021 14:33:0.855
427, 1.92012, 0.791293, 251.273, -0.000976562, -0.000976562, 0, -0.128906, 0.333008, -9.79297, 12.10.2021 14:33:0.863
428, 1.92012, 0.791293, 251.273, 0, -0.000976562, -0.000976562, -0.158203, 0.353516, -9.83496, 12.10.2021 14:33:0.871
429, 1.91444, 0.787218, 251.273, 0, -0.000976562, 0, -0.0742188, 0.303711, -9.79004, 12.10.2021 14:33:0.879
430, 1.91851, 0.781534, 251.273, -0.000976562, -0.00195312, 0.000976562, -0.138672, 0.333984, -9.75488, 12.10.2021 14:33:0.887
431, 1.91851, 0.781534, 251.273, 0, -0.000976562, 0, -0.112305, 0.348633, -9.74805, 12.10.2021 14:33:0.895
432, 1.91851, 0.781534, 251.273, 0, -0.000976562, -0.000976562, -0.0898438, 0.3125, -9.82715, 12.10.2021 14:33:0.903
433, 1.91851, 0.781534, 251.273, 0, -0.00195312, -0.00195312, -0.183594, 0.316406, -9.77832, 12.10.2021 14:33:0.911
434, 1.91851, 0.781534, 251.273, 0, -0.00195312, 0, -0.120117, 0.311523, -9.80371, 12.10.2021 14:33:0.919
435, 1.91283, 0.777459, 251.273, 0, -0.00195312, 0, -0.120117, 0.319336, -9.81445, 12.10.2021 14:33:0.927
436, 1.91283, 0.777459, 251.273, -0.00195312, -0.00195312, 0, -0.167969, 0.367188, -9.80859, 12.10.2021 14:33:0.935
437, 1.91691, 0.771776, 251.273, -0.000976562, -0.000976562, 0, -0.0673828, 0.321289, -9.79199, 12.10.2021 14:33:0.943
438, 1.91691, 0.771776, 251.273, 0, -0.000976562, 0, -0.129883, 0.314453, -9.79883, 12.10.2021 14:33:0.951
439, 1.91691, 0.771776, 251.273, 0, -0.000976562, 0, -0.140625, 0.334961, -9.7627, 12.10.2021 14:33:0.959
440, 1.91691, 0.771776, 251.273, 0, -0.00195312, 0, -0.0771484, 0.321289, -9.79688, 12.10.2021 14:33:0.967
441, 1.91691, 0.771776, 251.273, 0, -0.000976562, 0, -0.173828, 0.325195, -9.76465, 12.10.2021 14:33:0.975
442, 1.91691, 0.771776, 251.273, -0.000976562, -0.000976562, -0.000976562, -0.117188, 0.344727, -9.78613, 12.10.2021 14:33:0.983
443, 1.9153, 0.762017, 251.273, -0.000976562, 0, 0, -0.135742, 0.293945, -9.77051, 12.10.2021 14:33:0.991
444, 1.9153, 0.762017, 251.273, -0.000976562, -0.000976562, 0, -0.176758, 0.351562, -9.78223, 12.10.2021 14:33:0.999
445, 1.9153, 0.762017, 251.273, -0.000976562, -0.000976562, 0.000976562, -0.09375, 0.335938, -9.79883, 12.10.2021 14:33:1.007
446, 1.9153, 0.762017, 251.273, -0.000976562, 0, 0, -0.139648, 0.292969, -9.81738, 12.10.2021 14:33:1.015
447, 1.9153, 0.762017, 251.273, 0, 0, 0, -0.169922, 0.337891, -9.7832, 12.10.2021 14:33:1.023
448, 1.9153, 0.762017, 251.273, 0, 0.000976562, 0, -0.0878906, 0.291016, -9.75977, 12.10.2021 14:33:1.031
449, 1.9153, 0.762017, 251.273, 0, 0, 0, -0.179688, 0.342773, -9.80176, 12.10.2021 14:33:1.039
450, 1.9153, 0.762017, 251.273, 0, 0, -0.000976562, -0.148438, 0.319336, -9.8125, 12.10.2021 14:33:1.047
451, 1.91123, 0.7677, 251.273, -0.000976562, 0, 0, -0.0917969, 0.30957, -9.79688, 12.10.2021 14:33:1.055
452, 1.91123, 0.7677, 251.273, -0.000976562, 0, 0, -0.201172, 0.368164, -9.83594, 12.10.2021 14:33:1.063
453, 1.91123, 0.7677, 251.273, -0.000976562, 0, 0, -0.0986328, 0.337891, -9.8125, 12.10.2021 14:33:1.071
454, 1.91123, 0.7677, 251.273, -0.000976562, 0, 0, -0.131836, 0.333984, -9.81152, 12.10.2021 14:33:1.079
455, 1.91123, 0.7677, 251.273, -0.000976562, 0, 0, -0.15918, 0.365234, -9.73242, 12.10.2021 14:33:1.087
456, 1.91123, 0.7677, 251.273, -0.000976562, -0.00195312, -0.000976562, -0.0595703, 0.329102, -9.75879, 12.10.2021 14:33:1.095
457, 1.91123, 0.7677, 251.273, 0, -0.00195312, 0, -0.135742, 0.335938, -9.74121, 12.10.2021 14:33:1.103
458, 1.92098, 0.766093, 251.273, -0.000976562, 0, 0, -0.140625, 0.355469, -9.75488, 12.10.2021 14:33:1.111
459, 1.92098, 0.766093, 251.273, -0.000976562, 0, 0, -0.0673828, 0.321289, -9.82031, 12.10.2021 14:33:1.119
460, 1.92098, 0.766093, 251.273, -0.000976562, -0.00195312, 0, -0.158203, 0.337891, -9.79297, 12.10.2021 14:33:1.127
461, 1.92098, 0.766093, 251.273, 0, 0, 0, -0.133789, 0.326172, -9.79102, 12.10.2021 14:33:1.135
462, 1.92098, 0.766093, 251.273, -0.000976562, 0, 0, -0.129883, 0.30957, -9.80078, 12.10.2021 14:33:1.143
463, 1.92098, 0.766093, 251.273, 0, 0, 0, -0.196289, 0.324219, -9.81836, 12.10.2021 14:33:1.151
464, 1.92098, 0.766093, 251.273, -0.000976562, 0, 0, -0.102539, 0.332031, -9.76562, 12.10.2021 14:33:1.159
465, 1.92072, 0.766062, 251.274, -0.000976562, 0, 0.000976562, -0.102539, 0.320312, -9.77051, 12.10.2021 14:33:1.167
466, 1.92072, 0.766062, 251.274, -0.000976562, 0, 0, -0.148438, 0.323242, -9.77441, 12.10.2021 14:33:1.175
467, 1.9248, 0.760379, 251.274, -0.00195312, 0, 0, -0.0966797, 0.302734, -9.81836, 12.10.2021 14:33:1.183
468, 1.9248, 0.760379, 251.274, -0.00195312, 0.000976562, 0, -0.158203, 0.328125, -9.78809, 12.10.2021 14:33:1.191
469, 1.9248, 0.760379, 251.274, -0.000976562, 0, 0, -0.129883, 0.34082, -9.81152, 12.10.2021 14:33:1.199
470, 1.9248, 0.760379, 251.274, 0, 0, -0.000976562, -0.0986328, 0.334961, -9.78906, 12.10.2021 14:33:1.207
471, 1.9248, 0.760379, 251.274, -0.000976562, 0, 0, -0.185547, 0.37207, -9.74902, 12.10.2021 14:33:1.215
472, 1.9248, 0.760379, 251.274, -0.00195312, -0.00195312, 0, -0.126953, 0.333984, -9.81641, 12.10.2021 14:33:1.223
473, 1.9248, 0.760379, 251.274, -0.000976562, 0, 0, -0.145508, 0.316406, -9.78125, 12.10.2021 14:33:1.231
474, 1.93047, 0.764454, 251.274, -0.000976562, 0.000976562, -0.000976562, -0.163086, 0.326172, -9.79297, 12.10.2021 14:33:1.239
475, 1.93047, 0.764454, 251.274, -0.000976562, 0.000976562, 0, -0.0820312, 0.316406, -9.80176, 12.10.2021 14:33:1.247
476, 1.93047, 0.764454, 251.274, -0.000976562, 0, 0, -0.15332, 0.34082, -9.82324, 12.10.2021 14:33:1.255
477, 1.93047, 0.764454, 251.274, -0.000976562, 0.000976562, 0, -0.136719, 0.348633, -9.82129, 12.10.2021 14:33:1.263
478, 1.93047, 0.764454, 251.274, -0.000976562, 0, 0, -0.09375, 0.292969, -9.80859, 12.10.2021 14:33:1.271
479, 1.93047, 0.764454, 251.274, 0, -0.000976562, 0, -0.181641, 0.341797, -9.77051, 12.10.2021 14:33:1.279
480, 1.93047, 0.764454, 251.274, 0, 0.000976562, -0.000976562, -0.133789, 0.311523, -9.78418, 12.10.2021 14:33:1.285
481, 1.93047, 0.764454, 251.274, -0.000976562, -0.00195312, 0, -0.108398, 0.329102, -9.82422, 12.10.2021 14:33:1.293
482, 1.9264, 0.770138, 251.274, -0.000976562, -0.00195312, 0, -0.186523, 0.34082, -9.80371, 12.10.2021 14:33:1.301
483, 1.9264, 0.770138, 251.274, -0.000976562, 0.000976562, 0, -0.0966797, 0.357422, -9.82324, 12.10.2021 14:33:1.309
484, 1.9264, 0.770138, 251.274, -0.00195312, 0.000976562, 0, -0.12207, 0.34082, -9.80273, 12.10.2021 14:33:1.317
485, 1.93047, 0.764454, 251.274, -0.000976562, 0.000976562, 0, -0.158203, 0.334961, -9.7832, 12.10.2021 14:33:1.325
486, 1.93047, 0.764454, 251.274, -0.000976562, -0.000976562, 0, -0.0810547, 0.308594, -9.77832, 12.10.2021 14:33:1.333
487, 1.93047, 0.764454, 251.274, -0.000976562, 0.000976562, -0.000976562, -0.151367, 0.322266, -9.82129, 12.10.2021 14:33:1.341
488, 1.93074, 0.764485, 251.273, -0.000976562, -0.000976562, 0, -0.158203, 0.318359, -9.78125, 12.10.2021 14:33:1.349
489, 1.93074, 0.764485, 251.273, -0.000976562, -0.000976562, 0, -0.0771484, 0.308594, -9.79004, 12.10.2021 14:33:1.357
490, 1.93074, 0.764485, 251.273, 0, -0.000976562, 0, -0.171875, 0.344727, -9.78223, 12.10.2021 14:33:1.365
491, 1.93047, 0.764454, 251.274, -0.000976562, -0.000976562, 0, -0.108398, 0.328125, -9.7959, 12.10.2021 14:33:1.373
492, 1.93047, 0.764454, 251.274, -0.000976562, -0.000976562, 0, -0.12207, 0.316406, -9.80762, 12.10.2021 14:33:1.381
493, 1.93047, 0.764454, 251.274, -0.000976562, 0.000976562, 0.000976562, -0.155273, 0.363281, -9.77344, 12.10.2021 14:33:1.389
494, 1.93047, 0.764454, 251.274, -0.000976562, 0.000976562, 0.000976562, -0.09375, 0.30957, -9.80176, 12.10.2021 14:33:1.397
495, 1.93047, 0.764454, 251.274, -0.000976562, -0.000976562, 0, -0.163086, 0.326172, -9.81836, 12.10.2021 14:33:1.405
496, 1.93047, 0.764454, 251.274, -0.000976562, -0.000976562, 0, -0.198242, 0.333008, -9.78516, 12.10.2021 14:33:1.413
497, 1.9264, 0.770138, 251.274, 0, -0.000976562, 0, -0.105469, 0.31543, -9.77539, 12.10.2021 14:33:1.421
498, 1.9264, 0.770138, 251.274, 0, -0.00195312, 0, -0.198242, 0.317383, -9.75977, 12.10.2021 14:33:1.429
499, 1.9264, 0.770138, 251.274, -0.000976562, -0.000976562, 0, -0.131836, 0.331055, -9.81445, 12.10.2021 14:33:1.437
500, 1.92233, 0.775821, 251.274, -0.000976562, -0.00195312, 0, -0.12207, 0.330078, -9.78906, 12.10.2021 14:33:1.445
501, 1.92233, 0.775821, 251.274, 0, -0.000976562, 0, -0.167969, 0.352539, -9.81543, 12.10.2021 14:33:1.453
502, 1.92233, 0.775821, 251.274, -0.000976562, -0.000976562, -0.000976562, -0.0839844, 0.310547, -9.78027, 12.10.2021 14:33:1.461
503, 1.92233, 0.775821, 251.274, -0.000976562, -0.000976562, 0, -0.131836, 0.321289, -9.80762, 12.10.2021 14:33:1.469
504, 1.92233, 0.775821, 251.274, 0, 0.000976562, 0, -0.163086, 0.34375, -9.8252, 12.10.2021 14:33:1.477
505, 1.92233, 0.775821, 251.274, -0.000976562, -0.000976562, 0, -0.0917969, 0.311523, -9.81348, 12.10.2021 14:33:1.485
506, 1.92233, 0.775821, 251.274, 0, -0.000976562, 0, -0.194336, 0.333984, -9.8252, 12.10.2021 14:33:1.493
507, 1.91826, 0.781505, 251.274, -0.000976562, -0.00195312, 0, -0.129883, 0.337891, -9.79785, 12.10.2021 14:33:1.501
508, 1.91826, 0.781505, 251.274, -0.000976562, -0.000976562, 0, -0.113281, 0.299805, -9.80371, 12.10.2021 14:33:1.509
509, 1.91826, 0.781505, 251.274, -0.000976562, 0.000976562, 0, -0.203125, 0.347656, -9.79883, 12.10.2021 14:33:1.517
510, 1.91826, 0.781505, 251.274, 0, -0.000976562, 0, -0.0927734, 0.320312, -9.77051, 12.10.2021 14:33:1.525
511, 1.91826, 0.781505, 251.274, 0, 0, -0.00195312, -0.120117, 0.321289, -9.81055, 12.10.2021 14:33:1.533
512, 1.91826, 0.781505, 251.274, 0, -0.000976562, -0.00195312, -0.148438, 0.347656, -9.80859, 12.10.2021 14:33:1.541
513, 1.91826, 0.781505, 251.274, -0.000976562, -0.00195312, 0, -0.0820312, 0.311523, -9.79883, 12.10.2021 14:33:1.549
514, 1.91826, 0.781505, 251.274, 0, -0.000976562, 0, -0.15332, 0.328125, -9.79102, 12.10.2021 14:33:1.557
515, 1.91444, 0.787218, 251.273, 0, -0.000976562, -0.00195312, -0.145508, 0.327148, -9.77148, 12.10.2021 14:33:1.565
516, 1.91851, 0.781534, 251.273, -0.000976562, -0.000976562, -0.00195312, -0.101562, 0.342773, -9.81738, 12.10.2021 14:33:1.573
517, 1.91851, 0.781534, 251.273, -0.000976562, 0, -0.000976562, -0.203125, 0.352539, -9.80371, 12.10.2021 14:33:1.581
518, 1.91851, 0.781534, 251.273, -0.000976562, -0.000976562, 0, -0.107422, 0.342773, -9.79102, 12.10.2021 14:33:1.589
519, 1.91851, 0.781534, 251.273, -0.000976562, -0.00195312, 0, -0.100586, 0.303711, -9.76562, 12.10.2021 14:33:1.597
520, 1.92012, 0.791293, 251.273, -0.000976562, -0.000976562, 0, -0.209961, 0.341797, -9.77539, 12.10.2021 14:33:1.605
521, 1.92012, 0.791293, 251.273, 0, -0.000976562, 0, -0.0908203, 0.298828, -9.77539, 12.10.2021 14:33:1.613
522, 1.92012, 0.791293, 251.273, -0.000976562, -0.000976562, 0, -0.124023, 0.324219, -9.75293, 12.10.2021 14:33:1.621
523, 1.92012, 0.791293, 251.273, 0, -0.000976562, 0, -0.166992, 0.344727, -9.77344, 12.10.2021 14:33:1.629
524, 1.92012, 0.791293, 251.273, -0.000976562, 0, 0, -0.09375, 0.318359, -9.79883, 12.10.2021 14:33:1.637
525, 1.92012, 0.791293, 251.273, -0.000976562, 0, -0.000976562, -0.168945, 0.330078, -9.75977, 12.10.2021 14:33:1.645
526, 1.92012, 0.791293, 251.273, 0, -0.000976562, -0.00195312, -0.143555, 0.311523, -9.78418, 12.10.2021 14:33:1.653
527, 1.91444, 0.787218, 251.273, 0, 0, -0.00195312, -0.105469, 0.311523, -9.78516, 12.10.2021 14:33:1.661
528, 1.91444, 0.787218, 251.273, -0.000976562, 0, 0, -0.201172, 0.345703, -9.79883, 12.10.2021 14:33:1.669
529, 1.91444, 0.787218, 251.273, 0, -0.000976562, 0, -0.0986328, 0.331055, -9.8125, 12.10.2021 14:33:1.677
530, 1.91444, 0.787218, 251.273, 0, -0.000976562, 0, -0.108398, 0.331055, -9.7959, 12.10.2021 14:33:1.685
531, 1.91444, 0.787218, 251.273, 0, -0.000976562, -0.00195312, -0.169922, 0.347656, -9.79688, 12.10.2021 14:33:1.693
532, 1.91444, 0.787218, 251.273, 0, 0, 0, -0.0839844, 0.295898, -9.77148, 12.10.2021 14:33:1.701
533, 1.91444, 0.787218, 251.273, -0.000976562, -0.000976562, 0, -0.152344, 0.318359, -9.76758, 12.10.2021 14:33:1.709
534, 1.91444, 0.787218, 251.273, 0, -0.000976562, 0, -0.148438, 0.339844, -9.76953, 12.10.2021 14:33:1.717
535, 1.91444, 0.787218, 251.273, -0.000976562, 0, 0, -0.0751953, 0.306641, -9.81152, 12.10.2021 14:33:1.725
536, 1.91444, 0.787218, 251.273, -0.00195312, -0.000976562, 0, -0.186523, 0.335938, -9.79492, 12.10.2021 14:33:1.733
537, 1.91444, 0.787218, 251.273, -0.000976562, -0.000976562, 0, -0.135742, 0.350586, -9.75, 12.10.2021 14:33:1.741
538, 1.91444, 0.787218, 251.273, -0.000976562, -0.00195312, 0, -0.107422, 0.31543, -9.77246, 12.10.2021 14:33:1.749
539, 1.91444, 0.787218, 251.273, 0, -0.000976562, 0, -0.189453, 0.335938, -9.82031, 12.10.2021 14:33:1.757
540, 1.91444, 0.787218, 251.273, -0.000976562, -0.000976562, 0, -0.09375, 0.313477, -9.77344, 12.10.2021 14:33:1.765
541, 1.91444, 0.787218, 251.273, -0.000976562, -0.00195312, 0, -0.146484, 0.313477, -9.79102, 12.10.2021 14:33:1.773
542, 1.91444, 0.787218, 251.273, -0.000976562, -0.00195312, 0, -0.145508, 0.359375, -9.78711, 12.10.2021 14:33:1.781
543, 1.91444, 0.787218, 251.273, -0.000976562, -0.00195312, 0, -0.09375, 0.308594, -9.79199, 12.10.2021 14:33:1.789
544, 1.91444, 0.787218, 251.273, -0.000976562, -0.000976562, 0, -0.174805, 0.324219, -9.82617, 12.10.2021 14:33:1.797
545, 1.91444, 0.787218, 251.273, 0, -0.000976562, -0.000976562, -0.138672, 0.339844, -9.79785, 12.10.2021 14:33:1.805
546, 1.91444, 0.787218, 251.273, -0.000976562, -0.00195312, -0.000976562, -0.12207, 0.30957, -9.80762, 12.10.2021 14:33:1.813
547, 1.91444, 0.787218, 251.273, 0, -0.000976562, 0, -0.212891, 0.333984, -9.80859, 12.10.2021 14:33:1.821
548, 1.91037, 0.792901, 251.273, 0, -0.000976562, -0.000976562, -0.112305, 0.287109, -9.78711, 12.10.2021 14:33:1.829
549, 1.91012, 0.793024, 251.282, -0.000976562, -0.000976562, -0.000976562, -0.118164, 0.310547, -9.83887, 12.10.2021 14:33:1.837
550, 1.91012, 0.793024, 251.282, -0.000976562, -0.000976562, -0.000976562, -0.174805, 0.333008, -9.79688, 12.10.2021 14:33:1.845
551, 1.91012, 0.793024, 251.282, -0.000976562, 0.000976562, -0.000976562, -0.0625, 0.300781, -9.76953, 12.10.2021 14:33:1.853
552, 1.91012, 0.793024, 251.282, 0, -0.000976562, 0, -0.141602, 0.302734, -9.82227, 12.10.2021 14:33:1.861
553, 1.90444, 0.788948, 251.282, 0, -0.000976562, 0, -0.144531, 0.329102, -9.81934, 12.10.2021 14:33:1.869
554, 1.90444, 0.788948, 251.282, -0.000976562, -0.000976562, 0, -0.0839844, 0.294922, -9.79688, 12.10.2021 14:33:1.877
555, 1.90037, 0.794631, 251.282, -0.000976562, -0.000976562, 0, -0.176758, 0.331055, -9.79004, 12.10.2021 14:33:1.885
556, 1.90037, 0.794631, 251.282, -0.000976562, 0.000976562, 0, -0.132812, 0.324219, -9.8291, 12.10.2021 14:33:1.893
557, 1.89469, 0.790555, 251.282, 0, 0.000976562, 0, -0.131836, 0.326172, -9.80957, 12.10.2021 14:33:1.901
558, 1.89469, 0.790555, 251.282, 0, -0.000976562, 0, -0.174805, 0.330078, -9.77832, 12.10.2021 14:33:1.909
559, 1.89469, 0.790555, 251.282, 0, -0.00195312, -0.000976562, -0.0693359, 0.31543, -9.76367, 12.10.2021 14:33:1.917
560, 1.89469, 0.790555, 251.282, -0.000976562, -0.00195312, 0, -0.125, 0.325195, -9.78906, 12.10.2021 14:33:1.925
561, 1.89469, 0.790555, 251.282, 0, -0.000976562, -0.000976562, -0.158203, 0.342773, -9.79199, 12.10.2021 14:33:1.933
562, 1.89469, 0.790555, 251.282, 0, -0.000976562, 0, -0.0761719, 0.31543, -9.77051, 12.10.2021 14:33:1.941
563, 1.88901, 0.78648, 251.282, 0, -0.000976562, 0, -0.181641, 0.313477, -9.76172, 12.10.2021 14:33:1.949
564, 1.88901, 0.78648, 251.282, -0.000976562, -0.000976562, -0.000976562, -0.150391, 0.320312, -9.78418, 12.10.2021 14:33:1.957
565, 1.88901, 0.78648, 251.282, 0, -0.000976562, 0, -0.103516, 0.319336, -9.80859, 12.10.2021 14:33:1.965
566, 1.88901, 0.78648, 251.282, 0, -0.000976562, 0.000976562, -0.196289, 0.347656, -9.8125, 12.10.2021 14:33:1.973
567, 1.88901, 0.78648, 251.282, -0.000976562, -0.00195312, 0, -0.138672, 0.34082, -9.7998, 12.10.2021 14:33:1.981
568, 1.89469, 0.790555, 251.282, -0.000976562, -0.000976562, -0.000976562, -0.146484, 0.353516, -9.83691, 12.10.2021 14:33:1.989
569, 1.89469, 0.790555, 251.282, -0.000976562, -0.000976562, 0, -0.205078, 0.325195, -9.78027, 12.10.2021 14:33:1.997
570, 1.89469, 0.790555, 251.282, -0.000976562, -0.000976562, 0, -0.0800781, 0.345703, -9.81445, 12.10.2021 14:33:2.005
571, 1.89469, 0.790555, 251.282, -0.000976562, -0.000976562, 0, -0.150391, 0.322266, -9.75977, 12.10.2021 14:33:2.013
572, 1.89469, 0.790555, 251.282, -0.000976562, -0.000976562, -0.000976562, -0.151367, 0.337891, -9.80176, 12.10.2021 14:33:2.021
573, 1.90037, 0.794631, 251.282, -0.000976562, -0.000976562, 0, -0.0839844, 0.34082, -9.81055, 12.10.2021 14:33:2.029
574, 1.90037, 0.794631, 251.282, -0.000976562, -0.000976562, -0.000976562, -0.208008, 0.31543, -9.77148, 12.10.2021 14:33:2.037
575, 1.90037, 0.794631, 251.282, -0.000976562, 0, 0, -0.113281, 0.336914, -9.84082, 12.10.2021 14:33:2.045
576, 1.90037, 0.794631, 251.282, 0, 0, 0, -0.123047, 0.291016, -9.81543, 12.10.2021 14:33:2.053
577, 1.90037, 0.794631, 251.282, 0, 0.000976562, 0, -0.189453, 0.358398, -9.82422, 12.10.2021 14:33:2.061
578, 1.90037, 0.794631, 251.282, 0, 0, -0.000976562, -0.103516, 0.287109, -9.7832, 12.10.2021 14:33:2.069
579, 1.90037, 0.794631, 251.282, -0.000976562, 0, 0, -0.148438, 0.329102, -9.81641, 12.10.2021 14:33:2.077
580, 1.90198, 0.80439, 251.282, 0, 0.000976562, 0, -0.158203, 0.357422, -9.8252, 12.10.2021 14:33:2.085
581, 1.90198, 0.80439, 251.282, -0.000976562, 0.000976562, 0, -0.110352, 0.292969, -9.80371, 12.10.2021 14:33:2.093
582, 1.90198, 0.80439, 251.282, 0, 0.000976562, -0.000976562, -0.174805, 0.332031, -9.82324, 12.10.2021 14:33:2.101
583, 1.90198, 0.80439, 251.282, 0, 0, 0, -0.140625, 0.332031, -9.77441, 12.10.2021 14:33:2.109
584, 1.90198, 0.80439, 251.282, 0.000976562, 0, -0.000976562, -0.107422, 0.313477, -9.78711, 12.10.2021 14:33:2.117
585, 1.90198, 0.80439, 251.282, 0, 0, -0.000976562, -0.167969, 0.34082, -9.8252, 12.10.2021 14:33:2.125
586, 1.90198, 0.80439, 251.282, -0.000976562, 0, 0.000976562, -0.119141, 0.317383, -9.76758, 12.10.2021 14:33:2.133
587, 1.90198, 0.80439, 251.282, -0.000976562, -0.00195312, 0, -0.139648, 0.307617, -9.82715, 12.10.2021 14:33:2.141
588, 1.90198, 0.80439, 251.282, -0.000976562, 0, 0, -0.194336, 0.333984, -9.82324, 12.10.2021 14:33:2.149
589, 1.90198, 0.80439, 251.282, -0.000976562, 0, 0, -0.0986328, 0.328125, -9.78906, 12.10.2021 14:33:2.157
590, 1.90222, 0.804268, 251.272, -0.000976562, 0, 0.000976562, -0.160156, 0.308594, -9.78125, 12.10.2021 14:33:2.165
591, 1.89815, 0.809951, 251.272, -0.00195312, 0, 0, -0.167969, 0.331055, -9.80664, 12.10.2021 14:33:2.173
592, 1.89815, 0.809951, 251.272, -0.00195312, 0, 0, -0.100586, 0.323242, -9.80078, 12.10.2021 14:33:2.181
593, 1.89815, 0.809951, 251.272, -0.000976562, 0, -0.000976562, -0.177734, 0.337891, -9.80664, 12.10.2021 14:33:2.189
594, 1.89815, 0.809951, 251.272, -0.000976562, 0, -0.000976562, -0.136719, 0.308594, -9.77441, 12.10.2021 14:33:2.197
595, 1.8979, 0.810074, 251.282, -0.000976562, 0, -0.000976562, -0.119141, 0.298828, -9.77051, 12.10.2021 14:33:2.205
596, 1.90358, 0.81415, 251.282, 0, 0, 0, -0.201172, 0.347656, -9.80566, 12.10.2021 14:33:2.213
597, 1.90358, 0.81415, 251.282, -0.00195312, 0, 0, -0.105469, 0.332031, -9.77441, 12.10.2021 14:33:2.221
598, 1.90383, 0.814026, 251.272, -0.000976562, 0, 0, -0.148438, 0.339844, -9.7832, 12.10.2021 14:33:2.229
599, 1.90383, 0.814026, 251.272, -0.000976562, 0, 0, -0.155273, 0.336914, -9.77344, 12.10.2021 14:33:2.237
600, 1.90383, 0.814026, 251.272, -0.000976562, 0, 0, -0.0771484, 0.328125, -9.80371, 12.10.2021 14:33:2.245
601, 1.90383, 0.814026, 251.272, -0.000976562, 0, 0, -0.171875, 0.351562, -9.76855, 12.10.2021 14:33:2.253
602, 1.90383, 0.814026, 251.272, 0, 0, -0.000976562, -0.135742, 0.327148, -9.76758, 12.10.2021 14:33:2.261
603, 1.90383, 0.814026, 251.272, 0, 0, 0, -0.112305, 0.291016, -9.75879, 12.10.2021 14:33:2.269
604, 1.90383, 0.814026, 251.272, 0, 0, 0.000976562, -0.196289, 0.34668, -9.77734, 12.10.2021 14:33:2.275
605, 1.90383, 0.814026, 251.272, -0.000976562, -0.00195312, 0, -0.0966797, 0.333008, -9.80566, 12.10.2021 14:33:2.283
606, 1.90951, 0.818102, 251.272, 0, 0, 0, -0.136719, 0.321289, -9.81738, 12.10.2021 14:33:2.291
607, 1.90951, 0.818102, 251.272, -0.000976562, -0.00195312, 0, -0.209961, 0.344727, -9.78711, 12.10.2021 14:33:2.301
608, 1.90951, 0.818102, 251.272, -0.000976562, -0.000976562, 0, -0.0839844, 0.30957, -9.80664, 12.10.2021 14:33:2.307
609, 1.90951, 0.818102, 251.272, 0, -0.000976562, 0, -0.133789, 0.320312, -9.78125, 12.10.2021 14:33:2.315
610, 1.90951, 0.818102, 251.272, -0.000976562, -0.000976562, 0, -0.138672, 0.328125, -9.80469, 12.10.2021 14:33:2.323
611, 1.90951, 0.818102, 251.272, -0.000976562, -0.000976562, 0, -0.09375, 0.304688, -9.80664, 12.10.2021 14:33:2.331
612, 1.90951, 0.818102, 251.272, -0.000976562, -0.000976562, 0, -0.173828, 0.355469, -9.75684, 12.10.2021 14:33:2.339
613, 1.90951, 0.818102, 251.272, -0.000976562, -0.000976562, 0.000976562, -0.09375, 0.342773, -9.80762, 12.10.2021 14:33:2.347
614, 1.90951, 0.818102, 251.272, 0.000976562, -0.000976562, 0, -0.115234, 0.311523, -9.7959, 12.10.2021 14:33:2.355
615, 1.90951, 0.818102, 251.272, 0, 0.000976562, 0, -0.182617, 0.333984, -9.81543, 12.10.2021 14:33:2.363
616, 1.9079, 0.808343, 251.272, -0.000976562, -0.000976562, -0.000976562, -0.0888672, 0.316406, -9.80566, 12.10.2021 14:33:2.371
617, 1.9079, 0.808343, 251.272, 0, 0.000976562, 0, -0.133789, 0.314453, -9.74414, 12.10.2021 14:33:2.379
618, 1.9079, 0.808343, 251.272, 0, 0.000976562, 0.000976562, -0.167969, 0.326172, -9.79492, 12.10.2021 14:33:2.387
619, 1.9079, 0.808343, 251.272, -0.000976562, -0.000976562, 0, -0.0771484, 0.318359, -9.77832, 12.10.2021 14:33:2.395
620, 1.9079, 0.808343, 251.272, -0.000976562, 0.000976562, -0.000976562, -0.160156, 0.334961, -9.77832, 12.10.2021 14:33:2.403
621, 1.9079, 0.808343, 251.272, -0.000976562, 0.000976562, 0, -0.143555, 0.323242, -9.78613, 12.10.2021 14:33:2.411
622, 1.91197, 0.80266, 251.273, -0.000976562, -0.000976562, 0, -0.113281, 0.336914, -9.84277, 12.10.2021 14:33:2.419
623, 1.91197, 0.80266, 251.273, 0, 0.000976562, -0.000976562, -0.208008, 0.365234, -9.81738, 12.10.2021 14:33:2.427
624, 1.91197, 0.80266, 251.273, 0, 0.000976562, 0, -0.0966797, 0.345703, -9.81445, 12.10.2021 14:33:2.435
625, 1.91197, 0.80266, 251.273, 0, 0.00195312, 0, -0.15625, 0.326172, -9.80469, 12.10.2021 14:33:2.443
626, 1.91197, 0.80266, 251.273, -0.000976562, -0.000976562, 0, -0.174805, 0.339844, -9.79492, 12.10.2021 14:33:2.451
627, 1.91197, 0.80266, 251.273, -0.000976562, -0.00195312, 0, -0.0693359, 0.303711, -9.78027, 12.10.2021 14:33:2.459
628, 1.91197, 0.80266, 251.273, -0.000976562, -0.000976562, 0, -0.148438, 0.342773, -9.79297, 12.10.2021 14:33:2.467
629, 1.91605, 0.796976, 251.273, -0.000976562, -0.000976562, 0, -0.141602, 0.333008, -9.80957, 12.10.2021 14:33:2.475
630, 1.91605, 0.796976, 251.273, -0.000976562, -0.000976562, 0, -0.0957031, 0.316406, -9.78906, 12.10.2021 14:33:2.483
631, 1.91605, 0.796976, 251.273, -0.000976562, -0.000976562, 0, -0.209961, 0.322266, -9.74219, 12.10.2021 14:33:2.491
632, 1.91579, 0.796948, 251.274, 0, -0.000976562, 0, -0.138672, 0.326172, -9.7959, 12.10.2021 14:33:2.499
633, 1.91579, 0.796948, 251.274, -0.000976562, 0.000976562, 0, -0.126953, 0.333984, -9.8125, 12.10.2021 14:33:2.507
634, 1.91579, 0.796948, 251.274, 0, 0.000976562, 0, -0.165039, 0.333008, -9.80176, 12.10.2021 14:33:2.515
635, 1.91579, 0.796948, 251.274, -0.00195312, 0.000976562, 0, -0.0957031, 0.325195, -9.78906, 12.10.2021 14:33:2.523
636, 1.91579, 0.796948, 251.274, 0, -0.000976562, -0.000976562, -0.126953, 0.319336, -9.80078, 12.10.2021 14:33:2.531
637, 1.91605, 0.796976, 251.273, -0.000976562, 0.000976562, 0, -0.178711, 0.336914, -9.74707, 12.10.2021 14:33:2.539
638, 1.91605, 0.796976, 251.273, -0.000976562, -0.000976562, -0.000976562, -0.09375, 0.328125, -9.7959, 12.10.2021 14:33:2.547
639, 1.91605, 0.796976, 251.273, -0.000976562, -0.000976562, 0, -0.172852, 0.338867, -9.82324, 12.10.2021 14:33:2.555
640, 1.91605, 0.796976, 251.273, -0.000976562, 0, -0.000976562, -0.128906, 0.34668, -9.78613, 12.10.2021 14:33:2.563
641, 1.91605, 0.796976, 251.273, 0, -0.000976562, 0, -0.108398, 0.294922, -9.80371, 12.10.2021 14:33:2.571
642, 1.91605, 0.796976, 251.273, -0.000976562, -0.000976562, 0, -0.191406, 0.325195, -9.77832, 12.10.2021 14:33:2.579
643, 1.91605, 0.796976, 251.273, 0, 0, 0, -0.105469, 0.335938, -9.80566, 12.10.2021 14:33:2.587
644, 1.91605, 0.796976, 251.273, -0.000976562, -0.00195312, 0, -0.115234, 0.321289, -9.79102, 12.10.2021 14:33:2.595
645, 1.92173, 0.801052, 251.273, -0.000976562, -0.000976562, -0.00195312, -0.172852, 0.331055, -9.81152, 12.10.2021 14:33:2.603
646, 1.91605, 0.796976, 251.273, 0, 0, 0, -0.0839844, 0.308594, -9.7666, 12.10.2021 14:33:2.611
647, 1.91605, 0.796976, 251.273, 0, 0, -0.000976562, -0.126953, 0.337891, -9.80957, 12.10.2021 14:33:2.619
648, 1.91605, 0.796976, 251.273, -0.000976562, -0.000976562, 0, -0.135742, 0.350586, -9.74512, 12.10.2021 14:33:2.627
649, 1.91605, 0.796976, 251.273, -0.000976562, -0.000976562, 0, -0.0791016, 0.296875, -9.78516, 12.10.2021 14:33:2.635
650, 1.92012, 0.791293, 251.273, 0, 0.000976562, 0, -0.151367, 0.335938, -9.81641, 12.10.2021 14:33:2.643
651, 1.92012, 0.791293, 251.273, 0, 0, 0, -0.100586, 0.328125, -9.7959, 12.10.2021 14:33:2.651
652, 1.91444, 0.787218, 251.273, 0, -0.000976562, -0.00195312, -0.0908203, 0.301758, -9.7832, 12.10.2021 14:33:2.659
653, 1.91444, 0.787218, 251.273, -0.000976562, -0.00195312, -0.00195312, -0.19043, 0.34375, -9.7373, 12.10.2021 14:33:2.667
654, 1.91444, 0.787218, 251.273, -0.00195312, -0.000976562, -0.000976562, -0.0859375, 0.338867, -9.75586, 12.10.2021 14:33:2.675
655, 1.91851, 0.781534, 251.273, 0, -0.000976562, 0.000976562, -0.131836, 0.34082, -9.82129, 12.10.2021 14:33:2.683
656, 1.91851, 0.781534, 251.273, 0, -0.000976562, 0, -0.15625, 0.365234, -9.81738, 12.10.2021 14:33:2.691
657, 1.91851, 0.781534, 251.273, -0.000976562, -0.000976562, -0.00195312, -0.0771484, 0.324219, -9.82031, 12.10.2021 14:33:2.699
658, 1.91851, 0.781534, 251.273, 0, 0, 0, -0.176758, 0.324219, -9.75, 12.10.2021 14:33:2.707
659, 1.91851, 0.781534, 251.273, -0.000976562, -0.000976562, -0.00195312, -0.119141, 0.353516, -9.75977, 12.10.2021 14:33:2.715
660, 1.92259, 0.775851, 251.273, -0.000976562, -0.000976562, 0, -0.0888672, 0.311523, -9.80664, 12.10.2021 14:33:2.723
661, 1.92259, 0.775851, 251.273, -0.000976562, -0.000976562, 0, -0.173828, 0.34668, -9.75879, 12.10.2021 14:33:2.731
662, 1.92259, 0.775851, 251.273, 0, 0, 0, -0.100586, 0.351562, -9.7793, 12.10.2021 14:33:2.739
663, 1.92259, 0.775851, 251.273, 0, -0.000976562, 0, -0.125, 0.318359, -9.79102, 12.10.2021 14:33:2.747
664, 1.92666, 0.770168, 251.273, -0.000976562, -0.000976562, 0, -0.166992, 0.349609, -9.79004, 12.10.2021 14:33:2.755
665, 1.92666, 0.770168, 251.273, -0.000976562, -0.00195312, 0, -0.0693359, 0.313477, -9.77832, 12.10.2021 14:33:2.763
666, 1.92666, 0.770168, 251.273, -0.000976562, -0.000976562, 0, -0.140625, 0.34375, -9.75977, 12.10.2021 14:33:2.771
667, 1.92666, 0.770168, 251.273, -0.000976562, -0.000976562, 0, -0.152344, 0.336914, -9.76172, 12.10.2021 14:33:2.779
668, 1.93074, 0.764485, 251.273, -0.000976562, -0.000976562, 0, -0.0927734, 0.322266, -9.77246, 12.10.2021 14:33:2.787
669, 1.93074, 0.764485, 251.273, -0.000976562, -0.00195312, 0, -0.171875, 0.328125, -9.78809, 12.10.2021 14:33:2.795
670, 1.93074, 0.764485, 251.273, -0.000976562, -0.000976562, -0.00195312, -0.113281, 0.321289, -9.80762, 12.10.2021 14:33:2.803
671, 1.93074, 0.764485, 251.273, 0, -0.000976562, 0, -0.0839844, 0.326172, -9.81055, 12.10.2021 14:33:2.811
672, 1.93074, 0.764485, 251.273, 0, -0.000976562, 0, -0.174805, 0.380859, -9.78613, 12.10.2021 14:33:2.819
673, 1.93074, 0.764485, 251.273, -0.000976562, -0.000976562, 0, -0.0957031, 0.323242, -9.78027, 12.10.2021 14:33:2.827
674, 1.93074, 0.764485, 251.273, -0.000976562, -0.000976562, 0, -0.143555, 0.327148, -9.76953, 12.10.2021 14:33:2.835
675, 1.93481, 0.758802, 251.273, -0.000976562, -0.000976562, 0, -0.161133, 0.326172, -9.80957, 12.10.2021 14:33:2.843
676, 1.93481, 0.758802, 251.273, -0.000976562, -0.000976562, -0.000976562, -0.0839844, 0.324219, -9.81543, 12.10.2021 14:33:2.851
677, 1.93481, 0.758802, 251.273, 0, 0, 0, -0.18457, 0.323242, -9.79492, 12.10.2021 14:33:2.859
678, 1.93481, 0.758802, 251.273, -0.000976562, -0.00195312, 0, -0.126953, 0.331055, -9.8125, 12.10.2021 14:33:2.867
679, 1.93481, 0.758802, 251.273, 0, -0.00195312, 0, -0.107422, 0.328125, -9.78906, 12.10.2021 14:33:2.875
680, 1.93481, 0.758802, 251.273, -0.000976562, 0, 0, -0.196289, 0.364258, -9.78906, 12.10.2021 14:33:2.883
681, 1.94049, 0.762877, 251.273, -0.000976562, -0.000976562, 0.000976562, -0.0957031, 0.334961, -9.77051, 12.10.2021 14:33:2.891
682, 1.94049, 0.762877, 251.273, -0.000976562, 0, -0.000976562, -0.12207, 0.311523, -9.81055, 12.10.2021 14:33:2.899
683, 1.94049, 0.762877, 251.273, -0.00195312, -0.000976562, 0, -0.165039, 0.326172, -9.81152, 12.10.2021 14:33:2.907
684, 1.94049, 0.762877, 251.273, -0.000976562, -0.000976562, 0.000976562, -0.105469, 0.303711, -9.78516, 12.10.2021 14:33:2.915
685, 1.94049, 0.762877, 251.273, -0.000976562, -0.000976562, 0, -0.140625, 0.325195, -9.75781, 12.10.2021 14:33:2.923
686, 1.94049, 0.762877, 251.273, -0.000976562, -0.00195312, 0, -0.148438, 0.354492, -9.80664, 12.10.2021 14:33:2.931
687, 1.94049, 0.762877, 251.273, 0, -0.000976562, 0, -0.0791016, 0.313477, -9.77344, 12.10.2021 14:33:2.939
688, 1.93642, 0.76856, 251.273, 0, -0.00195312, 0, -0.189453, 0.357422, -9.79883, 12.10.2021 14:33:2.947
689, 1.93642, 0.76856, 251.273, 0, -0.000976562, 0, -0.0976562, 0.339844, -9.77734, 12.10.2021 14:33:2.955
690, 1.94049, 0.762877, 251.273, -0.000976562, 0, -0.000976562, -0.0839844, 0.331055, -9.81055, 12.10.2021 14:33:2.963
691, 1.94049, 0.762877, 251.273, -0.000976562, -0.000976562, 0, -0.171875, 0.328125, -9.77637, 12.10.2021 14:33:2.971
692, 1.94049, 0.762877, 251.273, -0.000976562, -0.000976562, 0, -0.0986328, 0.320312, -9.78223, 12.10.2021 14:33:2.979
693, 1.94023, 0.762846, 251.275, 0, -0.000976562, 0.000976562, -0.149414, 0.341797, -9.83301, 12.10.2021 14:33:2.987
694, 1.94023, 0.762846, 251.275, 0, 0, 0, -0.163086, 0.331055, -9.81152, 12.10.2021 14:33:2.995
695, 1.94023, 0.762846, 251.275, 0, 0, 0, -0.101562, 0.297852, -9.82324, 12.10.2021 14:33:3.003
696, 1.94023, 0.762846, 251.275, 0, -0.000976562, 0, -0.176758, 0.342773, -9.80371, 12.10.2021 14:33:3.011
697, 1.94023, 0.762846, 251.275, -0.000976562, -0.000976562, -0.000976562, -0.136719, 0.354492, -9.78809, 12.10.2021 14:33:3.019
698, 1.94023, 0.762846, 251.275, -0.000976562, 0, 0, -0.108398, 0.324219, -9.81055, 12.10.2021 14:33:3.027
699, 1.93615, 0.768529, 251.274, -0.000976562, 0, 0, -0.191406, 0.347656, -9.79395, 12.10.2021 14:33:3.035
700, 1.93615, 0.768529, 251.274, -0.000976562, 0, 0, -0.110352, 0.351562, -9.77441, 12.10.2021 14:33:3.043
701, 1.93615, 0.768529, 251.274, 0, -0.000976562, 0, -0.12207, 0.323242, -9.77246, 12.10.2021 14:33:3.051
702, 1.93615, 0.768529, 251.274, 0, -0.000976562, 0, -0.155273, 0.336914, -9.76172, 12.10.2021 14:33:3.059
703, 1.93615, 0.768529, 251.274, -0.000976562, 0, 0, -0.0908203, 0.327148, -9.76758, 12.10.2021 14:33:3.067
704, 1.93615, 0.768529, 251.274, 0, -0.000976562, 0, -0.12207, 0.320312, -9.76953, 12.10.2021 14:33:3.075
705, 1.93615, 0.768529, 251.274, 0, -0.000976562, 0, -0.148438, 0.359375, -9.79883, 12.10.2021 14:33:3.083
706, 1.93615, 0.768529, 251.274, -0.000976562, 0, -0.00195312, -0.110352, 0.321289, -9.7959, 12.10.2021 14:33:3.091
707, 1.94023, 0.762846, 251.275, 0, 0, -0.00195312, -0.148438, 0.331055, -9.7998, 12.10.2021 14:33:3.099
708, 1.94049, 0.762877, 251.273, 0, -0.000976562, -0.00195312, -0.0957031, 0.330078, -9.78906, 12.10.2021 14:33:3.107
709, 1.94049, 0.762877, 251.273, -0.000976562, -0.000976562, -0.00195312, -0.118164, 0.3125, -9.83203, 12.10.2021 14:33:3.115
710, 1.94049, 0.762877, 251.273, 0, -0.000976562, 0, -0.194336, 0.329102, -9.81348, 12.10.2021 14:33:3.123
711, 1.94049, 0.762877, 251.273, 0, -0.000976562, 0, -0.0820312, 0.334961, -9.7959, 12.10.2021 14:33:3.131
712, 1.94049, 0.762877, 251.273, 0, 0, -0.00195312, -0.138672, 0.332031, -9.75488, 12.10.2021 14:33:3.139
713, 1.94049, 0.762877, 251.273, 0, 0, -0.00195312, -0.165039, 0.364258, -9.79688, 12.10.2021 14:33:3.147
714, 1.94049, 0.762877, 251.273, 0, 0, -0.00195312, -0.0927734, 0.348633, -9.77441, 12.10.2021 14:33:3.155
715, 1.94049, 0.762877, 251.273, -0.000976562, 0, 0, -0.170898, 0.324219, -9.83301, 12.10.2021 14:33:3.163
716, 1.94049, 0.762877, 251.273, 0, -0.000976562, 0, -0.148438, 0.313477, -9.78613, 12.10.2021 14:33:3.171
717, 1.94049, 0.762877, 251.273, -0.000976562, -0.000976562, 0, -0.103516, 0.301758, -9.79199, 12.10.2021 14:33:3.179
718, 1.94049, 0.762877, 251.273, -0.000976562, -0.000976562, 0, -0.194336, 0.333984, -9.81055, 12.10.2021 14:33:3.187
719, 1.93642, 0.76856, 251.273, -0.000976562, 0, -0.00195312, -0.12793, 0.297852, -9.82227, 12.10.2021 14:33:3.195
720, 1.93642, 0.76856, 251.273, -0.000976562, -0.000976562, -0.00195312, -0.126953, 0.323242, -9.7959, 12.10.2021 14:33:3.203
721, 1.93642, 0.76856, 251.273, 0, -0.00195312, -0.00195312, -0.160156, 0.361328, -9.77539, 12.10.2021 14:33:3.211
722, 1.93617, 0.768684, 251.283, 0, -0.000976562, 0, -0.0771484, 0.299805, -9.79297, 12.10.2021 14:33:3.219
723, 1.93617, 0.768684, 251.283, -0.000976562, -0.000976562, -0.00195312, -0.160156, 0.342773, -9.78516, 12.10.2021 14:33:3.227
724, 1.9321, 0.774367, 251.283, 0, 0.000976562, -0.000976562, -0.148438, 0.323242, -9.79297, 12.10.2021 14:33:3.235
725, 1.9321, 0.774367, 251.283, 0, 0, 0, -0.0830078, 0.31543, -9.75391, 12.10.2021 14:33:3.241
726, 1.9321, 0.774367, 251.283, -0.000976562, -0.000976562, 0, -0.196289, 0.357422, -9.7959, 12.10.2021 14:33:3.249
727, 1.9321, 0.774367, 251.283, -0.000976562, -0.000976562, 0, -0.136719, 0.328125, -9.78809, 12.10.2021 14:33:3.257
728, 1.9321, 0.774367, 251.283, -0.000976562, -0.00195312, -0.00195312, -0.101562, 0.310547, -9.83887, 12.10.2021 14:33:3.265
729, 1.9321, 0.774367, 251.283, -0.000976562, 0, 0, -0.185547, 0.351562, -9.75879, 12.10.2021 14:33:3.273
730, 1.9321, 0.774367, 251.283, -0.000976562, 0, -0.00195312, -0.110352, 0.318359, -9.80078, 12.10.2021 14:33:3.281
731, 1.9321, 0.774367, 251.283, -0.000976562, 0, 0, -0.15332, 0.333984, -9.81836, 12.10.2021 14:33:3.289
732, 1.9321, 0.774367, 251.283, -0.000976562, -0.000976562, 0, -0.166992, 0.341797, -9.77344, 12.10.2021 14:33:3.297
733, 1.92802, 0.78005, 251.283, -0.000976562, -0.000976562, -0.00195312, -0.107422, 0.291992, -9.77344, 12.10.2021 14:33:3.305
734, 1.92802, 0.78005, 251.283, -0.000976562, 0, 0, -0.15332, 0.339844, -9.78125, 12.10.2021 14:33:3.313
735, 1.92802, 0.78005, 251.283, 0, -0.000976562, 0, -0.103516, 0.318359, -9.7959, 12.10.2021 14:33:3.321
736, 1.92802, 0.78005, 251.283, 0, 0, -0.000976562, -0.0859375, 0.313477, -9.79004, 12.10.2021 14:33:3.329
737, 1.92802, 0.78005, 251.283, -0.000976562, -0.000976562, 0, -0.18457, 0.348633, -9.82715, 12.10.2021 14:33:3.337
738, 1.92802, 0.78005, 251.283, -0.000976562, -0.000976562, 0, -0.105469, 0.318359, -9.80078, 12.10.2021 14:33:3.345
739, 1.92802, 0.78005, 251.283, -0.000976562, -0.000976562, 0, -0.136719, 0.311523, -9.78906, 12.10.2021 14:33:3.353
740, 1.92802, 0.78005, 251.283, -0.000976562, -0.000976562, 0, -0.143555, 0.330078, -9.78809, 12.10.2021 14:33:3.361
741, 1.92802, 0.78005, 251.283, 0, -0.000976562, 0, -0.103516, 0.326172, -9.79395, 12.10.2021 14:33:3.369
742, 1.92802, 0.78005, 251.283, 0, -0.000976562, 0, -0.178711, 0.330078, -9.77148, 12.10.2021 14:33:3.377
743, 1.92395, 0.785733, 251.282, -0.000976562, -0.000976562, -0.000976562, -0.155273, 0.342773, -9.79199, 12.10.2021 14:33:3.385
744, 1.92395, 0.785733, 251.282, 0, -0.00195312, -0.000976562, -0.0820312, 0.296875, -9.78809, 12.10.2021 14:33:3.393
745, 1.92395, 0.785733, 251.282, 0, 0, -0.000976562, -0.181641, 0.342773, -9.78711, 12.10.2021 14:33:3.401
746, 1.92395, 0.785733, 251.282, -0.000976562, -0.000976562, 0, -0.109375, 0.333984, -9.75781, 12.10.2021 14:33:3.409
747, 1.92395, 0.785733, 251.282, -0.00195312, -0.000976562, 0.000976562, -0.133789, 0.311523, -9.78613, 12.10.2021 14:33:3.417
748, 1.92395, 0.785733, 251.282, -0.000976562, -0.00195312, 0, -0.18457, 0.329102, -9.81836, 12.10.2021 14:33:3.425
749, 1.92395, 0.785733, 251.282, -0.000976562, -0.00195312, 0, -0.0820312, 0.328125, -9.78711, 12.10.2021 14:33:3.433
750, 1.92395, 0.785733, 251.282, 0, -0.000976562, 0, -0.143555, 0.318359, -9.79785, 12.10.2021 14:33:3.441
751, 1.91988, 0.791417, 251.282, -0.000976562, -0.000976562, 0, -0.145508, 0.306641, -9.78613, 12.10.2021 14:33:3.449
752, 1.9142, 0.787341, 251.282, 0, -0.000976562, 0, -0.0625, 0.316406, -9.80859, 12.10.2021 14:33:3.457
753, 1.9142, 0.787341, 251.282, 0, -0.000976562, 0, -0.167969, 0.331055, -9.80176, 12.10.2021 14:33:3.465
754, 1.91444, 0.787218, 251.273, -0.000976562, -0.000976562, 0.000976562, -0.113281, 0.335938, -9.82129, 12.10.2021 14:33:3.473
755, 1.91444, 0.787218, 251.273, 0.000976562, -0.000976562, 0, -0.0869141, 0.328125, -9.79395, 12.10.2021 14:33:3.481
756, 1.91444, 0.787218, 251.273, 0, -0.000976562, 0, -0.192383, 0.358398, -9.8291, 12.10.2021 14:33:3.489
757, 1.91444, 0.787218, 251.273, 0, -0.000976562, 0, -0.116211, 0.317383, -9.83594, 12.10.2021 14:33:3.497
758, 1.90876, 0.783142, 251.273, 0, 0, 0, -0.139648, 0.297852, -9.81738, 12.10.2021 14:33:3.505
759, 1.90876, 0.783142, 251.273, 0, 0, 0, -0.186523, 0.357422, -9.80371, 12.10.2021 14:33:3.513
760, 1.90876, 0.783142, 251.273, -0.000976562, -0.000976562, -0.000976562, -0.0820312, 0.314453, -9.82324, 12.10.2021 14:33:3.521
761, 1.90876, 0.783142, 251.273, -0.000976562, -0.000976562, 0, -0.191406, 0.314453, -9.81152, 12.10.2021 14:33:3.529
762, 1.90876, 0.783142, 251.273, -0.00195312, -0.00195312, 0, -0.15332, 0.353516, -9.82324, 12.10.2021 14:33:3.537
763, 1.91444, 0.787218, 251.273, 0, -0.00195312, 0, -0.107422, 0.305664, -9.75879, 12.10.2021 14:33:3.545
764, 1.91444, 0.787218, 251.273, -0.000976562, -0.00195312, -0.000976562, -0.188477, 0.34082, -9.7373, 12.10.2021 14:33:3.553
765, 1.91444, 0.787218, 251.273, -0.000976562, -0.000976562, -0.000976562, -0.138672, 0.323242, -9.78809, 12.10.2021 14:33:3.561
766, 1.91037, 0.792901, 251.273, 0, -0.000976562, 0, -0.126953, 0.328125, -9.78125, 12.10.2021 14:33:3.569
767, 1.91037, 0.792901, 251.273, -0.000976562, 0, 0, -0.176758, 0.320312, -9.77832, 12.10.2021 14:33:3.577
768, 1.91037, 0.792901, 251.273, -0.000976562, 0, -0.000976562, -0.0996094, 0.338867, -9.75293, 12.10.2021 14:33:3.585
769, 1.91037, 0.792901, 251.273, -0.000976562, -0.00195312, -0.000976562, -0.181641, 0.318359, -9.77148, 12.10.2021 14:33:3.593
770, 1.91605, 0.796976, 251.273, 0, 0, 0, -0.167969, 0.337891, -9.79688, 12.10.2021 14:33:3.601
771, 1.91605, 0.796976, 251.273, -0.000976562, 0.000976562, 0.000976562, -0.0888672, 0.328125, -9.78711, 12.10.2021 14:33:3.609
772, 1.91197, 0.80266, 251.273, -0.000976562, 0, -0.000976562, -0.160156, 0.335938, -9.80176, 12.10.2021 14:33:3.617
773, 1.91197, 0.80266, 251.273, 0, 0, 0, -0.148438, 0.339844, -9.79492, 12.10.2021 14:33:3.625
774, 1.91197, 0.80266, 251.273, -0.000976562, 0.000976562, 0, -0.117188, 0.304688, -9.80371, 12.10.2021 14:33:3.633
775, 1.91197, 0.80266, 251.273, -0.000976562, 0, -0.000976562, -0.189453, 0.360352, -9.83203, 12.10.2021 14:33:3.641
776, 1.91197, 0.80266, 251.273, -0.000976562, 0, 0, -0.0888672, 0.30957, -9.81348, 12.10.2021 14:33:3.649
777, 1.91197, 0.80266, 251.273, -0.000976562, 0, 0, -0.12207, 0.301758, -9.79883, 12.10.2021 14:33:3.657
778, 1.91197, 0.80266, 251.273, -0.000976562, 0, -0.000976562, -0.170898, 0.338867, -9.83496, 12.10.2021 14:33:3.665
779, 1.91197, 0.80266, 251.273, 0, 0.000976562, 0, -0.09375, 0.323242, -9.78711, 12.10.2021 14:33:3.673
780, 1.91197, 0.80266, 251.273, -0.000976562, 0, 0, -0.161133, 0.320312, -9.83984, 12.10.2021 14:33:3.681
781, 1.91197, 0.80266, 251.273, -0.000976562, 0, 0, -0.136719, 0.345703, -9.81836, 12.10.2021 14:33:3.689
782, 1.91197, 0.80266, 251.273, -0.000976562, 0, 0, -0.0810547, 0.303711, -9.78027, 12.10.2021 14:33:3.697
783, 1.91197, 0.80266, 251.273, 0.000976562, -0.00195312, 0, -0.176758, 0.366211, -9.7793, 12.10.2021 14:33:3.705
784, 1.91197, 0.80266, 251.273, 0.000976562, 0, 0.000976562, -0.115234, 0.342773, -9.80469, 12.10.2021 14:33:3.713
785, 1.91197, 0.80266, 251.273, 0, 0, 0, -0.125977, 0.327148, -9.75586, 12.10.2021 14:33:3.721
786, 1.91197, 0.80266, 251.273, 0, 0.000976562, 0, -0.19043, 0.330078, -9.7666, 12.10.2021 14:33:3.729
787, 1.91197, 0.80266, 251.273, -0.000976562, 0, 0, -0.0742188, 0.299805, -9.79688, 12.10.2021 14:33:3.737
788, 1.91197, 0.80266, 251.273, -0.000976562, -0.00195312, 0, -0.131836, 0.314453, -9.81738, 12.10.2021 14:33:3.745
789, 1.91197, 0.80266, 251.273, 0, -0.00195312, 0, -0.175781, 0.320312, -9.83984, 12.10.2021 14:33:3.753
790, 1.91197, 0.80266, 251.273, 0, -0.00195312, -0.000976562, -0.0673828, 0.306641, -9.80664, 12.10.2021 14:33:3.761
791, 1.91197, 0.80266, 251.273, -0.000976562, 0, -0.000976562, -0.177734, 0.327148, -9.81836, 12.10.2021 14:33:3.769
792, 1.91197, 0.80266, 251.273, 0, 0.000976562, 0, -0.112305, 0.333008, -9.7959, 12.10.2021 14:33:3.777
793, 1.90629, 0.798584, 251.273, 0, 0, 0, -0.0888672, 0.30957, -9.80176, 12.10.2021 14:33:3.785
794, 1.90629, 0.798584, 251.273, -0.000976562, -0.00195312, -0.000976562, -0.203125, 0.352539, -9.79883, 12.10.2021 14:33:3.793
795, 1.91037, 0.792901, 251.273, -0.000976562, 0.000976562, -0.000976562, -0.09375, 0.326172, -9.79395, 12.10.2021 14:33:3.801
796, 1.91037, 0.792901, 251.273, -0.000976562, 0.000976562, 0, -0.133789, 0.298828, -9.75586, 12.10.2021 14:33:3.809
797, 1.91037, 0.792901, 251.273, -0.000976562, 0, 0, -0.166992, 0.354492, -9.79004, 12.10.2021 14:33:3.817
798, 1.91037, 0.792901, 251.273, -0.000976562, 0.000976562, 0, -0.0693359, 0.303711, -9.7666, 12.10.2021 14:33:3.825
799, 1.91037, 0.792901, 251.273, -0.000976562, -0.000976562, 0, -0.15332, 0.337891, -9.78809, 12.10.2021 14:33:3.833
800, 1.91037, 0.792901, 251.273, -0.000976562, -0.000976562, -0.000976562, -0.165039, 0.320312, -9.78125, 12.10.2021 14:33:3.841
801, 1.90469, 0.788826, 251.273, 0, -0.000976562, 0, -0.0839844, 0.34668, -9.78613, 12.10.2021 14:33:3.849
802, 1.90469, 0.788826, 251.273, -0.000976562, -0.000976562, 0, -0.163086, 0.333984, -9.81348, 12.10.2021 14:33:3.857
803, 1.90876, 0.783142, 251.273, -0.000976562, 0.000976562, 0, -0.140625, 0.348633, -9.77148, 12.10.2021 14:33:3.865
804, 1.90876, 0.783142, 251.273, 0, -0.000976562, -0.000976562, -0.118164, 0.333984, -9.81934, 12.10.2021 14:33:3.873
805, 1.91444, 0.787218, 251.273, 0, -0.000976562, -0.000976562, -0.186523, 0.323242, -9.77344, 12.10.2021 14:33:3.881
806, 1.91444, 0.787218, 251.273, -0.000976562, -0.00195312, 0, -0.0986328, 0.318359, -9.78906, 12.10.2021 14:33:3.889
807, 1.91444, 0.787218, 251.273, -0.000976562, -0.000976562, 0, -0.157227, 0.336914, -9.76172, 12.10.2021 14:33:3.897
808, 1.91444, 0.787218, 251.273, 0, -0.00195312, 0, -0.179688, 0.34082, -9.79883, 12.10.2021 14:33:3.905
809, 1.91444, 0.787218, 251.273, -0.000976562, -0.000976562, 0, -0.100586, 0.322266, -9.75586, 12.10.2021 14:33:3.913
810, 1.91444, 0.787218, 251.273, -0.000976562, -0.000976562, 0, -0.168945, 0.329102, -9.75293, 12.10.2021 14:33:3.921
811, 1.91444, 0.787218, 251.273, -0.000976562, 0.000976562, 0, -0.128906, 0.344727, -9.7832, 12.10.2021 14:33:3.929
812, 1.91444, 0.787218, 251.273, -0.000976562, -0.000976562, 0, -0.12207, 0.326172, -9.7959, 12.10.2021 14:33:3.937
813, 1.92012, 0.791293, 251.273, -0.000976562, -0.000976562, -0.000976562, -0.176758, 0.357422, -9.79395, 12.10.2021 14:33:3.945
814, 1.92012, 0.791293, 251.273, 0, -0.000976562, -0.000976562, -0.126953, 0.361328, -9.7832, 12.10.2021 14:33:3.953
815, 1.92012, 0.791293, 251.273, -0.000976562, -0.000976562, 0, -0.12207, 0.323242, -9.77246, 12.10.2021 14:33:3.961
816, 1.92012, 0.791293, 251.273, -0.000976562, 0.000976562, 0, -0.169922, 0.3125, -9.80957, 12.10.2021 14:33:3.969
817, 1.92012, 0.791293, 251.273, -0.000976562, -0.000976562, 0, -0.101562, 0.316406, -9.81543, 12.10.2021 14:33:3.977
818, 1.9258, 0.795369, 251.273, -0.000976562, 0.000976562, -0.000976562, -0.143555, 0.34082, -9.80957, 12.10.2021 14:33:3.985
819, 1.92556, 0.795492, 251.282, 0, 0.000976562, -0.000976562, -0.165039, 0.354492, -9.79199, 12.10.2021 14:33:3.993
820, 1.92556, 0.795492, 251.282, -0.000976562, -0.000976562, 0, -0.106445, 0.302734, -9.82227, 12.10.2021 14:33:4.001
821, 1.92556, 0.795492, 251.282, -0.000976562, 0.000976562, 0, -0.226562, 0.352539, -9.78418, 12.10.2021 14:33:4.009
822, 1.92556, 0.795492, 251.282, -0.000976562, 0.000976562, 0, -0.138672, 0.328125, -9.79102, 12.10.2021 14:33:4.017
823, 1.9258, 0.795369, 251.273, -0.000976562, -0.000976562, 0, -0.115234, 0.316406, -9.79395, 12.10.2021 14:33:4.025
824, 1.93148, 0.799444, 251.273, 0, -0.000976562, 0, -0.181641, 0.325195, -9.75488, 12.10.2021 14:33:4.033
825, 1.92741, 0.805127, 251.273, 0, -0.000976562, 0, -0.0722656, 0.333008, -9.80371, 12.10.2021 14:33:4.041
826, 1.92741, 0.805127, 251.273, -0.000976562, 0.000976562, 0, -0.167969, 0.321289, -9.79785, 12.10.2021 14:33:4.049
827, 1.92741, 0.805127, 251.273, -0.000976562, 0.000976562, -0.000976562, -0.150391, 0.321289, -9.79102, 12.10.2021 14:33:4.057
828, 1.92741, 0.805127, 251.273, -0.000976562, -0.000976562, 0, -0.0722656, 0.310547, -9.77344, 12.10.2021 14:33:4.065
829, 1.92741, 0.805127, 251.273, 0, -0.000976562, 0, -0.165039, 0.318359, -9.77637, 12.10.2021 14:33:4.073
830, 1.92716, 0.805252, 251.282, -0.000976562, -0.000976562, -0.000976562, -0.148438, 0.328125, -9.79102, 12.10.2021 14:33:4.081
831, 1.92716, 0.805252, 251.282, -0.000976562, -0.000976562, -0.000976562, -0.115234, 0.325195, -9.77441, 12.10.2021 14:33:4.089
832, 1.92716, 0.805252, 251.282, -0.000976562, -0.00195312, -0.000976562, -0.191406, 0.339844, -9.78027, 12.10.2021 14:33:4.097
833, 1.92716, 0.805252, 251.282, 0.000976562, -0.000976562, -0.000976562, -0.111328, 0.348633, -9.83105, 12.10.2021 14:33:4.105
834, 1.92716, 0.805252, 251.282, 0, -0.000976562, 0, -0.148438, 0.316406, -9.8125, 12.10.2021 14:33:4.113
835, 1.92716, 0.805252, 251.282, 0, -0.000976562, -0.000976562, -0.170898, 0.341797, -9.83008, 12.10.2021 14:33:4.121
836, 1.92716, 0.805252, 251.282, -0.000976562, -0.000976562, 0, -0.0654297, 0.321289, -9.81348, 12.10.2021 14:33:4.129
837, 1.92716, 0.805252, 251.282, -0.000976562, 0, 0, -0.141602, 0.316406, -9.7959, 12.10.2021 14:33:4.137
838, 1.92716, 0.805252, 251.282, 0, -0.000976562, 0.000976562, -0.150391, 0.330078, -9.79004, 12.10.2021 14:33:4.145
839, 1.92148, 0.801176, 251.282, -0.000976562, -0.000976562, 0, -0.0878906, 0.327148, -9.75391, 12.10.2021 14:33:4.153
840, 1.92148, 0.801176, 251.282, -0.000976562, -0.000976562, 0, -0.174805, 0.333008, -9.7832, 12.10.2021 14:33:4.161
841, 1.92148, 0.801176, 251.282, 0, 0, 0, -0.136719, 0.330078, -9.79102, 12.10.2021 14:33:4.169
842, 1.92148, 0.801176, 251.282, 0, 0, 0, -0.115234, 0.314453, -9.82227, 12.10.2021 14:33:4.177
843, 1.92173, 0.801052, 251.273, 0, -0.000976562, 0, -0.174805, 0.349609, -9.78516, 12.10.2021 14:33:4.185
844, 1.92173, 0.801052, 251.273, -0.000976562, -0.000976562, 0, -0.0986328, 0.321289, -9.79883, 12.10.2021 14:33:4.193
845, 1.92173, 0.801052, 251.273, -0.000976562, -0.000976562, 0, -0.15332, 0.333984, -9.80957, 12.10.2021 14:33:4.201
846, 1.92173, 0.801052, 251.273, 0.000976562, -0.000976562, 0, -0.138672, 0.328125, -9.7998, 12.10.2021 14:33:4.207
847, 1.92173, 0.801052, 251.273, 0, -0.000976562, 0, -0.0644531, 0.322266, -9.77344, 12.10.2021 14:33:4.215
848, 1.92173, 0.801052, 251.273, 0, -0.00195312, 0, -0.171875, 0.337891, -9.79199, 12.10.2021 14:33:4.223
849, 1.92173, 0.801052, 251.273, -0.000976562, -0.000976562, 0, -0.151367, 0.328125, -9.7998, 12.10.2021 14:33:4.231
850, 1.92173, 0.801052, 251.273, -0.000976562, 0, -0.000976562, -0.101562, 0.304688, -9.81836, 12.10.2021 14:33:4.239
851, 1.92173, 0.801052, 251.273, -0.000976562, 0, 0, -0.18457, 0.333984, -9.83203, 12.10.2021 14:33:4.247
852, 1.92173, 0.801052, 251.273, 0, -0.000976562, 0.000976562, -0.141602, 0.331055, -9.82129, 12.10.2021 14:33:4.255
853, 1.91605, 0.796976, 251.273, -0.000976562, -0.000976562, 0, -0.108398, 0.321289, -9.7959, 12.10.2021 14:33:4.263
854, 1.91605, 0.796976, 251.273, -0.000976562, -0.000976562, 0, -0.162109, 0.356445, -9.76562, 12.10.2021 14:33:4.271
855, 1.91605, 0.796976, 251.273, -0.000976562, -0.000976562, 0, -0.0957031, 0.306641, -9.80176, 12.10.2021 14:33:4.279
856, 1.91605, 0.796976, 251.273, -0.000976562, -0.000976562, 0, -0.163086, 0.326172, -9.80469, 12.10.2021 14:33:4.287
857, 1.91605, 0.796976, 251.273, 0, 0, 0, -0.12207, 0.335938, -9.80957, 12.10.2021 14:33:4.295
858, 1.91605, 0.796976, 251.273, 0, -0.00195312, -0.000976562, -0.0869141, 0.302734, -9.81641, 12.10.2021 14:33:4.303
859, 1.91605, 0.796976, 251.273, 0.000976562, -0.000976562, 0, -0.195312, 0.328125, -9.77051, 12.10.2021 14:33:4.311
860, 1.91605, 0.796976, 251.273, 0, -0.000976562, 0, -0.131836, 0.331055, -9.7998, 12.10.2021 14:33:4.319
861, 1.91605, 0.796976, 251.273, 0, -0.000976562, -0.000976562, -0.108398, 0.316406, -9.80078, 12.10.2021 14:33:4.327
862, 1.91605, 0.796976, 251.273, 0, -0.000976562, -0.00195312, -0.192383, 0.345703, -9.82715, 12.10.2021 14:33:4.335
863, 1.91605, 0.796976, 251.273, 0, 0, -0.000976562, -0.0869141, 0.306641, -9.80859, 12.10.2021 14:33:4.343
864, 1.91037, 0.792901, 251.273, 0, -0.000976562, -0.000976562, -0.125, 0.305664, -9.83203, 12.10.2021 14:33:4.351
865, 1.91037, 0.792901, 251.273, 0, -0.000976562, -0.000976562, -0.150391, 0.334961, -9.77148, 12.10.2021 14:33:4.359
866, 1.91012, 0.793024, 251.282, 0, -0.00195312, -0.000976562, -0.0810547, 0.305664, -9.77539, 12.10.2021 14:33:4.367
867, 1.91012, 0.793024, 251.282, -0.000976562, -0.000976562, -0.000976562, -0.18457, 0.352539, -9.80078, 12.10.2021 14:33:4.375
868, 1.91012, 0.793024, 251.282, 0, -0.000976562, -0.000976562, -0.117188, 0.344727, -9.78809, 12.10.2021 14:33:4.383
869, 1.91012, 0.793024, 251.282, 0, -0.000976562, 0, -0.0898438, 0.286133, -9.82324, 12.10.2021 14:33:4.391
870, 1.91012, 0.793024, 251.282, 0, -0.000976562, -0.000976562, -0.201172, 0.335938, -9.79395, 12.10.2021 14:33:4.399
871, 1.90444, 0.788948, 251.282, 0, -0.000976562, 0, -0.0917969, 0.316406, -9.80859, 12.10.2021 14:33:4.407
872, 1.90444, 0.788948, 251.282, 0.000976562, -0.000976562, 0.000976562, -0.117188, 0.313477, -9.78223, 12.10.2021 14:33:4.415
873, 1.90444, 0.788948, 251.282, 0, -0.000976562, 0, -0.163086, 0.335938, -9.80176, 12.10.2021 14:33:4.423
874, 1.90444, 0.788948, 251.282, 0, -0.000976562, 0, -0.0859375, 0.310547, -9.78027, 12.10.2021 14:33:4.431
875, 1.90444, 0.788948, 251.282, 0, -0.000976562, 0, -0.171875, 0.333008, -9.79199, 12.10.2021 14:33:4.439
876, 1.90444, 0.788948, 251.282, -0.000976562, -0.000976562, 0, -0.151367, 0.333008, -9.80176, 12.10.2021 14:33:4.447
877, 1.89876, 0.784872, 251.282, 0, -0.000976562, 0.000976562, -0.0791016, 0.325195, -9.77539, 12.10.2021 14:33:4.455
878, 1.90469, 0.788826, 251.273, -0.000976562, -0.000976562, 0, -0.193359, 0.348633, -9.75195, 12.10.2021 14:33:4.463
879, 1.90469, 0.788826, 251.273, -0.000976562, -0.000976562, 0.000976562, -0.136719, 0.354492, -9.79688, 12.10.2021 14:33:4.471
880, 1.90469, 0.788826, 251.273, -0.000976562, -0.000976562, 0, -0.110352, 0.321289, -9.81738, 12.10.2021 14:33:4.479
881, 1.90469, 0.788826, 251.273, -0.000976562, -0.000976562, 0, -0.201172, 0.354492, -9.79395, 12.10.2021 14:33:4.487
882, 1.90469, 0.788826, 251.273, -0.000976562, -0.000976562, 0, -0.0966797, 0.342773, -9.8125, 12.10.2021 14:33:4.495
883, 1.90876, 0.783142, 251.273, -0.000976562, -0.000976562, 0, -0.132812, 0.327148, -9.83105, 12.10.2021 14:33:4.503
884, 1.91444, 0.787218, 251.273, -0.00195312, -0.000976562, -0.000976562, -0.166992, 0.349609, -9.78223, 12.10.2021 14:33:4.511
885, 1.91444, 0.787218, 251.273, -0.000976562, -0.000976562, -0.000976562, -0.09375, 0.314453, -9.80371, 12.10.2021 14:33:4.519
886, 1.91444, 0.787218, 251.273, -0.000976562, -0.000976562, -0.000976562, -0.189453, 0.319336, -9.79688, 12.10.2021 14:33:4.527
887, 1.9142, 0.787341, 251.282, -0.000976562, -0.000976562, -0.00195312, -0.138672, 0.339844, -9.79004, 12.10.2021 14:33:4.535
888, 1.9142, 0.787341, 251.282, -0.000976562, -0.000976562, 0, -0.115234, 0.331055, -9.7959, 12.10.2021 14:33:4.543
889, 1.91988, 0.791417, 251.282, -0.000976562, -0.000976562, 0, -0.212891, 0.326172, -9.79004, 12.10.2021 14:33:4.551
890, 1.91988, 0.791417, 251.282, -0.000976562, -0.000976562, 0, -0.115234, 0.321289, -9.80762, 12.10.2021 14:33:4.559
891, 1.91988, 0.791417, 251.282, 0, 0, 0, -0.128906, 0.305664, -9.74707, 12.10.2021 14:33:4.567
892, 1.9158, 0.7971, 251.282, -0.000976562, -0.000976562, 0, -0.181641, 0.337891, -9.80371, 12.10.2021 14:33:4.575
893, 1.9158, 0.7971, 251.282, -0.000976562, 0, 0, -0.0820312, 0.306641, -9.79688, 12.10.2021 14:33:4.583
894, 1.91605, 0.796976, 251.273, -0.000976562, 0, 0, -0.158203, 0.34375, -9.81641, 12.10.2021 14:33:4.591
895, 1.91605, 0.796976, 251.273, 0, -0.000976562, 0, -0.160156, 0.323242, -9.77832, 12.10.2021 14:33:4.599
896, 1.9158, 0.7971, 251.282, -0.000976562, -0.00195312, -0.000976562, -0.0869141, 0.304688, -9.81543, 12.10.2021 14:33:4.607
897, 1.9158, 0.7971, 251.282, -0.000976562, -0.000976562, 0, -0.203125, 0.326172, -9.81152, 12.10.2021 14:33:4.615
898, 1.92173, 0.801052, 251.273, -0.000976562, 0, 0.000976562, -0.117188, 0.344727, -9.80273, 12.10.2021 14:33:4.623
899, 1.91605, 0.796976, 251.273, -0.000976562, 0.000976562, 0, -0.108398, 0.304688, -9.80371, 12.10.2021 14:33:4.631
900, 1.91605, 0.796976, 251.273, 0, -0.000976562, 0.000976562, -0.160156, 0.334961, -9.76172, 12.10.2021 14:33:4.639
901, 1.91605, 0.796976, 251.273, -0.000976562, 0.000976562, 0, -0.0996094, 0.327148, -9.75098, 12.10.2021 14:33:4.647
902, 1.91605, 0.796976, 251.273, -0.000976562, -0.000976562, -0.000976562, -0.120117, 0.357422, -9.81152, 12.10.2021 14:33:4.655
903, 1.91605, 0.796976, 251.273, -0.000976562, -0.000976562, 0, -0.160156, 0.334961, -9.76855, 12.10.2021 14:33:4.663
904, 1.91605, 0.796976, 251.273, 0, -0.00195312, -0.000976562, -0.0917969, 0.28125, -9.81152, 12.10.2021 14:33:4.671
905, 1.91605, 0.796976, 251.273, 0, -0.000976562, 0, -0.176758, 0.313477, -9.7627, 12.10.2021 14:33:4.679
906, 1.91605, 0.796976, 251.273, -0.000976562, -0.00195312, 0, -0.15625, 0.307617, -9.80762, 12.10.2021 14:33:4.687
907, 1.91605, 0.796976, 251.273, 0, -0.00195312, 0, -0.0986328, 0.301758, -9.79883, 12.10.2021 14:33:4.695
908, 1.91197, 0.80266, 251.273, 0, -0.000976562, 0, -0.166992, 0.351562, -9.78027, 12.10.2021 14:33:4.703
909, 1.91197, 0.80266, 251.273, 0, 0.00195312, 0, -0.108398, 0.328125, -9.80762, 12.10.2021 14:33:4.711
910, 1.90629, 0.798584, 251.273, 0, 0.000976562, 0, -0.112305, 0.323242, -9.7793, 12.10.2021 14:33:4.719
911, 1.90629, 0.798584, 251.273, -0.000976562, 0.000976562, 0, -0.18457, 0.333008, -9.79199, 12.10.2021 14:33:4.727
912, 1.91037, 0.792901, 251.273, -0.000976562, -0.000976562, 0, -0.0566406, 0.304688, -9.73633, 12.10.2021 14:33:4.735
913, 1.91037, 0.792901, 251.273, -0.000976562, -0.000976562, 0, -0.150391, 0.322266, -9.75488, 12.10.2021 14:33:4.743
914, 1.91037, 0.792901, 251.273, -0.000976562, -0.000976562, -0.000976562, -0.155273, 0.333008, -9.77832, 12.10.2021 14:33:4.751
915, 1.91037, 0.792901, 251.273, 0, -0.000976562, 0, -0.101562, 0.308594, -9.84375, 12.10.2021 14:33:4.759
916, 1.91037, 0.792901, 251.273, -0.000976562, -0.000976562, 0, -0.169922, 0.328125, -9.78125, 12.10.2021 14:33:4.767
917, 1.90469, 0.788826, 251.273, 0, -0.000976562, -0.000976562, -0.105469, 0.337891, -9.79297, 12.10.2021 14:33:4.775
918, 1.90469, 0.788826, 251.273, 0, 0.000976562, -0.000976562, -0.118164, 0.314453, -9.82422, 12.10.2021 14:33:4.783
919, 1.90469, 0.788826, 251.273, -0.000976562, -0.000976562, -0.000976562, -0.186523, 0.352539, -9.79199, 12.10.2021 14:33:4.791
920, 1.90469, 0.788826, 251.273, -0.000976562, -0.000976562, -0.000976562, -0.0693359, 0.325195, -9.77539, 12.10.2021 14:33:4.799
921, 1.90469, 0.788826, 251.273, 0, -0.000976562, 0, -0.130859, 0.317383, -9.75293, 12.10.2021 14:33:4.807
922, 1.90469, 0.788826, 251.273, 0, -0.000976562, 0, -0.178711, 0.353516, -9.76367, 12.10.2021 14:33:4.815
923, 1.90469, 0.788826, 251.273, 0, -0.000976562, 0, -0.0839844, 0.316406, -9.79688, 12.10.2021 14:33:4.823
924, 1.90469, 0.788826, 251.273, 0, -0.000976562, 0, -0.158203, 0.326172, -9.81641, 12.10.2021 14:33:4.831
925, 1.90469, 0.788826, 251.273, 0, -0.000976562, 0, -0.114258, 0.327148, -9.75781, 12.10.2021 14:33:4.839
926, 1.90308, 0.779067, 251.273, 0, -0.000976562, 0, -0.100586, 0.294922, -9.80664, 12.10.2021 14:33:4.847
927, 1.89901, 0.78475, 251.273, 0.000976562, -0.00195312, 0, -0.196289, 0.355469, -9.82227, 12.10.2021 14:33:4.855
928, 1.89901, 0.78475, 251.273, 0, -0.00195312, -0.000976562, -0.126953, 0.352539, -9.79297, 12.10.2021 14:33:4.863
929, 1.89901, 0.78475, 251.273, -0.000976562, -0.000976562, -0.000976562, -0.128906, 0.294922, -9.78906, 12.10.2021 14:33:4.871
930, 1.90444, 0.788948, 251.282, 0, -0.00195312, -0.000976562, -0.186523, 0.334961, -9.78711, 12.10.2021 14:33:4.879
931, 1.90444, 0.788948, 251.282, -0.000976562, -0.000976562, 0, -0.0898438, 0.313477, -9.85059, 12.10.2021 14:33:4.887
932, 1.90444, 0.788948, 251.282, -0.000976562, -0.000976562, 0, -0.126953, 0.347656, -9.80469, 12.10.2021 14:33:4.895
933, 1.90852, 0.783265, 251.282, -0.000976562, 0, 0, -0.138672, 0.337891, -9.79297, 12.10.2021 14:33:4.903
934, 1.90876, 0.783142, 251.273, 0, -0.000976562, 0.000976562, -0.0771484, 0.323242, -9.78711, 12.10.2021 14:33:4.911
935, 1.90876, 0.783142, 251.273, -0.000976562, -0.000976562, 0.000976562, -0.145508, 0.334961, -9.7666, 12.10.2021 14:33:4.919
936, 1.90876, 0.783142, 251.273, -0.000976562, -0.000976562, 0.000976562, -0.131836, 0.352539, -9.79688, 12.10.2021 14:33:4.927
937, 1.90876, 0.783142, 251.273, 0, -0.000976562, 0.000976562, -0.12207, 0.313477, -9.78711, 12.10.2021 14:33:4.935
938, 1.90876, 0.783142, 251.273, 0.000976562, -0.000976562, 0, -0.201172, 0.34082, -9.80371, 12.10.2021 14:33:4.943
939, 1.90876, 0.783142, 251.273, 0, -0.000976562, 0, -0.0791016, 0.321289, -9.79395, 12.10.2021 14:33:4.951
940, 1.90876, 0.783142, 251.273, 0, -0.000976562, 0, -0.146484, 0.349609, -9.79199, 12.10.2021 14:33:4.959
941, 1.91283, 0.777459, 251.273, 0, -0.000976562, 0, -0.160156, 0.356445, -9.76367, 12.10.2021 14:33:4.967
942, 1.91258, 0.77743, 251.274, 0, -0.000976562, 0, -0.0869141, 0.308594, -9.79492, 12.10.2021 14:33:4.975
943, 1.91258, 0.77743, 251.274, 0, -0.000976562, 0, -0.143555, 0.310547, -9.7627, 12.10.2021 14:33:4.983
944, 1.91283, 0.777459, 251.273, -0.000976562, -0.000976562, -0.000976562, -0.15332, 0.328125, -9.79492, 12.10.2021 14:33:4.991
945, 1.91283, 0.777459, 251.273, -0.000976562, -0.000976562, 0, -0.110352, 0.302734, -9.81348, 12.10.2021 14:33:4.999
946, 1.91283, 0.777459, 251.273, -0.000976562, -0.00195312, 0, -0.212891, 0.349609, -9.7959, 12.10.2021 14:33:5.007
947, 1.91283, 0.777459, 251.273, -0.000976562, 0.000976562, -0.000976562, -0.107422, 0.313477, -9.78906, 12.10.2021 14:33:5.015
948, 1.91283, 0.777459, 251.273, 0, 0, 0.000976562, -0.115234, 0.328125, -9.79395, 12.10.2021 14:33:5.023
949, 1.91258, 0.77743, 251.274, 0, -0.000976562, 0.000976562, -0.176758, 0.347656, -9.79004, 12.10.2021 14:33:5.031
950, 1.91258, 0.77743, 251.274, -0.000976562, -0.000976562, 0, -0.106445, 0.326172, -9.81934, 12.10.2021 14:33:5.039
951, 1.91826, 0.781505, 251.274, 0, -0.000976562, 0, -0.167969, 0.324219, -9.80176, 12.10.2021 14:33:5.047
952, 1.91418, 0.787189, 251.274, 0, -0.00195312, 0, -0.182617, 0.335938, -9.82324, 12.10.2021 14:33:5.055
953, 1.91418, 0.787189, 251.274, -0.000976562, -0.000976562, -0.000976562, -0.0693359, 0.298828, -9.77637, 12.10.2021 14:33:5.063
954, 1.91418, 0.787189, 251.274, -0.000976562, -0.000976562, 0, -0.176758, 0.351562, -9.77344, 12.10.2021 14:33:5.071
955, 1.91418, 0.787189, 251.274, 0, -0.000976562, -0.000976562, -0.126953, 0.347656, -9.80176, 12.10.2021 14:33:5.079
956, 1.91444, 0.787218, 251.273, 0, 0.000976562, -0.000976562, -0.0859375, 0.308594, -9.76367, 12.10.2021 14:33:5.087
957, 1.91444, 0.787218, 251.273, -0.000976562, -0.000976562, 0, -0.178711, 0.358398, -9.77051, 12.10.2021 14:33:5.095
958, 1.91444, 0.787218, 251.273, -0.000976562, -0.000976562, -0.000976562, -0.09375, 0.333008, -9.80566, 12.10.2021 14:33:5.103
959, 1.91444, 0.787218, 251.273, -0.00195312, -0.000976562, 0.000976562, -0.128906, 0.305664, -9.77246, 12.10.2021 14:33:5.111
960, 1.92419, 0.78561, 251.273, -0.000976562, 0, 0, -0.162109, 0.334961, -9.7832, 12.10.2021 14:33:5.119
961, 1.92419, 0.78561, 251.273, -0.000976562, -0.00195312, -0.00195312, -0.0908203, 0.301758, -9.78027, 12.10.2021 14:33:5.127
962, 1.92419, 0.78561, 251.273, -0.000976562, 0, -0.00195312, -0.163086, 0.335938, -9.81641, 12.10.2021 14:33:5.135
963, 1.92419, 0.78561, 251.273, 0, 0.000976562, 0, -0.15625, 0.332031, -9.82812, 12.10.2021 14:33:5.143
964, 1.92419, 0.78561, 251.273, -0.000976562, 0, 0, -0.108398, 0.318359, -9.80078, 12.10.2021 14:33:5.151
965, 1.92012, 0.791293, 251.273, 0, -0.00195312, 0, -0.211914, 0.330078, -9.85352, 12.10.2021 14:33:5.159
966, 1.92012, 0.791293, 251.273, 0, 0, -0.00195312, -0.129883, 0.34082, -9.80469, 12.10.2021 14:33:5.167
967, 1.92012, 0.791293, 251.273, -0.000976562, 0, 0, -0.138672, 0.328125, -9.79785, 12.10.2021 14:33:5.175
968, 1.92012, 0.791293, 251.273, -0.000976562, -0.000976562, 0.000976562, -0.183594, 0.349609, -9.78223, 12.10.2021 14:33:5.181
969, 1.92012, 0.791293, 251.273, -0.000976562, 0, 0, -0.0820312, 0.316406, -9.80176, 12.10.2021 14:33:5.189
970, 1.92012, 0.791293, 251.273, 0, -0.000976562, 0, -0.151367, 0.319336, -9.83105, 12.10.2021 14:33:5.197
971, 1.92012, 0.791293, 251.273, 0, -0.000976562, 0, -0.148438, 0.34082, -9.80469, 12.10.2021 14:33:5.205
972, 1.92012, 0.791293, 251.273, -0.000976562, 0, -0.00195312, -0.0722656, 0.308594, -9.78516, 12.10.2021 14:33:5.213
973, 1.92012, 0.791293, 251.273, 0, 0, -0.00195312, -0.163086, 0.352539, -9.80371, 12.10.2021 14:33:5.221
974, 1.92012, 0.791293, 251.273, -0.000976562, 0.000976562, 0, -0.114258, 0.366211, -9.77148, 12.10.2021 14:33:5.229
975, 1.92012, 0.791293, 251.273, -0.000976562, 0, 0, -0.100586, 0.327148, -9.77051, 12.10.2021 14:33:5.237
976, 1.9258, 0.795369, 251.273, -0.000976562, 0, -0.00195312, -0.179688, 0.336914, -9.83203, 12.10.2021 14:33:5.245
977, 1.9258, 0.795369, 251.273, 0, -0.000976562, 0, -0.0986328, 0.328125, -9.78711, 12.10.2021 14:33:5.253
978, 1.9258, 0.795369, 251.273, -0.000976562, 0, -0.00195312, -0.129883, 0.333984, -9.81641, 12.10.2021 14:33:5.261
979, 1.92988, 0.789685, 251.273, -0.000976562, 0, 0, -0.15332, 0.354492, -9.78711, 12.10.2021 14:33:5.269
980, 1.92988, 0.789685, 251.273, 0.000976562, 0.000976562, 0, -0.0791016, 0.31543, -9.78027, 12.10.2021 14:33:5.277
981, 1.92988, 0.789685, 251.273, 0, -0.000976562, 0, -0.173828, 0.329102, -9.75488, 12.10.2021 14:33:5.285
982, 1.92988, 0.789685, 251.273, -0.000976562, 0, 0, -0.135742, 0.333984, -9.75977, 12.10.2021 14:33:5.293
983, 1.92988, 0.789685, 251.273, -0.000976562, 0, 0, -0.112305, 0.327148, -9.77441, 12.10.2021 14:33:5.301
984, 1.92988, 0.789685, 251.273, -0.000976562, 0, 0, -0.209961, 0.348633, -9.7627, 12.10.2021 14:33:5.309
985, 1.92988, 0.789685, 251.273, -0.000976562, 0, -0.00195312, -0.131836, 0.330078, -9.77637, 12.10.2021 14:33:5.317
986, 1.92988, 0.789685, 251.273, 0, -0.000976562, 0, -0.0908203, 0.320312, -9.75879, 12.10.2021 14:33:5.325
987, 1.92988, 0.789685, 251.273, 0, -0.000976562, 0.000976562, -0.162109, 0.371094, -9.78711, 12.10.2021 14:33:5.333
988, 1.93395, 0.784002, 251.273, -0.000976562, 0, 0, -0.0986328, 0.341797, -9.78125, 12.10.2021 14:33:5.341
989, 1.93963, 0.788078, 251.273, 0, -0.000976562, 0.000976562, -0.143555, 0.321289, -9.79102, 12.10.2021 14:33:5.349
990, 1.93963, 0.788078, 251.273, 0, -0.000976562, 0, -0.165039, 0.321289, -9.80469, 12.10.2021 14:33:5.357
991, 1.93963, 0.788078, 251.273, 0, -0.000976562, -0.000976562, -0.0761719, 0.320312, -9.77734, 12.10.2021 14:33:5.365
992, 1.93963, 0.788078, 251.273, -0.000976562, -0.00195312, 0.000976562, -0.166016, 0.324219, -9.82812, 12.10.2021 14:33:5.373
993, 1.93963, 0.788078, 251.273, -0.000976562, -0.000976562, 0.000976562, -0.15332, 0.348633, -9.82324, 12.10.2021 14:33:5.381
994, 1.93963, 0.788078, 251.273, 0, -0.000976562, 0, -0.125, 0.338867, -9.83301, 12.10.2021 14:33:5.389
995, 1.93963, 0.788078, 251.273, -0.000976562, -0.000976562, 0.000976562, -0.193359, 0.335938, -9.79883, 12.10.2021 14:33:5.397
996, 1.93963, 0.788078, 251.273, -0.000976562, -0.000976562, 0.000976562, -0.0908203, 0.336914, -9.77441, 12.10.2021 14:33:5.405
997, 1.93963, 0.788078, 251.273, -0.000976562, 0.000976562, 0, -0.119141, 0.31543, -9.77441, 12.10.2021 14:33:5.413
998, 1.93963, 0.788078, 251.273, -0.000976562, 0.000976562, 0, -0.157227, 0.341797, -9.77148, 12.10.2021 14:33:5.421
999, 1.93937, 0.788048, 251.274, 0, -0.000976562, 0, -0.0771484, 0.300781, -9.8252, 12.10.2021 14:33:5.429
1000, 1.93937, 0.788048, 251.274, -0.000976562, -0.00195312, 0, -0.198242, 0.326172, -9.78711, 12.10.2021 14:33:5.437
1001, 1.93963, 0.788078, 251.273, 0, -0.000976562, -0.000976562, -0.148438, 0.310547, -9.77734, 12.10.2021 14:33:5.445
1002, 1.93963, 0.788078, 251.273, 0, -0.000976562, -0.000976562, -0.119141, 0.300781, -9.76855, 12.10.2021 14:33:5.453
1003, 1.93556, 0.793761, 251.273, 0, -0.000976562, 0, -0.185547, 0.329102, -9.74707, 12.10.2021 14:33:5.461
1004, 1.93556, 0.793761, 251.273, -0.000976562, -0.000976562, 0, -0.131836, 0.323242, -9.77441, 12.10.2021 14:33:5.469
1005, 1.93556, 0.793761, 251.273, 0, -0.000976562, 0, -0.105469, 0.333008, -9.78906, 12.10.2021 14:33:5.477
1006, 1.93556, 0.793761, 251.273, 0, -0.000976562, 0, -0.155273, 0.355469, -9.75, 12.10.2021 14:33:5.485
1007, 1.93556, 0.793761, 251.273, 0, -0.000976562, -0.000976562, -0.0820312, 0.311523, -9.79492, 12.10.2021 14:33:5.493
1008, 1.92988, 0.789685, 251.273, 0, 0.000976562, 0, -0.154297, 0.325195, -9.83594, 12.10.2021 14:33:5.501
1009, 1.92988, 0.789685, 251.273, 0, -0.000976562, 0, -0.172852, 0.342773, -9.81152, 12.10.2021 14:33:5.509
1010, 1.92988, 0.789685, 251.273, 0, -0.000976562, 0.000976562, -0.100586, 0.31543, -9.77246, 12.10.2021 14:33:5.517
1011, 1.92962, 0.789656, 251.274, -0.000976562, -0.000976562, 0, -0.173828, 0.353516, -9.76074, 12.10.2021 14:33:5.525
1012, 1.92962, 0.789656, 251.274, -0.000976562, -0.000976562, 0, -0.139648, 0.350586, -9.72656, 12.10.2021 14:33:5.533
1013, 1.92554, 0.79534, 251.274, 0, -0.000976562, -0.000976562, -0.108398, 0.301758, -9.80176, 12.10.2021 14:33:5.541
1014, 1.9258, 0.795369, 251.273, 0, -0.000976562, 0, -0.183594, 0.354492, -9.77734, 12.10.2021 14:33:5.549
1015, 1.9258, 0.795369, 251.273, 0, -0.00195312, 0, -0.0976562, 0.31543, -9.77734, 12.10.2021 14:33:5.557
1016, 1.9258, 0.795369, 251.273, -0.000976562, -0.000976562, -0.000976562, -0.138672, 0.298828, -9.77051, 12.10.2021 14:33:5.565
1017, 1.9258, 0.795369, 251.273, -0.000976562, -0.000976562, 0, -0.158203, 0.335938, -9.81348, 12.10.2021 14:33:5.573
1018, 1.9258, 0.795369, 251.273, 0, -0.000976562, 0, -0.0605469, 0.316406, -9.79004, 12.10.2021 14:33:5.581
1019, 1.9258, 0.795369, 251.273, 0, -0.000976562, 0, -0.186523, 0.333008, -9.79688, 12.10.2021 14:33:5.589
1020, 1.9258, 0.795369, 251.273, 0, 0.000976562, 0, -0.140625, 0.334961, -9.76465, 12.10.2021 14:33:5.597
1021, 1.9258, 0.795369, 251.273, -0.000976562, -0.000976562, -0.000976562, -0.0810547, 0.317383, -9.74512, 12.10.2021 14:33:5.605
1022, 1.9258, 0.795369, 251.273, 0, 0.000976562, 0, -0.191406, 0.351562, -9.78418, 12.10.2021 14:33:5.613
1023, 1.9258, 0.795369, 251.273, 0, -0.000976562, -0.00195312, -0.115234, 0.341797, -9.7793, 12.10.2021 14:33:5.621
1024, 1.9258, 0.795369, 251.273, 0, -0.000976562, -0.00195312, -0.118164, 0.319336, -9.80762, 12.10.2021 14:33:5.629
1025, 1.9258, 0.795369, 251.273, -0.000976562, -0.00195312, 0, -0.166992, 0.341797, -9.77344, 12.10.2021 14:33:5.637
1026, 1.9258, 0.795369, 251.273, 0.000976562, -0.000976562, 0, -0.0771484, 0.333984, -9.82031, 12.10.2021 14:33:5.645
1027, 1.9258, 0.795369, 251.273, 0, -0.00195312, 0, -0.142578, 0.3125, -9.84277, 12.10.2021 14:33:5.653
1028, 1.9258, 0.795369, 251.273, 0, -0.00195312, 0, -0.143555, 0.345703, -9.80176, 12.10.2021 14:33:5.661
1029, 1.9258, 0.795369, 251.273, 0, -0.00195312, 0, -0.0966797, 0.311523, -9.80859, 12.10.2021 14:33:5.669
1030, 1.9258, 0.795369, 251.273, -0.000976562, -0.000976562, -0.00195312, -0.206055, 0.345703, -9.80859, 12.10.2021 14:33:5.677
1031, 1.9258, 0.795369, 251.273, -0.000976562, -0.00195312, -0.00195312, -0.146484, 0.338867, -9.81836, 12.10.2021 14:33:5.685
1032, 1.9258, 0.795369, 251.273, -0.000976562, -0.000976562, -0.00195312, -0.0957031, 0.298828, -9.78711, 12.10.2021 14:33:5.693
1033, 1.9258, 0.795369, 251.273, -0.000976562, 0.000976562, 0, -0.193359, 0.323242, -9.7832, 12.10.2021 14:33:5.701
1034, 1.9258, 0.795369, 251.273, -0.000976562, -0.000976562, 0.000976562, -0.118164, 0.317383, -9.82715, 12.10.2021 14:33:5.709
1035, 1.9258, 0.795369, 251.273, 0, -0.000976562, 0, -0.115234, 0.355469, -9.81445, 12.10.2021 14:33:5.717
1036, 1.9258, 0.795369, 251.273, -0.000976562, 0.000976562, 0.000976562, -0.15332, 0.334961, -9.79004, 12.10.2021 14:33:5.725
1037, 1.9258, 0.795369, 251.273, 0, -0.000976562, -0.00195312, -0.09375, 0.30957, -9.82715, 12.10.2021 14:33:5.733
1038, 1.9258, 0.795369, 251.273, -0.000976562, -0.00195312, -0.00195312, -0.191406, 0.326172, -9.80664, 12.10.2021 14:33:5.741
1039, 1.9258, 0.795369, 251.273, 0, -0.000976562, 0, -0.138672, 0.330078, -9.78613, 12.10.2021 14:33:5.749
1040, 1.9258, 0.795369, 251.273, 0, -0.000976562, 0, -0.0820312, 0.296875, -9.7832, 12.10.2021 14:33:5.757
1041, 1.9258, 0.795369, 251.273, -0.000976562, 0.000976562, 0, -0.203125, 0.352539, -9.78906, 12.10.2021 14:33:5.765
1042, 1.9258, 0.795369, 251.273, -0.000976562, 0.000976562, 0, -0.108398, 0.34082, -9.80273, 12.10.2021 14:33:5.773
1043, 1.92012, 0.791293, 251.273, 0, 0.000976562, 0, -0.125977, 0.302734, -9.75586, 12.10.2021 14:33:5.781
1044, 1.92012, 0.791293, 251.273, 0, -0.000976562, 0, -0.174805, 0.339844, -9.77832, 12.10.2021 14:33:5.789
1045, 1.92012, 0.791293, 251.273, 0, -0.000976562, 0, -0.105469, 0.314453, -9.80859, 12.10.2021 14:33:5.797
1046, 1.92012, 0.791293, 251.273, 0, -0.000976562, 0, -0.144531, 0.314453, -9.81934, 12.10.2021 14:33:5.805
1047, 1.92012, 0.791293, 251.273, -0.000976562, -0.000976562, 0, -0.15332, 0.352539, -9.79883, 12.10.2021 14:33:5.813
1048, 1.92012, 0.791293, 251.273, -0.000976562, 0.000976562, -0.000976562, -0.0771484, 0.3125, -9.82715, 12.10.2021 14:33:5.821
1049, 1.92012, 0.791293, 251.273, -0.000976562, 0.000976562, 0, -0.169922, 0.345703, -9.81152, 12.10.2021 14:33:5.829
1050, 1.92012, 0.791293, 251.273, -0.000976562, -0.000976562, 0, -0.136719, 0.341797, -9.7832, 12.10.2021 14:33:5.837
