Seq, Rot x, Rot y, Rot z, Vel x, Vel y, Vel z, Acc x, Acc y, Acc z, Time(m.d.y h:m:s.ms)
0, 1.734, 0.572101, 321.463, -0.00292969, 0.00292969, 0, -0.0986328, 0.296875, -9.78027, 1.12.2022 16:19:15.146
1, 1.74053, 0.569705, 321.458, -0.00292969, 0.00292969, 0, -0.00683594, 0.324219, -9.74121, 1.12.2022 16:19:15.154
2, 1.74053, 0.569705, 321.458, -0.00390625, 0.00292969, 0, -0.0283203, 0.295898, -9.75781, 1.12.2022 16:19:15.162
3, 1.74053, 0.569705, 321.458, -0.00292969, 0.00195312, 0, -0.0878906, 0.320312, -9.76074, 1.12.2022 16:19:15.170
4, 1.73823, 0.563104, 321.458, -0.00195312, 0.00195312, -0.000976562, 0.0283203, 0.324219, -9.75586, 1.12.2022 16:19:15.178
5, 1.74483, 0.560796, 321.458, -0.00292969, 0.00195312, -0.000976562, -0.0517578, 0.288086, -9.74121, 1.12.2022 16:19:15.186
6, 1.74483, 0.560796, 321.458, -0.00195312, 0.00195312, 0, -0.0556641, 0.323242, -9.79004, 1.12.2022 16:19:15.194
7, 1.74483, 0.560796, 321.458, -0.00292969, 0.00195312, 0, 0.0136719, 0.303711, -9.77539, 1.12.2022 16:19:15.202
8, 1.74483, 0.560796, 321.458, -0.00195312, 0.00292969, 0, -0.0830078, 0.307617, -9.75684, 1.12.2022 16:19:15.210
9, 1.74483, 0.560796, 321.458, -0.00292969, 0.00292969, 0, -0.0292969, 0.310547, -9.7832, 1.12.2022 16:19:15.218
10, 1.75143, 0.558489, 321.458, -0.00292969, 0.00195312, 0, -0.0263672, 0.267578, -9.77539, 1.12.2022 16:19:15.226
11, 1.75143, 0.558489, 321.458, -0.00292969, 0.000976562, 0, -0.0605469, 0.313477, -9.78809, 1.12.2022 16:19:15.234
12, 1.75143, 0.558489, 321.458, -0.00292969, 0.00195312, 0, 0.0166016, 0.295898, -9.77051, 1.12.2022 16:19:15.242
13, 1.75143, 0.558489, 321.458, -0.00292969, 0.00195312, -0.000976562, -0.0332031, 0.289062, -9.76074, 1.12.2022 16:19:15.250
14, 1.75802, 0.556181, 321.458, -0.00292969, 0.00195312, 0, -0.0449219, 0.314453, -9.75293, 1.12.2022 16:19:15.258
15, 1.75802, 0.556181, 321.458, -0.00292969, 0.00195312, 0, -0.0078125, 0.293945, -9.78418, 1.12.2022 16:19:15.266
16, 1.75572, 0.54958, 321.458, -0.00390625, 0.00195312, 0.000976562, -0.0644531, 0.310547, -9.77832, 1.12.2022 16:19:15.274
17, 1.75572, 0.54958, 321.458, -0.00292969, 0.00292969, 0.000976562, -0.0566406, 0.297852, -9.74609, 1.12.2022 16:19:15.282
18, 1.76232, 0.547272, 321.458, -0.00292969, 0.00195312, 0, -0.0166016, 0.317383, -9.7666, 1.12.2022 16:19:15.290
19, 1.76232, 0.547272, 321.458, -0.00292969, 0.00195312, 0, -0.0996094, 0.336914, -9.75586, 1.12.2022 16:19:15.298
20, 1.76232, 0.547272, 321.458, -0.00390625, 0.00195312, 0, 0, 0.292969, -9.73047, 1.12.2022 16:19:15.306
21, 1.76232, 0.547272, 321.458, -0.00292969, 0.00195312, 0, -0.0458984, 0.293945, -9.7793, 1.12.2022 16:19:15.314
22, 1.76232, 0.547272, 321.458, -0.00292969, 0.00195312, 0, -0.0605469, 0.313477, -9.7832, 1.12.2022 16:19:15.322
23, 1.76892, 0.544965, 321.458, -0.00195312, 0.00195312, 0, -0.00976562, 0.293945, -9.76562, 1.12.2022 16:19:15.330
24, 1.76892, 0.544965, 321.458, -0.00292969, 0.00292969, 0, -0.0791016, 0.303711, -9.7666, 1.12.2022 16:19:15.338
25, 1.76892, 0.544965, 321.458, -0.00292969, 0.00195312, 0, -0.03125, 0.325195, -9.77148, 1.12.2022 16:19:15.346
26, 1.76892, 0.544965, 321.458, -0.00292969, 0.00195312, 0.000976562, -0.00683594, 0.268555, -9.7334, 1.12.2022 16:19:15.354
27, 1.77321, 0.536056, 321.458, -0.00195312, 0.00195312, 0, -0.09375, 0.313477, -9.78906, 1.12.2022 16:19:15.362
28, 1.77321, 0.536056, 321.458, -0.00292969, 0.00292969, 0, -0.0078125, 0.285156, -9.79199, 1.12.2022 16:19:15.370
29, 1.77321, 0.536056, 321.458, -0.00292969, 0.00292969, 0, -0.0253906, 0.301758, -9.72949, 1.12.2022 16:19:15.378
30, 1.77321, 0.536056, 321.458, -0.00292969, 0.00292969, 0, -0.0712891, 0.329102, -9.74023, 1.12.2022 16:19:15.386
31, 1.78708, 0.279202, 321.457, -0.00195312, -0.000976562, -0.00195312, 0.0107422, 0.306641, -9.80566, 1.12.2022 16:19:15.394
32, 1.78413, 0.228377, 321.457, 0, 0, 0, -0.0712891, 0.332031, -9.74902, 1.12.2022 16:19:15.402
33, 1.78842, 0.219467, 321.458, 0, -0.000976562, -0.000976562, -0.0107422, 0.328125, -9.7998, 1.12.2022 16:19:15.410
34, 1.78842, 0.219467, 321.458, 0, -0.000976562, -0.000976562, -0.0224609, 0.277344, -9.79199, 1.12.2022 16:19:15.418
35, 1.78842, 0.219467, 321.458, 0, 0, 0, -0.0742188, 0.330078, -9.78711, 1.12.2022 16:19:15.426
36, 1.78842, 0.219467, 321.458, 0, 0, 0.000976562, -0.0117188, 0.276367, -9.76367, 1.12.2022 16:19:15.434
37, 1.78842, 0.219467, 321.458, -0.000976562, -0.000976562, -0.000976562, -0.0664062, 0.292969, -9.72656, 1.12.2022 16:19:15.442
38, 1.78842, 0.219467, 321.458, -0.000976562, -0.00195312, -0.000976562, -0.0517578, 0.297852, -9.73438, 1.12.2022 16:19:15.450
39, 1.78842, 0.219467, 321.458, -0.00195312, -0.000976562, 0, -0.0117188, 0.316406, -9.74121, 1.12.2022 16:19:15.458
40, 1.78842, 0.219467, 321.458, -0.00195312, -0.000976562, 0, -0.0878906, 0.317383, -9.76074, 1.12.2022 16:19:15.466
41, 1.78842, 0.219467, 321.458, 0, 0, 0, -0.0380859, 0.333984, -9.7666, 1.12.2022 16:19:15.474
42, 1.79073, 0.226069, 321.457, -0.00195312, -0.000976562, 0, -0.0341797, 0.320312, -9.77832, 1.12.2022 16:19:15.482
43, 1.79733, 0.223761, 321.458, 0, -0.000976562, 0.000976562, -0.0664062, 0.322266, -9.76367, 1.12.2022 16:19:15.490
44, 1.79733, 0.223761, 321.458, 0, 0.000976562, 0.000976562, 0.00488281, 0.298828, -9.76758, 1.12.2022 16:19:15.498
45, 1.79733, 0.223761, 321.458, 0, 0, 0, -0.0419922, 0.304688, -9.72168, 1.12.2022 16:19:15.506
46, 1.79733, 0.223761, 321.458, 0.000976562, -0.000976562, -0.000976562, -0.0644531, 0.332031, -9.77734, 1.12.2022 16:19:15.514
47, 1.79733, 0.223761, 321.458, 0.000976562, -0.000976562, -0.000976562, -0.0117188, 0.289062, -9.75586, 1.12.2022 16:19:15.522
48, 1.79733, 0.223761, 321.458, -0.000976562, -0.000976562, -0.000976562, -0.0791016, 0.295898, -9.75684, 1.12.2022 16:19:15.530
49, 1.79733, 0.223761, 321.458, 0.000976562, -0.000976562, -0.000976562, -0.00488281, 0.304688, -9.74902, 1.12.2022 16:19:15.538
50, 1.79733, 0.223761, 321.458, -0.000976562, -0.000976562, -0.000976562, 0.00683594, 0.295898, -9.77051, 1.12.2022 16:19:15.546
51, 1.79733, 0.223761, 321.458, 0.000976562, 0, 0, -0.0527344, 0.298828, -9.78809, 1.12.2022 16:19:15.554
52, 1.79733, 0.223761, 321.458, 0, 0, 0, 0.00488281, 0.286133, -9.76855, 1.12.2022 16:19:15.560
53, 1.79733, 0.223761, 321.458, -0.00195312, -0.000976562, 0, -0.0263672, 0.308594, -9.7793, 1.12.2022 16:19:15.568
54, 1.79502, 0.21716, 321.458, -0.00195312, 0, 0.000976562, -0.0546875, 0.339844, -9.77539, 1.12.2022 16:19:15.576
55, 1.79502, 0.21716, 321.458, 0.000976562, -0.000976562, -0.000976562, -0.00390625, 0.314453, -9.72754, 1.12.2022 16:19:15.584
56, 1.79502, 0.21716, 321.458, 0.000976562, -0.000976562, 0.000976562, -0.0908203, 0.348633, -9.76758, 1.12.2022 16:19:15.592
57, 1.80162, 0.214852, 321.458, -0.000976562, -0.00195312, -0.000976562, -0.0576172, 0.338867, -9.76562, 1.12.2022 16:19:15.600
58, 1.80393, 0.221453, 321.458, -0.000976562, -0.000976562, -0.000976562, -0.0195312, 0.307617, -9.76758, 1.12.2022 16:19:15.608
59, 1.80393, 0.221453, 321.458, 0.000976562, 0, 0, -0.107422, 0.318359, -9.7793, 1.12.2022 16:19:15.616
60, 1.80393, 0.221453, 321.458, 0.00195312, 0.000976562, 0, -0.0224609, 0.291992, -9.79102, 1.12.2022 16:19:15.624
61, 1.80393, 0.221453, 321.458, 0.00195312, 0.000976562, 0.000976562, -0.0644531, 0.289062, -9.77637, 1.12.2022 16:19:15.632
62, 1.80393, 0.221453, 321.458, 0.00195312, 0, -0.000976562, -0.0996094, 0.27832, -9.72852, 1.12.2022 16:19:15.640
63, 1.80393, 0.221453, 321.458, 0, -0.000976562, -0.000976562, -0.0136719, 0.285156, -9.72754, 1.12.2022 16:19:15.648
64, 1.79733, 0.223761, 321.458, -0.000976562, -0.000976562, -0.000976562, -0.0957031, 0.280273, -9.7832, 1.12.2022 16:19:15.656
65, 1.79964, 0.230362, 321.457, -0.000976562, -0.00195312, -0.000976562, -0.0507812, 0.280273, -9.79395, 1.12.2022 16:19:15.664
66, 1.79964, 0.230362, 321.457, -0.00195312, -0.000976562, -0.000976562, 0.00683594, 0.320312, -9.79297, 1.12.2022 16:19:15.672
67, 1.79964, 0.230362, 321.457, -0.00292969, -0.000976562, 0, -0.0791016, 0.350586, -9.76074, 1.12.2022 16:19:15.680
68, 1.79964, 0.230362, 321.457, -0.00195312, 0, -0.000976562, 0.0234375, 0.337891, -9.7959, 1.12.2022 16:19:15.688
69, 1.80194, 0.236964, 321.457, -0.000976562, 0, -0.000976562, -0.0488281, 0.337891, -9.80371, 1.12.2022 16:19:15.696
70, 1.80194, 0.236964, 321.457, -0.00195312, 0, -0.000976562, -0.0791016, 0.34375, -9.77246, 1.12.2022 16:19:15.704
71, 1.80854, 0.234656, 321.457, -0.000976562, 0, 0, -0.0234375, 0.289062, -9.75586, 1.12.2022 16:19:15.712
72, 1.80854, 0.234656, 321.457, -0.000976562, 0, 0, -0.117188, 0.293945, -9.76367, 1.12.2022 16:19:15.720
73, 1.80854, 0.234656, 321.457, -0.000976562, 0, -0.000976562, -0.0605469, 0.294922, -9.80469, 1.12.2022 16:19:15.728
74, 1.81085, 0.241258, 321.457, 0, -0.000976562, -0.00195312, -0.0166016, 0.308594, -9.77637, 1.12.2022 16:19:15.736
75, 1.81085, 0.241258, 321.457, -0.000976562, -0.000976562, -0.000976562, -0.0673828, 0.330078, -9.76855, 1.12.2022 16:19:15.744
76, 1.81085, 0.241258, 321.457, -0.000976562, -0.000976562, -0.000976562, 0.00683594, 0.287109, -9.78516, 1.12.2022 16:19:15.752
77, 1.81085, 0.241258, 321.457, -0.000976562, -0.000976562, -0.000976562, -0.0244141, 0.293945, -9.78418, 1.12.2022 16:19:15.760
78, 1.80425, 0.243565, 321.457, -0.000976562, -0.000976562, -0.000976562, -0.0556641, 0.288086, -9.81445, 1.12.2022 16:19:15.768
79, 1.80425, 0.243565, 321.457, -0.00195312, 0.000976562, -0.000976562, 0.0449219, 0.286133, -9.76172, 1.12.2022 16:19:15.776
80, 1.80425, 0.243565, 321.457, -0.000976562, 0, -0.000976562, -0.0693359, 0.341797, -9.76074, 1.12.2022 16:19:15.784
81, 1.81085, 0.241258, 321.457, -0.000976562, -0.000976562, 0, -0.0253906, 0.337891, -9.73828, 1.12.2022 16:19:15.792
82, 1.81085, 0.241258, 321.457, -0.000976562, -0.00195312, -0.000976562, -0.0166016, 0.30957, -9.75293, 1.12.2022 16:19:15.800
83, 1.81085, 0.241258, 321.457, -0.000976562, -0.00195312, 0, -0.0810547, 0.330078, -9.77539, 1.12.2022 16:19:15.808
84, 1.81085, 0.241258, 321.457, -0.000976562, -0.00195312, -0.000976562, 0.0322266, 0.321289, -9.81543, 1.12.2022 16:19:15.816
85, 1.81085, 0.241258, 321.457, -0.000976562, -0.00195312, -0.000976562, -0.0107422, 0.328125, -9.81152, 1.12.2022 16:19:15.824
86, 1.81514, 0.232348, 321.458, -0.000976562, -0.000976562, -0.00195312, -0.0478516, 0.3125, -9.75977, 1.12.2022 16:19:15.832
87, 1.81514, 0.232348, 321.458, 0, 0, -0.000976562, 0.0126953, 0.283203, -9.7334, 1.12.2022 16:19:15.840
88, 1.81514, 0.232348, 321.458, 0, 0, -0.000976562, -0.0683594, 0.299805, -9.7168, 1.12.2022 16:19:15.848
89, 1.81514, 0.232348, 321.458, -0.000976562, 0, -0.000976562, -0.0947266, 0.30957, -9.74512, 1.12.2022 16:19:15.856
90, 1.81514, 0.232348, 321.458, -0.00195312, 0, -0.000976562, -0.0498047, 0.279297, -9.76074, 1.12.2022 16:19:15.864
91, 1.81514, 0.232348, 321.458, -0.000976562, -0.000976562, -0.000976562, -0.111328, 0.30957, -9.71875, 1.12.2022 16:19:15.872
92, 1.81514, 0.232348, 321.458, 0, -0.00292969, -0.000976562, -0.0283203, 0.30957, -9.73145, 1.12.2022 16:19:15.880
93, 1.81514, 0.232348, 321.458, -0.00195312, -0.00292969, -0.000976562, -0.0546875, 0.293945, -9.76953, 1.12.2022 16:19:15.888
94, 1.81745, 0.23895, 321.457, -0.000976562, -0.00195312, -0.00195312, -0.0654297, 0.334961, -9.79883, 1.12.2022 16:19:15.896
95, 1.81745, 0.23895, 321.457, 0.000976562, -0.000976562, -0.000976562, -0.0146484, 0.327148, -9.76465, 1.12.2022 16:19:15.904
96, 1.81085, 0.241258, 321.457, 0, 0, -0.000976562, -0.0507812, 0.296875, -9.79297, 1.12.2022 16:19:15.912
97, 1.81085, 0.241258, 321.457, 0.000976562, 0, -0.000976562, -0.0576172, 0.310547, -9.77832, 1.12.2022 16:19:15.920
98, 1.81085, 0.241258, 321.457, 0.000976562, 0, -0.000976562, -0.0175781, 0.291992, -9.80078, 1.12.2022 16:19:15.928
99, 1.81085, 0.241258, 321.457, 0.000976562, -0.000976562, -0.000976562, -0.0957031, 0.291992, -9.77344, 1.12.2022 16:19:15.936
100, 1.81085, 0.241258, 321.457, 0.000976562, -0.000976562, -0.000976562, -0.0136719, 0.290039, -9.7207, 1.12.2022 16:19:15.944
101, 1.81085, 0.241258, 321.457, 0, -0.000976562, -0.00195312, 0, 0.288086, -9.73047, 1.12.2022 16:19:15.952
102, 1.81085, 0.241258, 321.457, 0.000976562, -0.000976562, -0.000976562, -0.0644531, 0.329102, -9.76367, 1.12.2022 16:19:15.960
103, 1.80425, 0.243565, 321.457, 0, -0.00195312, -0.000976562, 0.0546875, 0.289062, -9.7832, 1.12.2022 16:19:15.968
104, 1.80425, 0.243565, 321.457, -0.000976562, -0.00195312, -0.000976562, -0.0585938, 0.320312, -9.83984, 1.12.2022 16:19:15.976
105, 1.80194, 0.236964, 321.457, 0, -0.00195312, 0, 0.00878906, 0.326172, -9.82129, 1.12.2022 16:19:15.984
106, 1.80854, 0.234656, 321.457, 0, -0.000976562, 0.000976562, 0.0400391, 0.306641, -9.79688, 1.12.2022 16:19:15.992
107, 1.80854, 0.234656, 321.457, 0, 0.00195312, 0.000976562, -0.0771484, 0.306641, -9.78809, 1.12.2022 16:19:16.000
108, 1.80854, 0.234656, 321.457, 0, 0, -0.000976562, -0.0332031, 0.329102, -9.76172, 1.12.2022 16:19:16.008
109, 1.80624, 0.228055, 321.458, 0, -0.000976562, -0.000976562, -0.0449219, 0.286133, -9.74121, 1.12.2022 16:19:16.016
110, 1.80624, 0.228055, 321.458, -0.000976562, 0, -0.000976562, -0.078125, 0.331055, -9.71582, 1.12.2022 16:19:16.024
111, 1.80624, 0.228055, 321.458, 0, -0.000976562, -0.000976562, -0.0166016, 0.314453, -9.72949, 1.12.2022 16:19:16.032
112, 1.80624, 0.228055, 321.458, -0.000976562, -0.00195312, 0, -0.0771484, 0.301758, -9.77832, 1.12.2022 16:19:16.040
113, 1.80624, 0.228055, 321.458, 0, -0.00195312, -0.000976562, -0.0429688, 0.327148, -9.77344, 1.12.2022 16:19:16.048
114, 1.80624, 0.228055, 321.458, 0.000976562, -0.00195312, -0.000976562, 0.0117188, 0.28418, -9.77051, 1.12.2022 16:19:16.056
115, 1.80624, 0.228055, 321.458, 0, -0.00195312, -0.00195312, -0.0878906, 0.325195, -9.76562, 1.12.2022 16:19:16.064
116, 1.80624, 0.228055, 321.458, 0, -0.000976562, -0.000976562, -0.0244141, 0.291016, -9.76074, 1.12.2022 16:19:16.072
117, 1.80624, 0.228055, 321.458, 0, -0.000976562, 0.000976562, -0.0332031, 0.288086, -9.73438, 1.12.2022 16:19:16.080
118, 1.80624, 0.228055, 321.458, 0, -0.000976562, -0.000976562, -0.0908203, 0.336914, -9.77441, 1.12.2022 16:19:16.088
119, 1.80624, 0.228055, 321.458, -0.000976562, -0.000976562, -0.000976562, -0.0351562, 0.30957, -9.74609, 1.12.2022 16:19:16.096
120, 1.80624, 0.228055, 321.458, 0, -0.000976562, -0.000976562, -0.0585938, 0.318359, -9.72363, 1.12.2022 16:19:16.104
121, 1.80624, 0.228055, 321.458, 0, -0.00195312, -0.000976562, -0.0585938, 0.337891, -9.7207, 1.12.2022 16:19:16.112
122, 1.80624, 0.228055, 321.458, 0.000976562, -0.00195312, -0.00195312, -0.00878906, 0.314453, -9.73438, 1.12.2022 16:19:16.120
123, 1.80624, 0.228055, 321.458, 0.000976562, -0.00195312, -0.00195312, -0.0595703, 0.31543, -9.77344, 1.12.2022 16:19:16.128
124, 1.80624, 0.228055, 321.458, 0.000976562, -0.00195312, -0.000976562, -0.0410156, 0.31543, -9.77637, 1.12.2022 16:19:16.136
125, 1.79964, 0.230362, 321.457, 0.000976562, -0.000976562, -0.000976562, -0.015625, 0.288086, -9.83203, 1.12.2022 16:19:16.144
126, 1.79964, 0.230362, 321.457, 0, 0, 0.000976562, -0.0742188, 0.308594, -9.77832, 1.12.2022 16:19:16.152
127, 1.79964, 0.230362, 321.457, 0, 0, -0.000976562, -0.00488281, 0.299805, -9.73926, 1.12.2022 16:19:16.160
128, 1.80624, 0.228055, 321.458, 0, 0, -0.000976562, -0.0771484, 0.275391, -9.77441, 1.12.2022 16:19:16.168
129, 1.80624, 0.228055, 321.458, 0, -0.000976562, -0.000976562, -0.078125, 0.292969, -9.75, 1.12.2022 16:19:16.176
130, 1.80624, 0.228055, 321.458, -0.000976562, -0.000976562, -0.000976562, 0.00488281, 0.283203, -9.75195, 1.12.2022 16:19:16.184
131, 1.80624, 0.228055, 321.458, 0, -0.00195312, -0.000976562, -0.0761719, 0.310547, -9.75879, 1.12.2022 16:19:16.192
132, 1.80624, 0.228055, 321.458, 0, -0.00195312, -0.000976562, -0.0273438, 0.294922, -9.79785, 1.12.2022 16:19:16.200
133, 1.80624, 0.228055, 321.458, 0, -0.00195312, -0.000976562, -0.0253906, 0.304688, -9.72266, 1.12.2022 16:19:16.208
134, 1.79964, 0.230362, 321.457, 0.000976562, -0.000976562, -0.000976562, -0.0693359, 0.328125, -9.78223, 1.12.2022 16:19:16.216
135, 1.79964, 0.230362, 321.457, 0.000976562, -0.000976562, 0.000976562, 0.0166016, 0.305664, -9.77051, 1.12.2022 16:19:16.224
136, 1.79964, 0.230362, 321.457, 0, 0, 0.000976562, -0.0449219, 0.300781, -9.75781, 1.12.2022 16:19:16.232
137, 1.79964, 0.230362, 321.457, 0, 0, 0.000976562, -0.0517578, 0.317383, -9.74023, 1.12.2022 16:19:16.240
138, 1.79964, 0.230362, 321.457, 0, 0, -0.000976562, -0.0214844, 0.274414, -9.75391, 1.12.2022 16:19:16.248
139, 1.79765, 0.245873, 321.457, 0, 0.000976562, -0.000976562, -0.0810547, 0.307617, -9.75879, 1.12.2022 16:19:16.256
140, 1.79996, 0.252475, 321.457, 0, 0, -0.000976562, -0.0410156, 0.310547, -9.77344, 1.12.2022 16:19:16.264
141, 1.79996, 0.252475, 321.457, 0, 0, -0.000976562, -0.0195312, 0.305664, -9.7627, 1.12.2022 16:19:16.272
142, 1.79996, 0.252475, 321.457, -0.000976562, 0, -0.000976562, -0.0664062, 0.326172, -9.7207, 1.12.2022 16:19:16.280
143, 1.79996, 0.252475, 321.457, -0.000976562, 0, -0.000976562, 0.0185547, 0.303711, -9.77539, 1.12.2022 16:19:16.288
144, 1.79996, 0.252475, 321.457, -0.000976562, 0.000976562, -0.000976562, -0.0576172, 0.306641, -9.78809, 1.12.2022 16:19:16.296
145, 1.79765, 0.245873, 321.457, -0.000976562, 0.000976562, -0.000976562, -0.0429688, 0.313477, -9.78125, 1.12.2022 16:19:16.304
146, 1.79765, 0.245873, 321.457, -0.000976562, 0.000976562, -0.00195312, 0.0166016, 0.28418, -9.77344, 1.12.2022 16:19:16.312
147, 1.79765, 0.245873, 321.457, -0.000976562, 0.000976562, -0.000976562, -0.0810547, 0.31543, -9.77539, 1.12.2022 16:19:16.320
148, 1.79765, 0.245873, 321.457, -0.000976562, 0, -0.000976562, -0.0214844, 0.300781, -9.74902, 1.12.2022 16:19:16.328
149, 1.79535, 0.239272, 321.457, 0.00195312, 0.000976562, -0.000976562, -0.0117188, 0.291016, -9.77051, 1.12.2022 16:19:16.336
150, 1.79535, 0.239272, 321.457, 0, 0, -0.00195312, -0.0791016, 0.316406, -9.78711, 1.12.2022 16:19:16.344
151, 1.79535, 0.239272, 321.457, 0, 0, -0.000976562, 0.00683594, 0.300781, -9.76562, 1.12.2022 16:19:16.352
152, 1.79535, 0.239272, 321.457, 0, 0.000976562, -0.00195312, -0.0175781, 0.289062, -9.78223, 1.12.2022 16:19:16.360
153, 1.79304, 0.23267, 321.457, 0, 0, -0.00195312, -0.0361328, 0.333008, -9.79004, 1.12.2022 16:19:16.368
154, 1.79304, 0.23267, 321.457, -0.000976562, 0, -0.000976562, 0.00585938, 0.304688, -9.80762, 1.12.2022 16:19:16.376
155, 1.79964, 0.230362, 321.457, -0.000976562, 0.000976562, -0.000976562, -0.0576172, 0.339844, -9.79688, 1.12.2022 16:19:16.384
156, 1.79733, 0.223761, 321.458, -0.000976562, 0.000976562, -0.000976562, -0.0527344, 0.310547, -9.78125, 1.12.2022 16:19:16.392
157, 1.79733, 0.223761, 321.458, -0.000976562, 0, -0.000976562, -0.0361328, 0.28418, -9.7793, 1.12.2022 16:19:16.400
158, 1.79733, 0.223761, 321.458, -0.00195312, -0.00195312, 0, -0.0634766, 0.321289, -9.7334, 1.12.2022 16:19:16.408
159, 1.79733, 0.223761, 321.458, -0.00195312, 0, -0.000976562, -0.0351562, 0.302734, -9.74316, 1.12.2022 16:19:16.416
160, 1.79733, 0.223761, 321.458, -0.000976562, 0, -0.000976562, -0.0507812, 0.274414, -9.77441, 1.12.2022 16:19:16.424
161, 1.79733, 0.223761, 321.458, -0.000976562, 0, -0.000976562, -0.0498047, 0.324219, -9.75488, 1.12.2022 16:19:16.432
162, 1.79733, 0.223761, 321.458, -0.000976562, 0, -0.00195312, -0.0117188, 0.310547, -9.75586, 1.12.2022 16:19:16.440
163, 1.79733, 0.223761, 321.458, -0.000976562, 0, -0.000976562, -0.0527344, 0.291016, -9.75293, 1.12.2022 16:19:16.448
164, 1.79733, 0.223761, 321.458, 0, 0.000976562, -0.000976562, -0.0234375, 0.292969, -9.73438, 1.12.2022 16:19:16.456
165, 1.79733, 0.223761, 321.458, 0, 0.000976562, -0.000976562, -0.0117188, 0.279297, -9.76562, 1.12.2022 16:19:16.464
166, 1.79502, 0.21716, 321.458, 0, 0, -0.000976562, -0.0517578, 0.333008, -9.7334, 1.12.2022 16:19:16.472
167, 1.79502, 0.21716, 321.458, -0.000976562, 0, 0, -0.0117188, 0.307617, -9.76465, 1.12.2022 16:19:16.480
168, 1.79502, 0.21716, 321.458, 0, 0.000976562, -0.000976562, -0.0449219, 0.299805, -9.72949, 1.12.2022 16:19:16.488
169, 1.79502, 0.21716, 321.458, 0, 0, -0.000976562, -0.0517578, 0.283203, -9.71777, 1.12.2022 16:19:16.496
170, 1.79502, 0.21716, 321.458, 0, 0, -0.000976562, 0.00488281, 0.293945, -9.77051, 1.12.2022 16:19:16.504
171, 1.79272, 0.210558, 321.458, 0, 0, 0, -0.0664062, 0.328125, -9.72559, 1.12.2022 16:19:16.512
172, 1.79272, 0.210558, 321.458, -0.000976562, -0.00195312, 0, -0.0166016, 0.295898, -9.74414, 1.12.2022 16:19:16.518
173, 1.79272, 0.210558, 321.458, -0.000976562, -0.000976562, 0, 0.00292969, 0.280273, -9.7334, 1.12.2022 16:19:16.526
174, 1.79272, 0.210558, 321.458, -0.000976562, 0, 0, -0.0859375, 0.31543, -9.77734, 1.12.2022 16:19:16.534
175, 1.79272, 0.210558, 321.458, -0.000976562, 0, 0, -0.0195312, 0.295898, -9.77246, 1.12.2022 16:19:16.542
176, 1.78612, 0.212866, 321.458, -0.000976562, 0, 0, -0.0644531, 0.291992, -9.77637, 1.12.2022 16:19:16.550
177, 1.78612, 0.212866, 321.458, -0.000976562, -0.000976562, 0, -0.0644531, 0.304688, -9.74023, 1.12.2022 16:19:16.558
178, 1.78612, 0.212866, 321.458, -0.000976562, -0.000976562, 0.000976562, 0.00683594, 0.27832, -9.74512, 1.12.2022 16:19:16.566
179, 1.78612, 0.212866, 321.458, -0.000976562, -0.00195312, 0, -0.0859375, 0.276367, -9.75488, 1.12.2022 16:19:16.574
180, 1.78612, 0.212866, 321.458, -0.00195312, -0.00195312, 0, -0.03125, 0.282227, -9.7959, 1.12.2022 16:19:16.582
181, 1.78612, 0.212866, 321.458, -0.000976562, -0.000976562, 0, -0.0117188, 0.300781, -9.76953, 1.12.2022 16:19:16.590
182, 1.77952, 0.215174, 321.458, -0.000976562, 0, 0, -0.114258, 0.300781, -9.76855, 1.12.2022 16:19:16.598
183, 1.77952, 0.215174, 321.458, -0.000976562, 0, 0, -0.00488281, 0.291016, -9.74902, 1.12.2022 16:19:16.606
184, 1.77952, 0.215174, 321.458, -0.000976562, 0, 0.000976562, -0.0234375, 0.297852, -9.74902, 1.12.2022 16:19:16.614
185, 1.77952, 0.215174, 321.458, -0.000976562, 0, 0, -0.0644531, 0.306641, -9.78027, 1.12.2022 16:19:16.622
186, 1.77292, 0.217481, 321.457, -0.000976562, -0.000976562, 0, 0.0146484, 0.286133, -9.74023, 1.12.2022 16:19:16.630
187, 1.77292, 0.217481, 321.457, -0.000976562, -0.00195312, 0, -0.0742188, 0.333984, -9.74902, 1.12.2022 16:19:16.638
188, 1.77292, 0.217481, 321.457, -0.000976562, -0.000976562, 0, -0.0498047, 0.3125, -9.76172, 1.12.2022 16:19:16.646
189, 1.77292, 0.217481, 321.457, -0.000976562, -0.000976562, 0, -0.0146484, 0.279297, -9.76562, 1.12.2022 16:19:16.654
190, 1.77292, 0.217481, 321.457, -0.000976562, -0.000976562, 0, -0.0595703, 0.326172, -9.73535, 1.12.2022 16:19:16.662
191, 1.77292, 0.217481, 321.457, -0.000976562, 0, 0, -0.00195312, 0.288086, -9.74414, 1.12.2022 16:19:16.670
192, 1.77292, 0.217481, 321.457, 0, -0.000976562, 0, -0.0429688, 0.300781, -9.75977, 1.12.2022 16:19:16.678
193, 1.77292, 0.217481, 321.457, -0.000976562, -0.000976562, 0, -0.0693359, 0.339844, -9.79395, 1.12.2022 16:19:16.686
194, 1.77292, 0.217481, 321.457, -0.000976562, 0, 0, -0.00683594, 0.292969, -9.73438, 1.12.2022 16:19:16.694
195, 1.77292, 0.217481, 321.457, 0, -0.000976562, 0, -0.0810547, 0.279297, -9.7627, 1.12.2022 16:19:16.702
196, 1.77292, 0.217481, 321.457, 0, -0.000976562, 0, -0.0332031, 0.31543, -9.77148, 1.12.2022 16:19:16.710
197, 1.77292, 0.217481, 321.457, -0.000976562, -0.000976562, 0.000976562, -0.0146484, 0.289062, -9.77539, 1.12.2022 16:19:16.718
198, 1.77292, 0.217481, 321.457, -0.000976562, 0, 0, -0.102539, 0.337891, -9.73438, 1.12.2022 16:19:16.726
199, 1.77292, 0.217481, 321.457, -0.000976562, -0.000976562, 0, -0.0117188, 0.285156, -9.71387, 1.12.2022 16:19:16.734
200, 1.77523, 0.224083, 321.457, -0.000976562, -0.000976562, 0, -0.0429688, 0.276367, -9.76074, 1.12.2022 16:19:16.742
201, 1.77523, 0.224083, 321.457, -0.000976562, -0.000976562, 0, -0.0712891, 0.322266, -9.76562, 1.12.2022 16:19:16.750
202, 1.77523, 0.224083, 321.457, -0.000976562, -0.000976562, 0.000976562, -0.0078125, 0.300781, -9.77734, 1.12.2022 16:19:16.758
203, 1.77523, 0.224083, 321.457, -0.000976562, 0, -0.000976562, -0.0546875, 0.31543, -9.77148, 1.12.2022 16:19:16.766
204, 1.77523, 0.224083, 321.457, 0.000976562, 0, -0.000976562, -0.0546875, 0.324219, -9.75488, 1.12.2022 16:19:16.774
205, 1.77523, 0.224083, 321.457, -0.000976562, -0.000976562, -0.000976562, -0.0283203, 0.276367, -9.74707, 1.12.2022 16:19:16.782
206, 1.77523, 0.224083, 321.457, -0.000976562, -0.000976562, 0, -0.0644531, 0.317383, -9.76855, 1.12.2022 16:19:16.790
207, 1.77523, 0.224083, 321.457, -0.000976562, -0.000976562, 0, -0.0380859, 0.285156, -9.73242, 1.12.2022 16:19:16.798
208, 1.77523, 0.224083, 321.457, 0.000976562, 0, -0.000976562, -0.0302734, 0.260742, -9.7002, 1.12.2022 16:19:16.806
209, 1.77094, 0.232992, 321.457, -0.000976562, -0.000976562, 0, -0.0703125, 0.311523, -9.81641, 1.12.2022 16:19:16.814
210, 1.77094, 0.232992, 321.457, -0.000976562, -0.000976562, 0, 0.00683594, 0.295898, -9.77734, 1.12.2022 16:19:16.822
211, 1.77094, 0.232992, 321.457, -0.000976562, -0.000976562, -0.000976562, -0.0791016, 0.336914, -9.77246, 1.12.2022 16:19:16.830
212, 1.77094, 0.232992, 321.457, -0.000976562, -0.000976562, 0, -0.0605469, 0.337891, -9.79395, 1.12.2022 16:19:16.838
213, 1.77094, 0.232992, 321.457, 0.000976562, -0.000976562, -0.000976562, -0.0244141, 0.313477, -9.78613, 1.12.2022 16:19:16.846
214, 1.77094, 0.232992, 321.457, -0.000976562, -0.000976562, -0.000976562, -0.0957031, 0.322266, -9.75195, 1.12.2022 16:19:16.854
215, 1.77324, 0.239593, 321.457, -0.000976562, -0.00195312, -0.000976562, 0.00683594, 0.305664, -9.7793, 1.12.2022 16:19:16.862
216, 1.77324, 0.239593, 321.457, 0.000976562, -0.000976562, -0.000976562, -0.0146484, 0.262695, -9.76367, 1.12.2022 16:19:16.870
217, 1.77984, 0.237286, 321.457, -0.000976562, -0.000976562, -0.000976562, -0.0947266, 0.321289, -9.73047, 1.12.2022 16:19:16.878
218, 1.77984, 0.237286, 321.457, -0.000976562, -0.000976562, -0.000976562, -0.00488281, 0.291016, -9.75391, 1.12.2022 16:19:16.886
219, 1.77984, 0.237286, 321.457, 0.000976562, -0.000976562, 0, -0.0576172, 0.313477, -9.7832, 1.12.2022 16:19:16.894
220, 1.77984, 0.237286, 321.457, -0.000976562, -0.000976562, -0.000976562, -0.0742188, 0.319336, -9.75, 1.12.2022 16:19:16.902
221, 1.77984, 0.237286, 321.457, -0.000976562, -0.000976562, -0.000976562, -0.0136719, 0.268555, -9.74023, 1.12.2022 16:19:16.910
222, 1.77984, 0.237286, 321.457, -0.00195312, -0.000976562, -0.000976562, -0.0839844, 0.325195, -9.76367, 1.12.2022 16:19:16.918
223, 1.78215, 0.243887, 321.457, -0.00195312, -0.000976562, -0.000976562, -0.0214844, 0.305664, -9.7793, 1.12.2022 16:19:16.926
224, 1.78215, 0.243887, 321.457, -0.00195312, -0.000976562, -0.000976562, -0.0234375, 0.304688, -9.74316, 1.12.2022 16:19:16.934
225, 1.78215, 0.243887, 321.457, -0.00195312, -0.000976562, -0.000976562, -0.0625, 0.328125, -9.79004, 1.12.2022 16:19:16.942
226, 1.78215, 0.243887, 321.457, -0.00195312, -0.000976562, -0.000976562, 0.015625, 0.288086, -9.81543, 1.12.2022 16:19:16.950
227, 1.78215, 0.243887, 321.457, -0.000976562, -0.000976562, 0, -0.0478516, 0.303711, -9.78613, 1.12.2022 16:19:16.958
228, 1.78215, 0.243887, 321.457, -0.00195312, -0.000976562, -0.000976562, -0.0576172, 0.321289, -9.79492, 1.12.2022 16:19:16.966
229, 1.78215, 0.243887, 321.457, -0.000976562, 0, -0.00195312, 0, 0.28125, -9.76367, 1.12.2022 16:19:16.974
230, 1.78215, 0.243887, 321.457, -0.000976562, 0, -0.000976562, -0.0888672, 0.298828, -9.76855, 1.12.2022 16:19:16.982
231, 1.78215, 0.243887, 321.457, 0, 0, -0.00195312, -0.0263672, 0.335938, -9.74512, 1.12.2022 16:19:16.990
232, 1.78875, 0.241579, 321.457, 0.000976562, 0, -0.000976562, -0.0263672, 0.327148, -9.75, 1.12.2022 16:19:16.998
233, 1.78875, 0.241579, 321.457, 0.000976562, 0, 0, -0.0839844, 0.332031, -9.76367, 1.12.2022 16:19:17.006
234, 1.78644, 0.234978, 321.457, -0.000976562, -0.00195312, 0, 0.0195312, 0.273438, -9.73535, 1.12.2022 16:19:17.014
235, 1.78644, 0.234978, 321.457, -0.000976562, -0.000976562, 0, -0.0478516, 0.280273, -9.78418, 1.12.2022 16:19:17.022
236, 1.78644, 0.234978, 321.457, 0.000976562, -0.000976562, -0.000976562, -0.0361328, 0.286133, -9.74902, 1.12.2022 16:19:17.030
237, 1.78644, 0.234978, 321.457, -0.000976562, -0.000976562, -0.000976562, -0.00292969, 0.291992, -9.78418, 1.12.2022 16:19:17.038
238, 1.78644, 0.234978, 321.457, -0.00195312, 0, -0.000976562, -0.0986328, 0.324219, -9.81055, 1.12.2022 16:19:17.046
239, 1.78644, 0.234978, 321.457, -0.00195312, -0.000976562, -0.000976562, -0.0273438, 0.287109, -9.79102, 1.12.2022 16:19:17.054
240, 1.78644, 0.234978, 321.457, -0.000976562, -0.000976562, -0.000976562, -0.0361328, 0.285156, -9.79102, 1.12.2022 16:19:17.062
241, 1.78644, 0.234978, 321.457, -0.000976562, 0, -0.000976562, -0.0605469, 0.311523, -9.7998, 1.12.2022 16:19:17.070
242, 1.78644, 0.234978, 321.457, -0.000976562, -0.000976562, -0.000976562, 0.00195312, 0.277344, -9.78027, 1.12.2022 16:19:17.078
243, 1.77984, 0.237286, 321.457, 0.000976562, -0.000976562, -0.000976562, -0.0615234, 0.30957, -9.74023, 1.12.2022 16:19:17.086
244, 1.77984, 0.237286, 321.457, 0.000976562, -0.000976562, -0.000976562, -0.0800781, 0.321289, -9.81543, 1.12.2022 16:19:17.094
245, 1.77984, 0.237286, 321.457, -0.000976562, -0.000976562, -0.000976562, -0.0078125, 0.323242, -9.78809, 1.12.2022 16:19:17.102
246, 1.77984, 0.237286, 321.457, -0.000976562, -0.00195312, -0.000976562, -0.0996094, 0.317383, -9.73926, 1.12.2022 16:19:17.110
247, 1.77984, 0.237286, 321.457, -0.000976562, -0.000976562, -0.00195312, -0.0341797, 0.297852, -9.80957, 1.12.2022 16:19:17.118
248, 1.77984, 0.237286, 321.457, -0.000976562, -0.000976562, -0.000976562, -0.0146484, 0.272461, -9.78223, 1.12.2022 16:19:17.126
249, 1.77984, 0.237286, 321.457, -0.000976562, 0, -0.00195312, -0.0595703, 0.305664, -9.77832, 1.12.2022 16:19:17.134
250, 1.77984, 0.237286, 321.457, -0.000976562, -0.000976562, -0.000976562, 0.00390625, 0.293945, -9.78027, 1.12.2022 16:19:17.142
251, 1.77984, 0.237286, 321.457, -0.000976562, 0, -0.000976562, -0.0878906, 0.310547, -9.76172, 1.12.2022 16:19:17.150
252, 1.77984, 0.237286, 321.457, 0.000976562, 0, -0.000976562, -0.0478516, 0.354492, -9.78906, 1.12.2022 16:19:17.158
253, 1.77984, 0.237286, 321.457, 0.000976562, 0, 0, 0.00488281, 0.297852, -9.74902, 1.12.2022 16:19:17.166
254, 1.77984, 0.237286, 321.457, -0.000976562, -0.000976562, -0.000976562, -0.0859375, 0.327148, -9.74902, 1.12.2022 16:19:17.174
255, 1.77984, 0.237286, 321.457, -0.000976562, -0.000976562, -0.00195312, -0.0371094, 0.301758, -9.72266, 1.12.2022 16:19:17.182
256, 1.77984, 0.237286, 321.457, -0.000976562, -0.000976562, -0.000976562, -0.0195312, 0.28418, -9.75586, 1.12.2022 16:19:17.190
257, 1.77984, 0.237286, 321.457, -0.000976562, 0, -0.000976562, -0.0820312, 0.339844, -9.79395, 1.12.2022 16:19:17.198
258, 1.77984, 0.237286, 321.457, -0.000976562, 0, -0.00195312, -0.00976562, 0.295898, -9.75098, 1.12.2022 16:19:17.206
259, 1.78644, 0.234978, 321.457, -0.000976562, 0, -0.000976562, -0.0234375, 0.307617, -9.74805, 1.12.2022 16:19:17.214
260, 1.78644, 0.234978, 321.457, 0.000976562, -0.000976562, -0.000976562, -0.0478516, 0.321289, -9.74316, 1.12.2022 16:19:17.222
261, 1.78644, 0.234978, 321.457, 0.000976562, -0.000976562, 0, -0.0195312, 0.305664, -9.77637, 1.12.2022 16:19:17.230
262, 1.78644, 0.234978, 321.457, -0.000976562, -0.000976562, -0.000976562, -0.0791016, 0.298828, -9.7832, 1.12.2022 16:19:17.238
263, 1.78644, 0.234978, 321.457, -0.000976562, -0.000976562, -0.000976562, -0.0234375, 0.294922, -9.72949, 1.12.2022 16:19:17.246
264, 1.78644, 0.234978, 321.457, -0.000976562, 0, -0.000976562, -0.0292969, 0.289062, -9.77246, 1.12.2022 16:19:17.254
265, 1.78644, 0.234978, 321.457, -0.000976562, -0.000976562, -0.000976562, -0.09375, 0.328125, -9.80566, 1.12.2022 16:19:17.262
266, 1.78644, 0.234978, 321.457, -0.000976562, -0.000976562, -0.00195312, 0.0146484, 0.307617, -9.75391, 1.12.2022 16:19:17.270
267, 1.78644, 0.234978, 321.457, -0.000976562, -0.000976562, 0, -0.0332031, 0.31543, -9.7666, 1.12.2022 16:19:17.278
268, 1.78644, 0.234978, 321.457, -0.000976562, -0.000976562, 0, -0.0615234, 0.338867, -9.74219, 1.12.2022 16:19:17.286
269, 1.79304, 0.23267, 321.457, -0.000976562, -0.000976562, 0, 0.0185547, 0.293945, -9.79395, 1.12.2022 16:19:17.294
270, 1.79304, 0.23267, 321.457, -0.000976562, -0.000976562, 0, -0.0722656, 0.330078, -9.78223, 1.12.2022 16:19:17.302
271, 1.79304, 0.23267, 321.457, 0, -0.00195312, 0, -0.0263672, 0.34668, -9.77051, 1.12.2022 16:19:17.310
272, 1.79304, 0.23267, 321.457, -0.000976562, -0.000976562, 0, -0.0117188, 0.308594, -9.76953, 1.12.2022 16:19:17.318
273, 1.79964, 0.230362, 321.457, -0.000976562, -0.000976562, 0.000976562, -0.0732422, 0.331055, -9.74414, 1.12.2022 16:19:17.326
274, 1.79964, 0.230362, 321.457, -0.000976562, -0.000976562, 0.000976562, 0.00292969, 0.288086, -9.74902, 1.12.2022 16:19:17.334
275, 1.79964, 0.230362, 321.457, -0.000976562, -0.000976562, 0.000976562, -0.0361328, 0.320312, -9.75977, 1.12.2022 16:19:17.342
276, 1.79964, 0.230362, 321.457, -0.000976562, -0.000976562, 0, -0.0654297, 0.294922, -9.79004, 1.12.2022 16:19:17.350
277, 1.80624, 0.228055, 321.458, -0.000976562, -0.000976562, 0, 0, 0.297852, -9.74707, 1.12.2022 16:19:17.358
278, 1.80624, 0.228055, 321.458, -0.000976562, 0, 0.000976562, -0.0664062, 0.326172, -9.7373, 1.12.2022 16:19:17.366
279, 1.80624, 0.228055, 321.458, -0.000976562, -0.000976562, 0, -0.0234375, 0.307617, -9.75098, 1.12.2022 16:19:17.374
280, 1.80624, 0.228055, 321.458, 0, 0, 0, -0.00195312, 0.28125, -9.75391, 1.12.2022 16:19:17.382
281, 1.80393, 0.221453, 321.458, 0, -0.000976562, 0.000976562, -0.0791016, 0.322266, -9.76855, 1.12.2022 16:19:17.390
282, 1.80393, 0.221453, 321.458, -0.000976562, -0.000976562, 0, 0.0146484, 0.320312, -9.7627, 1.12.2022 16:19:17.398
283, 1.80393, 0.221453, 321.458, -0.000976562, -0.000976562, 0, -0.0751953, 0.299805, -9.81641, 1.12.2022 16:19:17.406
284, 1.80393, 0.221453, 321.458, -0.000976562, -0.000976562, 0, -0.0556641, 0.323242, -9.78711, 1.12.2022 16:19:17.414
285, 1.81053, 0.219145, 321.458, 0, -0.000976562, 0, 0.0263672, 0.292969, -9.75879, 1.12.2022 16:19:17.422
286, 1.81053, 0.219145, 321.458, -0.000976562, -0.000976562, 0, -0.0830078, 0.304688, -9.73828, 1.12.2022 16:19:17.430
287, 1.81053, 0.219145, 321.458, -0.000976562, -0.000976562, 0.000976562, -0.0429688, 0.31543, -9.75684, 1.12.2022 16:19:17.438
288, 1.81053, 0.219145, 321.458, -0.000976562, -0.000976562, 0.000976562, -0.0146484, 0.311523, -9.80078, 1.12.2022 16:19:17.446
289, 1.81053, 0.219145, 321.458, 0, -0.00195312, 0.000976562, -0.0810547, 0.305664, -9.77148, 1.12.2022 16:19:17.454
290, 1.81053, 0.219145, 321.458, 0, -0.000976562, 0, -0.0107422, 0.285156, -9.71094, 1.12.2022 16:19:17.462
291, 1.81053, 0.219145, 321.458, -0.000976562, -0.000976562, 0, -0.0410156, 0.291992, -9.79102, 1.12.2022 16:19:17.470
292, 1.81053, 0.219145, 321.458, -0.000976562, -0.00195312, 0, -0.0654297, 0.326172, -9.81543, 1.12.2022 16:19:17.478
293, 1.80393, 0.221453, 321.458, -0.00195312, -0.000976562, 0, 0.00390625, 0.266602, -9.81641, 1.12.2022 16:19:17.484
294, 1.80393, 0.221453, 321.458, -0.000976562, -0.000976562, 0, -0.0732422, 0.304688, -9.71973, 1.12.2022 16:19:17.492
295, 1.80393, 0.221453, 321.458, 0, -0.00195312, 0, -0.0566406, 0.333008, -9.72363, 1.12.2022 16:19:17.501
296, 1.80393, 0.221453, 321.458, -0.000976562, -0.000976562, 0, 0, 0.300781, -9.7793, 1.12.2022 16:19:17.508
297, 1.80393, 0.221453, 321.458, -0.000976562, -0.000976562, -0.00195312, -0.0917969, 0.331055, -9.80762, 1.12.2022 16:19:17.516
298, 1.80393, 0.221453, 321.458, -0.000976562, -0.00195312, 0, -0.00683594, 0.302734, -9.75586, 1.12.2022 16:19:17.524
299, 1.80393, 0.221453, 321.458, -0.000976562, -0.000976562, 0, -0.03125, 0.324219, -9.75684, 1.12.2022 16:19:17.532
300, 1.80624, 0.228055, 321.458, -0.00195312, 0, -0.000976562, -0.0595703, 0.345703, -9.75098, 1.12.2022 16:19:17.540
301, 1.80624, 0.228055, 321.458, -0.000976562, 0, -0.000976562, -0.0078125, 0.296875, -9.78906, 1.12.2022 16:19:17.548
302, 1.81283, 0.225747, 321.458, -0.000976562, 0, -0.00195312, -0.0507812, 0.319336, -9.82031, 1.12.2022 16:19:17.556
303, 1.81283, 0.225747, 321.458, -0.000976562, 0, -0.000976562, -0.0380859, 0.333984, -9.75195, 1.12.2022 16:19:17.564
304, 1.81053, 0.219145, 321.458, -0.000976562, 0, -0.000976562, 0.00195312, 0.264648, -9.75977, 1.12.2022 16:19:17.572
305, 1.81053, 0.219145, 321.458, -0.00195312, 0.000976562, 0, -0.0712891, 0.322266, -9.75879, 1.12.2022 16:19:17.580
306, 1.81053, 0.219145, 321.458, -0.00195312, 0, -0.000976562, 0, 0.332031, -9.77637, 1.12.2022 16:19:17.588
307, 1.81053, 0.219145, 321.458, 0, 0, -0.000976562, -0.0644531, 0.322266, -9.75684, 1.12.2022 16:19:17.596
308, 1.81283, 0.225747, 321.458, -0.000976562, 0, 0, -0.113281, 0.321289, -9.71387, 1.12.2022 16:19:17.604
309, 1.81943, 0.223439, 321.458, -0.000976562, 0, 0, 0.0234375, 0.27832, -9.75, 1.12.2022 16:19:17.612
310, 1.81943, 0.223439, 321.458, -0.000976562, 0.000976562, -0.000976562, -0.0927734, 0.310547, -9.75195, 1.12.2022 16:19:17.620
311, 1.81943, 0.223439, 321.458, 0, 0, -0.000976562, -0.0361328, 0.295898, -9.77441, 1.12.2022 16:19:17.628
312, 1.81943, 0.223439, 321.458, -0.000976562, 0.000976562, 0, 0.00488281, 0.300781, -9.77246, 1.12.2022 16:19:17.636
313, 1.81943, 0.223439, 321.458, -0.000976562, 0, -0.000976562, -0.0927734, 0.310547, -9.75684, 1.12.2022 16:19:17.644
314, 1.81283, 0.225747, 321.458, -0.000976562, 0, -0.000976562, -0.00976562, 0.288086, -9.73926, 1.12.2022 16:19:17.652
315, 1.81283, 0.225747, 321.458, -0.000976562, 0, -0.00195312, -0.0283203, 0.286133, -9.75586, 1.12.2022 16:19:17.660
316, 1.81283, 0.225747, 321.458, -0.000976562, 0, -0.000976562, -0.0712891, 0.327148, -9.75195, 1.12.2022 16:19:17.668
317, 1.81283, 0.225747, 321.458, -0.000976562, 0, -0.000976562, 0, 0.291992, -9.78223, 1.12.2022 16:19:17.676
318, 1.81283, 0.225747, 321.458, -0.00195312, 0, -0.000976562, -0.0742188, 0.308594, -9.78027, 1.12.2022 16:19:17.684
319, 1.81283, 0.225747, 321.458, -0.00195312, 0, -0.000976562, -0.0488281, 0.290039, -9.79785, 1.12.2022 16:19:17.692
320, 1.81283, 0.225747, 321.458, -0.000976562, 0, 0, -0.0195312, 0.290039, -9.79102, 1.12.2022 16:19:17.700
321, 1.81283, 0.225747, 321.458, 0, -0.000976562, 0, -0.0761719, 0.332031, -9.77246, 1.12.2022 16:19:17.708
322, 1.81283, 0.225747, 321.458, -0.000976562, 0, -0.000976562, -0.00195312, 0.329102, -9.74805, 1.12.2022 16:19:17.716
323, 1.80624, 0.228055, 321.458, 0, 0, 0, -0.0244141, 0.293945, -9.78906, 1.12.2022 16:19:17.724
324, 1.80624, 0.228055, 321.458, -0.000976562, 0.000976562, 0, -0.0644531, 0.308594, -9.77148, 1.12.2022 16:19:17.732
325, 1.80624, 0.228055, 321.458, -0.00195312, 0, -0.000976562, -0.00292969, 0.291992, -9.7793, 1.12.2022 16:19:17.740
326, 1.80624, 0.228055, 321.458, -0.00195312, 0, -0.000976562, -0.0556641, 0.300781, -9.77637, 1.12.2022 16:19:17.748
327, 1.80624, 0.228055, 321.458, -0.000976562, 0, 0, -0.0410156, 0.303711, -9.77637, 1.12.2022 16:19:17.756
328, 1.80624, 0.228055, 321.458, -0.00195312, 0, 0, -0.0195312, 0.306641, -9.78418, 1.12.2022 16:19:17.764
329, 1.80624, 0.228055, 321.458, -0.00195312, -0.000976562, -0.000976562, -0.0888672, 0.303711, -9.7832, 1.12.2022 16:19:17.772
330, 1.80624, 0.228055, 321.458, -0.000976562, -0.000976562, -0.000976562, 0.0078125, 0.306641, -9.72949, 1.12.2022 16:19:17.780
331, 1.80624, 0.228055, 321.458, 0, -0.000976562, 0, -0.0341797, 0.298828, -9.78125, 1.12.2022 16:19:17.788
332, 1.80624, 0.228055, 321.458, 0, -0.000976562, -0.000976562, -0.0556641, 0.333008, -9.78711, 1.12.2022 16:19:17.796
333, 1.80393, 0.221453, 321.458, 0, 0.000976562, -0.000976562, -0.0078125, 0.303711, -9.79395, 1.12.2022 16:19:17.804
334, 1.80393, 0.221453, 321.458, 0, -0.000976562, 0, -0.0732422, 0.302734, -9.83691, 1.12.2022 16:19:17.812
335, 1.80383, 0.221354, 321.452, -0.000976562, -0.000976562, 0, -0.0351562, 0.316406, -9.73633, 1.12.2022 16:19:17.820
336, 1.80383, 0.221354, 321.452, -0.000976562, -0.000976562, -0.000976562, 0.0332031, 0.272461, -9.76953, 1.12.2022 16:19:17.828
337, 1.80383, 0.221354, 321.452, 0, -0.00195312, -0.000976562, -0.0742188, 0.306641, -9.7832, 1.12.2022 16:19:17.836
338, 1.80393, 0.221453, 321.458, 0, -0.000976562, -0.000976562, -0.00488281, 0.295898, -9.76758, 1.12.2022 16:19:17.844
339, 1.80393, 0.221453, 321.458, 0, -0.000976562, -0.000976562, -0.0117188, 0.300781, -9.75781, 1.12.2022 16:19:17.852
340, 1.80162, 0.214852, 321.458, -0.000976562, -0.00195312, -0.000976562, -0.078125, 0.304688, -9.72656, 1.12.2022 16:19:17.860
341, 1.80162, 0.214852, 321.458, 0, -0.000976562, -0.000976562, 0.0166016, 0.287109, -9.77344, 1.12.2022 16:19:17.868
342, 1.79502, 0.21716, 321.458, -0.000976562, -0.00195312, -0.000976562, -0.0556641, 0.300781, -9.77637, 1.12.2022 16:19:17.876
343, 1.79502, 0.21716, 321.458, 0, -0.000976562, 0, -0.0429688, 0.308594, -9.77637, 1.12.2022 16:19:17.884
344, 1.79502, 0.21716, 321.458, 0, -0.000976562, 0, -0.00585938, 0.301758, -9.79395, 1.12.2022 16:19:17.892
345, 1.79493, 0.217061, 321.452, 0, -0.000976562, -0.000976562, -0.107422, 0.34082, -9.74609, 1.12.2022 16:19:17.900
346, 1.79502, 0.21716, 321.458, 0, 0.000976562, -0.000976562, -0.0429688, 0.310547, -9.75488, 1.12.2022 16:19:17.908
347, 1.79502, 0.21716, 321.458, -0.000976562, -0.000976562, -0.000976562, -0.03125, 0.306641, -9.78809, 1.12.2022 16:19:17.916
348, 1.79502, 0.21716, 321.458, 0, -0.000976562, -0.000976562, -0.0761719, 0.329102, -9.73242, 1.12.2022 16:19:17.924
349, 1.79502, 0.21716, 321.458, 0, -0.000976562, -0.000976562, 0, 0.330078, -9.77441, 1.12.2022 16:19:17.932
350, 1.79502, 0.21716, 321.458, 0, -0.000976562, -0.00195312, -0.0458984, 0.330078, -9.7666, 1.12.2022 16:19:17.940
351, 1.80162, 0.214852, 321.458, 0, 0.000976562, -0.00195312, -0.0839844, 0.296875, -9.7832, 1.12.2022 16:19:17.948
352, 1.80162, 0.214852, 321.458, 0, -0.000976562, -0.00195312, -0.00292969, 0.286133, -9.76562, 1.12.2022 16:19:17.956
353, 1.80162, 0.214852, 321.458, 0.000976562, -0.000976562, -0.000976562, -0.0791016, 0.325195, -9.77539, 1.12.2022 16:19:17.964
354, 1.79502, 0.21716, 321.458, 0.000976562, -0.000976562, -0.000976562, -0.00976562, 0.287109, -9.78223, 1.12.2022 16:19:17.972
355, 1.79502, 0.21716, 321.458, -0.000976562, -0.00195312, 0, -0.0273438, 0.283203, -9.81738, 1.12.2022 16:19:17.980
356, 1.79733, 0.223761, 321.458, 0, -0.00195312, -0.00195312, -0.0722656, 0.328125, -9.78516, 1.12.2022 16:19:17.988
357, 1.79733, 0.223761, 321.458, 0, -0.000976562, -0.000976562, 0.0078125, 0.304688, -9.7373, 1.12.2022 16:19:17.996
358, 1.79733, 0.223761, 321.458, 0, -0.000976562, -0.000976562, -0.0498047, 0.322266, -9.76855, 1.12.2022 16:19:18.004
359, 1.79733, 0.223761, 321.458, 0, -0.000976562, -0.00195312, -0.0722656, 0.318359, -9.78516, 1.12.2022 16:19:18.012
360, 1.79733, 0.223761, 321.458, -0.000976562, -0.000976562, -0.000976562, -0.0107422, 0.285156, -9.80371, 1.12.2022 16:19:18.020
361, 1.79733, 0.223761, 321.458, 0, -0.000976562, -0.000976562, -0.0771484, 0.298828, -9.77832, 1.12.2022 16:19:18.028
362, 1.79733, 0.223761, 321.458, -0.000976562, -0.000976562, -0.00195312, -0.0263672, 0.291016, -9.76758, 1.12.2022 16:19:18.036
363, 1.79733, 0.223761, 321.458, 0, 0, 0, -0.0234375, 0.304688, -9.74609, 1.12.2022 16:19:18.044
364, 1.79733, 0.223761, 321.458, 0, -0.00195312, -0.00195312, -0.0654297, 0.349609, -9.79883, 1.12.2022 16:19:18.052
365, 1.79733, 0.223761, 321.458, 0, -0.00195312, -0.000976562, 0.00976562, 0.275391, -9.72656, 1.12.2022 16:19:18.060
366, 1.79733, 0.223761, 321.458, 0, -0.00195312, -0.000976562, -0.0527344, 0.319336, -9.75, 1.12.2022 16:19:18.068
367, 1.79733, 0.223761, 321.458, 0, 0, 0, -0.0458984, 0.317383, -9.76855, 1.12.2022 16:19:18.076
368, 1.79733, 0.223761, 321.458, 0, 0, 0, 0.0136719, 0.282227, -9.79004, 1.12.2022 16:19:18.084
369, 1.79733, 0.223761, 321.458, 0, -0.00195312, -0.000976562, -0.0957031, 0.330078, -9.79102, 1.12.2022 16:19:18.092
370, 1.79733, 0.223761, 321.458, 0, 0, 0, -0.0400391, 0.337891, -9.72168, 1.12.2022 16:19:18.100
371, 1.79733, 0.223761, 321.458, 0, 0, 0, -0.0527344, 0.300781, -9.77637, 1.12.2022 16:19:18.108
372, 1.80393, 0.221453, 321.458, 0, 0, 0, -0.0625, 0.358398, -9.7627, 1.12.2022 16:19:18.116
373, 1.80393, 0.221453, 321.458, 0, 0, 0, -0.0283203, 0.307617, -9.74316, 1.12.2022 16:19:18.124
374, 1.80624, 0.228055, 321.458, 0, 0, 0, -0.0527344, 0.28418, -9.77246, 1.12.2022 16:19:18.132
375, 1.80624, 0.228055, 321.458, 0, 0, 0, -0.0566406, 0.316406, -9.72363, 1.12.2022 16:19:18.140
376, 1.80624, 0.228055, 321.458, 0, 0, 0, 0.00683594, 0.289062, -9.77734, 1.12.2022 16:19:18.148
377, 1.80624, 0.228055, 321.458, 0, 0, 0, -0.0761719, 0.327148, -9.76855, 1.12.2022 16:19:18.156
378, 1.80624, 0.228055, 321.458, 0, 0, 0, -0.0458984, 0.302734, -9.7627, 1.12.2022 16:19:18.164
379, 1.80624, 0.228055, 321.458, 0, 0, 0, 0, 0.294922, -9.74414, 1.12.2022 16:19:18.172
380, 1.80624, 0.228055, 321.458, 0, 0, -0.00195312, -0.0693359, 0.330078, -9.78516, 1.12.2022 16:19:18.180
381, 1.80624, 0.228055, 321.458, 0, -0.00195312, -0.000976562, 0.00390625, 0.308594, -9.7793, 1.12.2022 16:19:18.188
382, 1.80624, 0.228055, 321.458, 0, 0, 0.000976562, -0.0244141, 0.305664, -9.77637, 1.12.2022 16:19:18.196
383, 1.80624, 0.228055, 321.458, 0, 0, 0, -0.0546875, 0.322266, -9.7666, 1.12.2022 16:19:18.204
384, 1.80624, 0.228055, 321.458, 0, 0, 0, 0.00488281, 0.286133, -9.74707, 1.12.2022 16:19:18.212
385, 1.80624, 0.228055, 321.458, -0.000976562, 0, 0, -0.0644531, 0.300781, -9.7666, 1.12.2022 16:19:18.220
386, 1.80624, 0.228055, 321.458, 0, 0, -0.00195312, -0.0458984, 0.301758, -9.78809, 1.12.2022 16:19:18.228
387, 1.81283, 0.225747, 321.458, -0.000976562, 0, -0.00195312, -0.00585938, 0.299805, -9.7959, 1.12.2022 16:19:18.236
388, 1.81283, 0.225747, 321.458, -0.000976562, 0, 0, -0.0878906, 0.332031, -9.75879, 1.12.2022 16:19:18.244
389, 1.81283, 0.225747, 321.458, 0, 0, 0, 0.0146484, 0.313477, -9.7207, 1.12.2022 16:19:18.252
390, 1.81053, 0.219145, 321.458, 0, 0, 0.000976562, -0.0332031, 0.305664, -9.75098, 1.12.2022 16:19:18.260
391, 1.81053, 0.219145, 321.458, -0.000976562, -0.00195312, 0.000976562, -0.0625, 0.320312, -9.77051, 1.12.2022 16:19:18.268
392, 1.81053, 0.219145, 321.458, -0.000976562, 0, 0, 0.0234375, 0.274414, -9.75, 1.12.2022 16:19:18.276
393, 1.81053, 0.219145, 321.458, 0, 0.000976562, 0, -0.0810547, 0.282227, -9.76465, 1.12.2022 16:19:18.284
394, 1.81053, 0.219145, 321.458, 0.000976562, 0, 0, -0.0410156, 0.322266, -9.77637, 1.12.2022 16:19:18.292
395, 1.81053, 0.219145, 321.458, 0.000976562, 0, 0.000976562, -0.0175781, 0.296875, -9.78613, 1.12.2022 16:19:18.300
396, 1.81053, 0.219145, 321.458, 0, -0.000976562, -0.000976562, -0.0761719, 0.31543, -9.76172, 1.12.2022 16:19:18.308
397, 1.80393, 0.221453, 321.458, 0.000976562, 0, -0.000976562, -0.0234375, 0.283203, -9.74902, 1.12.2022 16:19:18.316
398, 1.80393, 0.221453, 321.458, 0.000976562, -0.000976562, 0.000976562, -0.0498047, 0.307617, -9.73633, 1.12.2022 16:19:18.324
399, 1.80393, 0.221453, 321.458, -0.000976562, 0, 0.000976562, -0.0673828, 0.31543, -9.77344, 1.12.2022 16:19:18.332
400, 1.80393, 0.221453, 321.458, 0, 0, 0, 0.0166016, 0.291992, -9.78027, 1.12.2022 16:19:18.340
401, 1.80393, 0.221453, 321.458, 0, 0, 0, -0.0664062, 0.335938, -9.74707, 1.12.2022 16:19:18.348
402, 1.80393, 0.221453, 321.458, 0, 0.000976562, 0, -0.0283203, 0.350586, -9.75684, 1.12.2022 16:19:18.356
403, 1.80162, 0.214852, 321.458, 0, 0, 0.000976562, -0.0195312, 0.31543, -9.75977, 1.12.2022 16:19:18.364
404, 1.80393, 0.221453, 321.458, 0, 0, 0, -0.09375, 0.325195, -9.78711, 1.12.2022 16:19:18.372
405, 1.80393, 0.221453, 321.458, -0.000976562, 0.000976562, 0, -0.0224609, 0.290039, -9.80078, 1.12.2022 16:19:18.380
406, 1.81053, 0.219145, 321.458, -0.000976562, 0, 0, -0.0185547, 0.302734, -9.75098, 1.12.2022 16:19:18.388
407, 1.81053, 0.219145, 321.458, 0, -0.000976562, -0.000976562, -0.0751953, 0.299805, -9.71484, 1.12.2022 16:19:18.396
408, 1.81053, 0.219145, 321.458, 0.000976562, 0, -0.000976562, -0.00488281, 0.288086, -9.74902, 1.12.2022 16:19:18.404
409, 1.80393, 0.221453, 321.458, 0, 0, 0, -0.0722656, 0.330078, -9.77734, 1.12.2022 16:19:18.412
410, 1.81053, 0.219145, 321.458, 0, 0, 0, -0.0449219, 0.318359, -9.71973, 1.12.2022 16:19:18.420
411, 1.81053, 0.219145, 321.458, 0, 0, 0, -0.0175781, 0.28418, -9.78418, 1.12.2022 16:19:18.428
412, 1.80393, 0.221453, 321.458, 0, 0, 0, -0.0742188, 0.305664, -9.77148, 1.12.2022 16:19:18.436
413, 1.80393, 0.221453, 321.458, 0.000976562, 0, -0.000976562, 0.00195312, 0.296875, -9.7793, 1.12.2022 16:19:18.442
414, 1.80393, 0.221453, 321.458, 0, 0.000976562, 0, -0.0332031, 0.291016, -9.75098, 1.12.2022 16:19:18.450
415, 1.80393, 0.221453, 321.458, 0, 0, 0, -0.0839844, 0.308594, -9.76367, 1.12.2022 16:19:18.458
416, 1.80393, 0.221453, 321.458, 0, 0, 0, 0.0166016, 0.288086, -9.7373, 1.12.2022 16:19:18.466
417, 1.80393, 0.221453, 321.458, 0.000976562, 0.000976562, 0, -0.0615234, 0.306641, -9.72656, 1.12.2022 16:19:18.474
418, 1.80393, 0.221453, 321.458, 0, 0, 0.000976562, -0.0478516, 0.307617, -9.76465, 1.12.2022 16:19:18.482
419, 1.80393, 0.221453, 321.458, -0.000976562, 0, 0, 0.00683594, 0.286133, -9.75879, 1.12.2022 16:19:18.490
420, 1.80393, 0.221453, 321.458, -0.000976562, 0, 0, -0.0869141, 0.308594, -9.79492, 1.12.2022 16:19:18.498
421, 1.80162, 0.214852, 321.458, 0, 0, 0, 0.00390625, 0.329102, -9.81934, 1.12.2022 16:19:18.506
422, 1.80162, 0.214852, 321.458, 0, 0, 0, -0.0351562, 0.329102, -9.84668, 1.12.2022 16:19:18.514
423, 1.80162, 0.214852, 321.458, 0.000976562, 0, -0.000976562, -0.0810547, 0.334961, -9.7793, 1.12.2022 16:19:18.522
424, 1.80162, 0.214852, 321.458, -0.000976562, 0, 0, 0.0234375, 0.262695, -9.76172, 1.12.2022 16:19:18.530
425, 1.80162, 0.214852, 321.458, -0.000976562, 0.000976562, 0, -0.0595703, 0.305664, -9.77148, 1.12.2022 16:19:18.538
426, 1.80162, 0.214852, 321.458, 0, 0, 0, -0.0761719, 0.327148, -9.75195, 1.12.2022 16:19:18.546
427, 1.80162, 0.214852, 321.458, 0, 0, -0.000976562, -0.00683594, 0.296875, -9.72754, 1.12.2022 16:19:18.554
428, 1.80162, 0.214852, 321.458, 0, -0.000976562, -0.000976562, -0.0742188, 0.322266, -9.76562, 1.12.2022 16:19:18.562
429, 1.80162, 0.214852, 321.458, -0.00195312, 0, -0.000976562, -0.00585938, 0.304688, -9.8125, 1.12.2022 16:19:18.570
430, 1.80162, 0.214852, 321.458, -0.00195312, 0, 0.000976562, -0.0625, 0.301758, -9.78516, 1.12.2022 16:19:18.578
431, 1.80162, 0.214852, 321.458, 0, -0.000976562, -0.000976562, -0.0771484, 0.308594, -9.79004, 1.12.2022 16:19:18.586
432, 1.80162, 0.214852, 321.458, 0, -0.00195312, 0, 0.00488281, 0.289062, -9.76855, 1.12.2022 16:19:18.594
433, 1.80162, 0.214852, 321.458, 0, -0.000976562, -0.00195312, -0.0546875, 0.308594, -9.7666, 1.12.2022 16:19:18.602
434, 1.80162, 0.214852, 321.458, 0, -0.000976562, -0.000976562, -0.0263672, 0.319336, -9.75488, 1.12.2022 16:19:18.610
435, 1.80162, 0.214852, 321.458, 0.000976562, -0.000976562, -0.000976562, -0.00488281, 0.283203, -9.74414, 1.12.2022 16:19:18.618
436, 1.80162, 0.214852, 321.458, 0, -0.000976562, -0.00195312, -0.0839844, 0.3125, -9.76367, 1.12.2022 16:19:18.626
437, 1.80162, 0.214852, 321.458, -0.00195312, -0.000976562, -0.000976562, 0, 0.300781, -9.7627, 1.12.2022 16:19:18.634
438, 1.79502, 0.21716, 321.458, 0, -0.000976562, -0.000976562, -0.03125, 0.304688, -9.74805, 1.12.2022 16:19:18.642
439, 1.80162, 0.214852, 321.458, -0.00195312, -0.000976562, -0.000976562, -0.0771484, 0.330078, -9.78418, 1.12.2022 16:19:18.650
440, 1.80162, 0.214852, 321.458, 0, -0.00195312, -0.000976562, -0.0146484, 0.307617, -9.76758, 1.12.2022 16:19:18.658
441, 1.80162, 0.214852, 321.458, 0, -0.00195312, -0.000976562, -0.0546875, 0.302734, -9.75488, 1.12.2022 16:19:18.666
442, 1.79733, 0.223761, 321.458, 0, -0.000976562, -0.000976562, -0.0517578, 0.292969, -9.73145, 1.12.2022 16:19:18.674
443, 1.79733, 0.223761, 321.458, 0, -0.000976562, -0.000976562, 0, 0.283203, -9.74902, 1.12.2022 16:19:18.682
444, 1.79733, 0.223761, 321.458, 0, -0.00195312, -0.000976562, -0.0927734, 0.325195, -9.76074, 1.12.2022 16:19:18.690
445, 1.79733, 0.223761, 321.458, 0, 0, -0.000976562, -0.03125, 0.291016, -9.74902, 1.12.2022 16:19:18.698
446, 1.79733, 0.223761, 321.458, 0, 0, -0.000976562, -0.0595703, 0.291016, -9.74609, 1.12.2022 16:19:18.706
447, 1.79733, 0.223761, 321.458, 0, -0.000976562, -0.000976562, -0.0732422, 0.342773, -9.73438, 1.12.2022 16:19:18.714
448, 1.79733, 0.223761, 321.458, 0, 0, -0.000976562, -0.0166016, 0.290039, -9.73438, 1.12.2022 16:19:18.722
449, 1.79733, 0.223761, 321.458, 0, -0.000976562, -0.000976562, -0.0703125, 0.299805, -9.79785, 1.12.2022 16:19:18.730
450, 1.79733, 0.223761, 321.458, 0, 0, -0.000976562, -0.0761719, 0.298828, -9.76172, 1.12.2022 16:19:18.738
451, 1.79733, 0.223761, 321.458, -0.00195312, -0.000976562, -0.000976562, -0.00585938, 0.290039, -9.79395, 1.12.2022 16:19:18.746
452, 1.79304, 0.23267, 321.457, 0, -0.00195312, -0.000976562, -0.0742188, 0.330078, -9.76855, 1.12.2022 16:19:18.754
453, 1.79304, 0.23267, 321.457, 0, -0.000976562, -0.000976562, -0.0400391, 0.30957, -9.74805, 1.12.2022 16:19:18.762
454, 1.79304, 0.23267, 321.457, 0, -0.000976562, 0, -0.0585938, 0.268555, -9.81055, 1.12.2022 16:19:18.770
455, 1.79304, 0.23267, 321.457, 0, -0.000976562, 0, -0.0712891, 0.329102, -9.73047, 1.12.2022 16:19:18.778
456, 1.79535, 0.239272, 321.457, 0, -0.000976562, -0.000976562, 0.00390625, 0.277344, -9.77832, 1.12.2022 16:19:18.786
457, 1.79535, 0.239272, 321.457, 0, -0.000976562, -0.000976562, -0.0224609, 0.311523, -9.79102, 1.12.2022 16:19:18.794
458, 1.79535, 0.239272, 321.457, 0, 0, 0, -0.0449219, 0.294922, -9.74121, 1.12.2022 16:19:18.802
459, 1.78644, 0.234978, 321.457, 0, -0.000976562, -0.000976562, -0.0126953, 0.270508, -9.79004, 1.12.2022 16:19:18.810
460, 1.78644, 0.234978, 321.457, 0, -0.000976562, -0.00195312, -0.0625, 0.295898, -9.77148, 1.12.2022 16:19:18.818
461, 1.78644, 0.234978, 321.457, -0.000976562, -0.000976562, -0.000976562, 0.00292969, 0.290039, -9.72559, 1.12.2022 16:19:18.826
462, 1.78644, 0.234978, 321.457, -0.000976562, -0.000976562, -0.000976562, -0.00976562, 0.307617, -9.74414, 1.12.2022 16:19:18.834
463, 1.78644, 0.234978, 321.457, 0, 0.000976562, -0.00195312, -0.078125, 0.319336, -9.74219, 1.12.2022 16:19:18.842
464, 1.78644, 0.234978, 321.457, 0, 0.000976562, -0.000976562, -0.0166016, 0.295898, -9.75098, 1.12.2022 16:19:18.850
465, 1.78644, 0.234978, 321.457, 0, -0.000976562, 0, -0.0546875, 0.307617, -9.75, 1.12.2022 16:19:18.858
466, 1.78644, 0.234978, 321.457, 0, -0.00195312, 0, -0.03125, 0.333984, -9.75879, 1.12.2022 16:19:18.866
467, 1.78413, 0.228377, 321.457, 0, -0.000976562, -0.000976562, -0.0166016, 0.293945, -9.7627, 1.12.2022 16:19:18.874
468, 1.78413, 0.228377, 321.457, 0, -0.000976562, -0.000976562, -0.0927734, 0.310547, -9.77051, 1.12.2022 16:19:18.882
469, 1.78413, 0.228377, 321.457, 0, -0.000976562, 0, -0.0429688, 0.322266, -9.74512, 1.12.2022 16:19:18.890
470, 1.78644, 0.234978, 321.457, 0, -0.000976562, -0.000976562, -0.0595703, 0.313477, -9.77832, 1.12.2022 16:19:18.898
471, 1.78644, 0.234978, 321.457, 0, -0.000976562, -0.000976562, -0.0888672, 0.332031, -9.77539, 1.12.2022 16:19:18.906
472, 1.78644, 0.234978, 321.457, 0, -0.000976562, -0.000976562, 0.0283203, 0.307617, -9.75391, 1.12.2022 16:19:18.914
473, 1.78644, 0.234978, 321.457, 0, -0.000976562, -0.000976562, -0.0644531, 0.322266, -9.75879, 1.12.2022 16:19:18.922
474, 1.78644, 0.234978, 321.457, 0, -0.000976562, -0.000976562, -0.0957031, 0.317383, -9.76074, 1.12.2022 16:19:18.930
475, 1.78644, 0.234978, 321.457, -0.000976562, -0.000976562, -0.000976562, 0.00195312, 0.282227, -9.77734, 1.12.2022 16:19:18.938
476, 1.78875, 0.241579, 321.457, 0, 0.000976562, -0.000976562, -0.0888672, 0.330078, -9.77734, 1.12.2022 16:19:18.946
477, 1.78875, 0.241579, 321.457, 0, -0.000976562, -0.000976562, -0.0458984, 0.313477, -9.78125, 1.12.2022 16:19:18.954
478, 1.78875, 0.241579, 321.457, 0, -0.000976562, -0.000976562, -0.0263672, 0.310547, -9.75977, 1.12.2022 16:19:18.962
479, 1.79535, 0.239272, 321.457, 0, -0.000976562, -0.000976562, -0.0761719, 0.327148, -9.76562, 1.12.2022 16:19:18.970
480, 1.79535, 0.239272, 321.457, 0, -0.00195312, 0, 0.0078125, 0.3125, -9.74414, 1.12.2022 16:19:18.978
481, 1.79765, 0.245873, 321.457, 0, -0.000976562, -0.000976562, -0.0527344, 0.311523, -9.7998, 1.12.2022 16:19:18.986
482, 1.79765, 0.245873, 321.457, 0.000976562, 0.000976562, -0.000976562, -0.0595703, 0.318359, -9.77344, 1.12.2022 16:19:18.994
483, 1.79765, 0.245873, 321.457, 0, -0.000976562, -0.000976562, 0.00878906, 0.291016, -9.77051, 1.12.2022 16:19:19.002
484, 1.79765, 0.245873, 321.457, 0, -0.000976562, -0.000976562, -0.0791016, 0.313477, -9.77539, 1.12.2022 16:19:19.010
485, 1.79765, 0.245873, 321.457, -0.000976562, 0.000976562, -0.000976562, -0.0498047, 0.327148, -9.75, 1.12.2022 16:19:19.018
486, 1.80425, 0.243565, 321.457, 0, -0.000976562, -0.000976562, -0.000976562, 0.275391, -9.79199, 1.12.2022 16:19:19.026
487, 1.80425, 0.243565, 321.457, 0, -0.000976562, -0.000976562, -0.0810547, 0.3125, -9.74707, 1.12.2022 16:19:19.034
488, 1.80425, 0.243565, 321.457, 0, -0.000976562, -0.000976562, 0.00976562, 0.285156, -9.7334, 1.12.2022 16:19:19.042
489, 1.80425, 0.243565, 321.457, 0, -0.000976562, -0.000976562, -0.0361328, 0.31543, -9.77148, 1.12.2022 16:19:19.050
490, 1.80425, 0.243565, 321.457, 0, -0.000976562, -0.000976562, -0.0625, 0.327148, -9.77344, 1.12.2022 16:19:19.058
491, 1.80425, 0.243565, 321.457, 0, -0.000976562, -0.000976562, 0.0166016, 0.303711, -9.78223, 1.12.2022 16:19:19.066
492, 1.80425, 0.243565, 321.457, 0, -0.000976562, -0.000976562, -0.0908203, 0.330078, -9.77246, 1.12.2022 16:19:19.074
493, 1.80425, 0.243565, 321.457, 0, -0.000976562, 0.000976562, -0.0566406, 0.317383, -9.75, 1.12.2022 16:19:19.082
494, 1.80425, 0.243565, 321.457, 0, -0.000976562, 0.000976562, -0.0380859, 0.288086, -9.73926, 1.12.2022 16:19:19.090
495, 1.80425, 0.243565, 321.457, 0, -0.000976562, -0.000976562, -0.0966797, 0.314453, -9.80859, 1.12.2022 16:19:19.098
496, 1.80425, 0.243565, 321.457, 0, -0.00195312, -0.000976562, 0.0175781, 0.306641, -9.71582, 1.12.2022 16:19:19.106
497, 1.80425, 0.243565, 321.457, 0, -0.00195312, -0.000976562, -0.0498047, 0.295898, -9.75781, 1.12.2022 16:19:19.114
498, 1.80425, 0.243565, 321.457, 0.000976562, -0.000976562, 0.000976562, -0.0410156, 0.341797, -9.76855, 1.12.2022 16:19:19.122
499, 1.80425, 0.243565, 321.457, 0, -0.000976562, -0.000976562, 0.00195312, 0.303711, -9.78223, 1.12.2022 16:19:19.130
500, 1.80425, 0.243565, 321.457, 0, -0.00195312, -0.000976562, -0.0761719, 0.305664, -9.75977, 1.12.2022 16:19:19.138
501, 1.80425, 0.243565, 321.457, 0, -0.000976562, -0.000976562, -0.03125, 0.313477, -9.77832, 1.12.2022 16:19:19.146
502, 1.80425, 0.243565, 321.457, 0, -0.000976562, -0.000976562, -0.0283203, 0.283203, -9.74902, 1.12.2022 16:19:19.154
503, 1.80425, 0.243565, 321.457, -0.000976562, -0.000976562, -0.000976562, -0.0908203, 0.307617, -9.75391, 1.12.2022 16:19:19.162
504, 1.81085, 0.241258, 321.457, -0.000976562, -0.000976562, -0.000976562, -0.0195312, 0.310547, -9.7793, 1.12.2022 16:19:19.170
505, 1.81085, 0.241258, 321.457, 0, -0.000976562, -0.000976562, -0.0458984, 0.301758, -9.7832, 1.12.2022 16:19:19.178
506, 1.80425, 0.243565, 321.457, 0.000976562, -0.00195312, -0.000976562, -0.0712891, 0.321289, -9.74023, 1.12.2022 16:19:19.186
507, 1.80425, 0.243565, 321.457, -0.000976562, -0.00195312, -0.000976562, -0.0136719, 0.288086, -9.74414, 1.12.2022 16:19:19.194
508, 1.80425, 0.243565, 321.457, 0, -0.000976562, -0.000976562, -0.0791016, 0.31543, -9.75684, 1.12.2022 16:19:19.202
509, 1.80425, 0.243565, 321.457, 0, -0.000976562, -0.00195312, -0.0458984, 0.311523, -9.79785, 1.12.2022 16:19:19.210
510, 1.80425, 0.243565, 321.457, 0, -0.000976562, -0.000976562, -0.0195312, 0.305664, -9.77246, 1.12.2022 16:19:19.218
511, 1.80425, 0.243565, 321.457, 0.000976562, -0.000976562, -0.000976562, -0.0693359, 0.318359, -9.78711, 1.12.2022 16:19:19.226
512, 1.80425, 0.243565, 321.457, 0, 0, 0.000976562, 0.0146484, 0.304688, -9.74902, 1.12.2022 16:19:19.234
513, 1.80425, 0.243565, 321.457, -0.000976562, -0.000976562, -0.000976562, -0.00683594, 0.285156, -9.72363, 1.12.2022 16:19:19.242
514, 1.80425, 0.243565, 321.457, 0, 0, -0.000976562, -0.0615234, 0.305664, -9.75293, 1.12.2022 16:19:19.250
515, 1.80425, 0.243565, 321.457, 0, -0.000976562, 0.000976562, 0.00976562, 0.288086, -9.74707, 1.12.2022 16:19:19.258
516, 1.80425, 0.243565, 321.457, 0.000976562, -0.000976562, -0.000976562, -0.0644531, 0.341797, -9.75879, 1.12.2022 16:19:19.266
517, 1.80194, 0.236964, 321.457, 0, -0.000976562, -0.000976562, -0.046875, 0.324219, -9.73535, 1.12.2022 16:19:19.274
518, 1.80194, 0.236964, 321.457, 0, -0.000976562, -0.000976562, 0.00195312, 0.301758, -9.79102, 1.12.2022 16:19:19.282
519, 1.80194, 0.236964, 321.457, 0, -0.00195312, -0.000976562, -0.0742188, 0.307617, -9.74512, 1.12.2022 16:19:19.290
520, 1.80854, 0.234656, 321.457, 0, -0.00195312, -0.000976562, -0.0117188, 0.304688, -9.73438, 1.12.2022 16:19:19.298
521, 1.80854, 0.234656, 321.457, 0, -0.00195312, -0.000976562, -0.0263672, 0.325195, -9.76465, 1.12.2022 16:19:19.306
522, 1.80854, 0.234656, 321.457, 0, -0.000976562, 0.000976562, -0.0566406, 0.322266, -9.74512, 1.12.2022 16:19:19.314
523, 1.80854, 0.234656, 321.457, -0.000976562, 0, -0.000976562, 0.00390625, 0.298828, -9.78418, 1.12.2022 16:19:19.322
524, 1.80854, 0.234656, 321.457, -0.000976562, 0, -0.000976562, -0.0761719, 0.304688, -9.73828, 1.12.2022 16:19:19.330
525, 1.80854, 0.234656, 321.457, -0.00195312, 0, -0.000976562, -0.0527344, 0.30957, -9.75, 1.12.2022 16:19:19.338
526, 1.80624, 0.228055, 321.458, 0, 0, 0, -0.0283203, 0.271484, -9.75391, 1.12.2022 16:19:19.346
527, 1.80624, 0.228055, 321.458, 0, 0, 0, -0.0957031, 0.324219, -9.75098, 1.12.2022 16:19:19.354
528, 1.80624, 0.228055, 321.458, 0, 0, 0, -0.00878906, 0.316406, -9.73926, 1.12.2022 16:19:19.362
529, 1.80624, 0.228055, 321.458, -0.000976562, 0, -0.00195312, -0.03125, 0.298828, -9.7793, 1.12.2022 16:19:19.370
530, 1.80854, 0.234656, 321.457, -0.000976562, -0.000976562, -0.00195312, -0.0908203, 0.332031, -9.75879, 1.12.2022 16:19:19.378
531, 1.80624, 0.228055, 321.458, 0.000976562, 0, -0.000976562, 0.0136719, 0.277344, -9.7832, 1.12.2022 16:19:19.386
532, 1.80624, 0.228055, 321.458, -0.000976562, -0.000976562, -0.000976562, -0.0546875, 0.324219, -9.73828, 1.12.2022 16:19:19.394
533, 1.80854, 0.234656, 321.457, 0, 0, 0, -0.0527344, 0.327148, -9.75, 1.12.2022 16:19:19.402
534, 1.80624, 0.228055, 321.458, -0.000976562, 0, -0.000976562, 0.00683594, 0.293945, -9.78223, 1.12.2022 16:19:19.408
535, 1.80624, 0.228055, 321.458, 0.000976562, 0, -0.000976562, -0.0791016, 0.326172, -9.79395, 1.12.2022 16:19:19.416
536, 1.80624, 0.228055, 321.458, -0.000976562, 0, -0.000976562, -0.0146484, 0.304688, -9.80273, 1.12.2022 16:19:19.424
537, 1.80624, 0.228055, 321.458, 0, 0, 0, -0.0341797, 0.311523, -9.78809, 1.12.2022 16:19:19.432
538, 1.80624, 0.228055, 321.458, -0.000976562, 0, -0.000976562, -0.0664062, 0.351562, -9.7627, 1.12.2022 16:19:19.440
539, 1.81283, 0.225747, 321.458, -0.00195312, 0, -0.000976562, -0.00976562, 0.303711, -9.77246, 1.12.2022 16:19:19.448
540, 1.81283, 0.225747, 321.458, -0.000976562, -0.000976562, -0.000976562, -0.0742188, 0.308594, -9.79199, 1.12.2022 16:19:19.456
541, 1.81514, 0.232348, 321.458, -0.000976562, 0, -0.000976562, -0.0556641, 0.320312, -9.78516, 1.12.2022 16:19:19.464
542, 1.81283, 0.225747, 321.458, 0, 0.000976562, 0, 0.00390625, 0.306641, -9.80762, 1.12.2022 16:19:19.472
543, 1.81283, 0.225747, 321.458, 0.000976562, 0, -0.000976562, -0.0732422, 0.314453, -9.72168, 1.12.2022 16:19:19.480
544, 1.81283, 0.225747, 321.458, -0.000976562, -0.000976562, -0.000976562, -0.0117188, 0.299805, -9.74121, 1.12.2022 16:19:19.488
545, 1.81283, 0.225747, 321.458, -0.000976562, -0.000976562, -0.000976562, -0.0214844, 0.27832, -9.74707, 1.12.2022 16:19:19.496
546, 1.81283, 0.225747, 321.458, 0, 0.000976562, 0.00195312, -0.0625, 0.305664, -9.77637, 1.12.2022 16:19:19.504
547, 1.81283, 0.225747, 321.458, 0, 0, 0, 0.0214844, 0.307617, -9.75098, 1.12.2022 16:19:19.512
548, 1.81283, 0.225747, 321.458, -0.000976562, -0.000976562, -0.000976562, -0.0693359, 0.300781, -9.75488, 1.12.2022 16:19:19.520
549, 1.81283, 0.225747, 321.458, -0.000976562, 0, -0.000976562, -0.0498047, 0.324219, -9.75488, 1.12.2022 16:19:19.528
550, 1.81283, 0.225747, 321.458, 0.000976562, 0, -0.000976562, 0.0166016, 0.3125, -9.77051, 1.12.2022 16:19:19.536
551, 1.81283, 0.225747, 321.458, -0.000976562, 0, -0.000976562, -0.118164, 0.329102, -9.80957, 1.12.2022 16:19:19.544
552, 1.81283, 0.225747, 321.458, -0.000976562, 0, -0.000976562, -0.0175781, 0.297852, -9.8125, 1.12.2022 16:19:19.552
553, 1.81283, 0.225747, 321.458, -0.000976562, 0, -0.000976562, -0.0625, 0.285156, -9.80762, 1.12.2022 16:19:19.560
554, 1.81283, 0.225747, 321.458, 0, 0, 0, -0.0722656, 0.31543, -9.77832, 1.12.2022 16:19:19.568
555, 1.81283, 0.225747, 321.458, -0.000976562, 0.000976562, -0.000976562, 0.0380859, 0.307617, -9.76367, 1.12.2022 16:19:19.576
556, 1.81283, 0.225747, 321.458, -0.000976562, 0, -0.000976562, -0.0576172, 0.310547, -9.77148, 1.12.2022 16:19:19.584
557, 1.81283, 0.225747, 321.458, -0.00195312, 0.000976562, 0, -0.0488281, 0.311523, -9.79785, 1.12.2022 16:19:19.592
558, 1.81283, 0.225747, 321.458, -0.000976562, 0, -0.000976562, -0.000976562, 0.285156, -9.80566, 1.12.2022 16:19:19.600
559, 1.81283, 0.225747, 321.458, -0.00195312, 0.000976562, -0.000976562, -0.0820312, 0.328125, -9.80566, 1.12.2022 16:19:19.608
560, 1.81053, 0.219145, 321.458, -0.000976562, 0.000976562, -0.000976562, -0.0302734, 0.331055, -9.72852, 1.12.2022 16:19:19.616
561, 1.81053, 0.219145, 321.458, -0.000976562, 0.000976562, -0.000976562, -0.00488281, 0.274414, -9.75, 1.12.2022 16:19:19.624
562, 1.81053, 0.219145, 321.458, -0.00195312, -0.00195312, 0, -0.100586, 0.305664, -9.75684, 1.12.2022 16:19:19.632
563, 1.81053, 0.219145, 321.458, -0.000976562, -0.000976562, -0.000976562, 0.00683594, 0.303711, -9.77246, 1.12.2022 16:19:19.640
564, 1.81053, 0.219145, 321.458, -0.000976562, -0.000976562, -0.00195312, -0.0380859, 0.300781, -9.76465, 1.12.2022 16:19:19.648
565, 1.81053, 0.219145, 321.458, -0.000976562, -0.000976562, -0.00195312, -0.0761719, 0.303711, -9.77148, 1.12.2022 16:19:19.656
566, 1.81053, 0.219145, 321.458, 0.000976562, 0, -0.000976562, -0.0107422, 0.294922, -9.81543, 1.12.2022 16:19:19.664
567, 1.81053, 0.219145, 321.458, -0.000976562, 0, -0.000976562, -0.0722656, 0.333008, -9.80859, 1.12.2022 16:19:19.672
568, 1.81053, 0.219145, 321.458, -0.000976562, 0, 0, -0.0214844, 0.327148, -9.77832, 1.12.2022 16:19:19.680
569, 1.80393, 0.221453, 321.458, 0, 0, -0.00195312, -0.0283203, 0.293945, -9.76465, 1.12.2022 16:19:19.688
570, 1.80393, 0.221453, 321.458, 0.000976562, 0, -0.000976562, -0.102539, 0.307617, -9.75391, 1.12.2022 16:19:19.696
571, 1.80624, 0.228055, 321.458, -0.000976562, 0, -0.000976562, 0.00976562, 0.316406, -9.72754, 1.12.2022 16:19:19.704
572, 1.80624, 0.228055, 321.458, -0.000976562, 0, -0.000976562, -0.0664062, 0.307617, -9.75977, 1.12.2022 16:19:19.712
573, 1.80624, 0.228055, 321.458, -0.000976562, -0.00195312, 0, -0.0742188, 0.34375, -9.75586, 1.12.2022 16:19:19.720
574, 1.80624, 0.228055, 321.458, 0.000976562, -0.000976562, -0.000976562, 0.0214844, 0.305664, -9.75586, 1.12.2022 16:19:19.728
575, 1.80624, 0.228055, 321.458, -0.000976562, 0, 0, -0.0957031, 0.310547, -9.76172, 1.12.2022 16:19:19.736
576, 1.80624, 0.228055, 321.458, -0.000976562, 0, 0, -0.0146484, 0.3125, -9.76465, 1.12.2022 16:19:19.744
577, 1.81283, 0.225747, 321.458, -0.00195312, 0, -0.000976562, -0.0166016, 0.322266, -9.75977, 1.12.2022 16:19:19.752
578, 1.81283, 0.225747, 321.458, -0.000976562, 0.000976562, -0.000976562, -0.0859375, 0.333984, -9.76074, 1.12.2022 16:19:19.760
579, 1.81283, 0.225747, 321.458, -0.00195312, 0, -0.000976562, -0.0361328, 0.322266, -9.7666, 1.12.2022 16:19:19.768
580, 1.81514, 0.232348, 321.458, -0.00195312, -0.000976562, -0.000976562, -0.0507812, 0.303711, -9.78125, 1.12.2022 16:19:19.776
581, 1.81514, 0.232348, 321.458, -0.00195312, 0, -0.000976562, -0.0458984, 0.339844, -9.78516, 1.12.2022 16:19:19.784
582, 1.82174, 0.230041, 321.458, -0.00195312, -0.000976562, -0.000976562, 0.0214844, 0.305664, -9.76367, 1.12.2022 16:19:19.792
583, 1.82174, 0.230041, 321.458, -0.000976562, -0.00195312, 0, -0.106445, 0.331055, -9.7373, 1.12.2022 16:19:19.800
584, 1.82174, 0.230041, 321.458, -0.00195312, 0.000976562, 0, -0.0449219, 0.319336, -9.73145, 1.12.2022 16:19:19.808
585, 1.82174, 0.230041, 321.458, -0.000976562, 0.000976562, -0.000976562, -0.0126953, 0.310547, -9.7793, 1.12.2022 16:19:19.816
586, 1.82405, 0.236642, 321.458, -0.000976562, 0, -0.000976562, -0.0742188, 0.330078, -9.77734, 1.12.2022 16:19:19.824
587, 1.83064, 0.234334, 321.458, 0, 0, 0, -0.00390625, 0.321289, -9.72266, 1.12.2022 16:19:19.832
588, 1.83064, 0.234334, 321.458, 0, -0.00195312, -0.000976562, -0.0263672, 0.296875, -9.77734, 1.12.2022 16:19:19.840
589, 1.83064, 0.234334, 321.458, -0.000976562, 0, -0.000976562, -0.0644531, 0.305664, -9.74805, 1.12.2022 16:19:19.848
590, 1.83064, 0.234334, 321.458, -0.000976562, -0.00195312, -0.000976562, -0.00488281, 0.268555, -9.73828, 1.12.2022 16:19:19.856
591, 1.83064, 0.234334, 321.458, 0, 0, 0, -0.0791016, 0.331055, -9.7959, 1.12.2022 16:19:19.864
592, 1.83064, 0.234334, 321.458, 0, -0.00195312, -0.000976562, -0.0478516, 0.317383, -9.76172, 1.12.2022 16:19:19.872
593, 1.83064, 0.234334, 321.458, 0, 0, -0.000976562, -0.0419922, 0.294922, -9.82129, 1.12.2022 16:19:19.880
594, 1.83064, 0.234334, 321.458, 0, 0, -0.000976562, -0.0908203, 0.328125, -9.7793, 1.12.2022 16:19:19.888
595, 1.83064, 0.234334, 321.458, -0.000976562, -0.00292969, -0.000976562, -0.03125, 0.274414, -9.74414, 1.12.2022 16:19:19.896
596, 1.83295, 0.240936, 321.458, 0, -0.00195312, -0.000976562, -0.0546875, 0.282227, -9.76758, 1.12.2022 16:19:19.904
597, 1.82635, 0.243243, 321.457, 0, -0.00195312, -0.000976562, -0.0673828, 0.310547, -9.76855, 1.12.2022 16:19:19.912
598, 1.82635, 0.243243, 321.457, 0.000976562, -0.00195312, -0.000976562, 0.046875, 0.282227, -9.77344, 1.12.2022 16:19:19.920
599, 1.82635, 0.243243, 321.457, 0, 0, -0.000976562, -0.0478516, 0.310547, -9.75488, 1.12.2022 16:19:19.928
600, 1.82635, 0.243243, 321.457, -0.000976562, 0, -0.000976562, -0.0361328, 0.286133, -9.75586, 1.12.2022 16:19:19.936
601, 1.81745, 0.23895, 321.457, 0, 0, -0.000976562, -0.0146484, 0.28418, -9.76074, 1.12.2022 16:19:19.944
602, 1.81745, 0.23895, 321.457, 0.000976562, 0, 0, -0.0898438, 0.326172, -9.71582, 1.12.2022 16:19:19.952
603, 1.81745, 0.23895, 321.457, 0, 0, 0, -0.00390625, 0.301758, -9.72754, 1.12.2022 16:19:19.960
604, 1.81745, 0.23895, 321.457, 0, 0, -0.000976562, -0.03125, 0.327148, -9.7666, 1.12.2022 16:19:19.968
605, 1.81745, 0.23895, 321.457, 0, 0, -0.000976562, -0.0810547, 0.332031, -9.75391, 1.12.2022 16:19:19.976
606, 1.81745, 0.23895, 321.457, 0, 0, -0.000976562, 0, 0.289062, -9.76562, 1.12.2022 16:19:19.984
607, 1.81745, 0.23895, 321.457, 0, 0, -0.000976562, -0.0595703, 0.324219, -9.74023, 1.12.2022 16:19:19.992
608, 1.81745, 0.23895, 321.457, 0, 0, -0.000976562, -0.0664062, 0.320312, -9.76367, 1.12.2022 16:19:20.000
609, 1.81745, 0.23895, 321.457, 0.000976562, 0, -0.000976562, -0.0332031, 0.3125, -9.7666, 1.12.2022 16:19:20.008
610, 1.81745, 0.23895, 321.457, 0, 0, 0, -0.0742188, 0.3125, -9.7666, 1.12.2022 16:19:20.016
611, 1.81085, 0.241258, 321.457, 0, 0, -0.000976562, -0.0224609, 0.296875, -9.78906, 1.12.2022 16:19:20.024
612, 1.81085, 0.241258, 321.457, 0, -0.00195312, -0.000976562, -0.0478516, 0.300781, -9.7627, 1.12.2022 16:19:20.032
613, 1.81085, 0.241258, 321.457, 0, 0, -0.000976562, -0.0859375, 0.338867, -9.76758, 1.12.2022 16:19:20.040
614, 1.81085, 0.241258, 321.457, 0, 0, -0.000976562, 0.0244141, 0.27832, -9.73145, 1.12.2022 16:19:20.048
615, 1.81085, 0.241258, 321.457, 0, 0, -0.000976562, -0.0576172, 0.317383, -9.75195, 1.12.2022 16:19:20.056
616, 1.81085, 0.241258, 321.457, 0, 0, 0, -0.0214844, 0.324219, -9.74805, 1.12.2022 16:19:20.064
617, 1.81085, 0.241258, 321.457, 0, 0, -0.000976562, 0.0136719, 0.316406, -9.81055, 1.12.2022 16:19:20.072
618, 1.81085, 0.241258, 321.457, 0, -0.00195312, 0, -0.0712891, 0.304688, -9.73145, 1.12.2022 16:19:20.080
619, 1.81085, 0.241258, 321.457, 0, -0.000976562, -0.000976562, -0.0146484, 0.310547, -9.76953, 1.12.2022 16:19:20.088
620, 1.81745, 0.23895, 321.457, -0.00195312, -0.000976562, -0.000976562, -0.0332031, 0.300781, -9.75586, 1.12.2022 16:19:20.096
621, 1.81745, 0.23895, 321.457, 0, 0, -0.000976562, -0.0791016, 0.320312, -9.76855, 1.12.2022 16:19:20.104
622, 1.81514, 0.232348, 321.458, 0, 0, -0.000976562, 0.0332031, 0.298828, -9.76562, 1.12.2022 16:19:20.112
623, 1.81514, 0.232348, 321.458, 0, -0.000976562, -0.000976562, -0.0712891, 0.319336, -9.7334, 1.12.2022 16:19:20.120
624, 1.81514, 0.232348, 321.458, 0, -0.000976562, -0.000976562, -0.0478516, 0.320312, -9.76367, 1.12.2022 16:19:20.128
625, 1.81514, 0.232348, 321.458, 0, 0, 0, -0.0175781, 0.301758, -9.78906, 1.12.2022 16:19:20.136
626, 1.81514, 0.232348, 321.458, 0.000976562, 0, 0, -0.0742188, 0.333008, -9.78711, 1.12.2022 16:19:20.144
627, 1.81514, 0.232348, 321.458, 0, 0, -0.000976562, -0.0332031, 0.317383, -9.75684, 1.12.2022 16:19:20.152
628, 1.81514, 0.232348, 321.458, 0, 0, 0, -0.0361328, 0.302734, -9.75781, 1.12.2022 16:19:20.160
629, 1.81514, 0.232348, 321.458, 0, -0.000976562, -0.000976562, -0.0859375, 0.320312, -9.77734, 1.12.2022 16:19:20.168
630, 1.81514, 0.232348, 321.458, 0, -0.000976562, -0.000976562, -0.00683594, 0.286133, -9.76074, 1.12.2022 16:19:20.176
631, 1.81514, 0.232348, 321.458, 0, -0.000976562, -0.000976562, -0.0712891, 0.298828, -9.76855, 1.12.2022 16:19:20.184
632, 1.81514, 0.232348, 321.458, 0, 0, -0.000976562, -0.0498047, 0.30957, -9.75, 1.12.2022 16:19:20.192
633, 1.81514, 0.232348, 321.458, 0.000976562, 0.000976562, -0.000976562, -0.0146484, 0.305664, -9.75586, 1.12.2022 16:19:20.200
634, 1.81514, 0.232348, 321.458, 0, 0, -0.000976562, -0.078125, 0.34082, -9.74414, 1.12.2022 16:19:20.208
635, 1.81514, 0.232348, 321.458, 0, 0, -0.000976562, -0.00976562, 0.297852, -9.75781, 1.12.2022 16:19:20.216
636, 1.81514, 0.232348, 321.458, -0.00195312, 0, -0.000976562, -0.0146484, 0.310547, -9.78418, 1.12.2022 16:19:20.224
637, 1.81514, 0.232348, 321.458, 0, 0, -0.000976562, -0.0742188, 0.344727, -9.78613, 1.12.2022 16:19:20.232
638, 1.81514, 0.232348, 321.458, 0.000976562, 0, -0.00195312, 0.00878906, 0.31543, -9.78418, 1.12.2022 16:19:20.240
639, 1.82174, 0.230041, 321.458, 0, 0, -0.000976562, -0.0507812, 0.314453, -9.80957, 1.12.2022 16:19:20.248
640, 1.82174, 0.230041, 321.458, 0.000976562, 0, -0.000976562, -0.0478516, 0.303711, -9.78809, 1.12.2022 16:19:20.256
641, 1.82174, 0.230041, 321.458, 0, 0.000976562, 0, -0.03125, 0.291016, -9.75098, 1.12.2022 16:19:20.264
642, 1.82174, 0.230041, 321.458, 0.000976562, 0, -0.000976562, -0.102539, 0.303711, -9.76172, 1.12.2022 16:19:20.272
643, 1.82174, 0.230041, 321.458, 0, 0, -0.000976562, 0.00976562, 0.301758, -9.72266, 1.12.2022 16:19:20.280
644, 1.81514, 0.232348, 321.458, 0.000976562, 0, -0.000976562, -0.0449219, 0.307617, -9.73633, 1.12.2022 16:19:20.288
645, 1.81514, 0.232348, 321.458, 0.000976562, 0, -0.000976562, -0.0693359, 0.306641, -9.78809, 1.12.2022 16:19:20.296
646, 1.81514, 0.232348, 321.458, 0, 0, -0.000976562, 0.0234375, 0.289062, -9.76367, 1.12.2022 16:19:20.304
647, 1.81283, 0.225747, 321.458, 0.000976562, 0, -0.000976562, -0.0400391, 0.297852, -9.74805, 1.12.2022 16:19:20.312
648, 1.81283, 0.225747, 321.458, 0.000976562, 0, 0, -0.0625, 0.296875, -9.78613, 1.12.2022 16:19:20.320
649, 1.81283, 0.225747, 321.458, 0.000976562, 0, -0.000976562, -0.00292969, 0.27832, -9.79883, 1.12.2022 16:19:20.328
650, 1.81283, 0.225747, 321.458, 0.000976562, -0.000976562, -0.000976562, -0.0722656, 0.328125, -9.80176, 1.12.2022 16:19:20.336
651, 1.80624, 0.228055, 321.458, -0.000976562, 0, -0.000976562, -0.0390625, 0.308594, -9.78613, 1.12.2022 16:19:20.344
652, 1.80624, 0.228055, 321.458, -0.000976562, 0, -0.00195312, -0.0380859, 0.304688, -9.73828, 1.12.2022 16:19:20.352
653, 1.80624, 0.228055, 321.458, -0.00195312, 0, -0.000976562, -0.0683594, 0.347656, -9.74219, 1.12.2022 16:19:20.360
654, 1.80624, 0.228055, 321.458, -0.00195312, 0, -0.000976562, -0.00292969, 0.3125, -9.76465, 1.12.2022 16:19:20.366
655, 1.81283, 0.225747, 321.458, 0, 0, -0.000976562, -0.0410156, 0.303711, -9.77441, 1.12.2022 16:19:20.374
656, 1.81283, 0.225747, 321.458, -0.000976562, 0, -0.000976562, -0.0576172, 0.339844, -9.78223, 1.12.2022 16:19:20.382
657, 1.81283, 0.225747, 321.458, 0, 0, -0.000976562, 0.0126953, 0.294922, -9.73535, 1.12.2022 16:19:20.390
658, 1.81283, 0.225747, 321.458, -0.000976562, 0, -0.00195312, -0.0908203, 0.338867, -9.75781, 1.12.2022 16:19:20.398
659, 1.81283, 0.225747, 321.458, -0.000976562, 0, -0.00195312, -0.0244141, 0.325195, -9.7666, 1.12.2022 16:19:20.406
660, 1.81283, 0.225747, 321.458, -0.000976562, 0, -0.000976562, -0.0400391, 0.292969, -9.72754, 1.12.2022 16:19:20.414
661, 1.81283, 0.225747, 321.458, -0.00195312, 0, -0.000976562, -0.0771484, 0.344727, -9.79395, 1.12.2022 16:19:20.422
662, 1.81283, 0.225747, 321.458, -0.000976562, 0, -0.000976562, 0.0117188, 0.306641, -9.79102, 1.12.2022 16:19:20.430
663, 1.81943, 0.223439, 321.458, -0.000976562, 0, -0.000976562, -0.046875, 0.321289, -9.71875, 1.12.2022 16:19:20.438
664, 1.81943, 0.223439, 321.458, 0, 0, -0.00195312, -0.0263672, 0.31543, -9.75781, 1.12.2022 16:19:20.446
665, 1.81943, 0.223439, 321.458, 0, 0, -0.000976562, 0.0429688, 0.307617, -9.75195, 1.12.2022 16:19:20.454
666, 1.81943, 0.223439, 321.458, -0.00195312, 0, -0.000976562, -0.0839844, 0.306641, -9.80859, 1.12.2022 16:19:20.462
667, 1.81943, 0.223439, 321.458, -0.000976562, 0, -0.000976562, -0.0117188, 0.286133, -9.76758, 1.12.2022 16:19:20.470
668, 1.81713, 0.216838, 321.458, -0.000976562, 0, -0.000976562, -0.0332031, 0.293945, -9.77246, 1.12.2022 16:19:20.478
669, 1.81713, 0.216838, 321.458, -0.000976562, 0, -0.000976562, -0.0927734, 0.324219, -9.7373, 1.12.2022 16:19:20.486
670, 1.81713, 0.216838, 321.458, -0.000976562, -0.000976562, -0.000976562, 0.00195312, 0.291992, -9.78418, 1.12.2022 16:19:20.494
671, 1.81713, 0.216838, 321.458, -0.000976562, 0, -0.000976562, -0.0576172, 0.291016, -9.76465, 1.12.2022 16:19:20.502
672, 1.81713, 0.216838, 321.458, -0.000976562, 0, -0.000976562, -0.0546875, 0.317383, -9.76367, 1.12.2022 16:19:20.510
673, 1.81713, 0.216838, 321.458, -0.000976562, -0.000976562, -0.000976562, 0.0117188, 0.285156, -9.7373, 1.12.2022 16:19:20.518
674, 1.81713, 0.216838, 321.458, 0, -0.000976562, -0.000976562, -0.0673828, 0.325195, -9.76562, 1.12.2022 16:19:20.526
675, 1.81713, 0.216838, 321.458, -0.000976562, 0, -0.000976562, -0.046875, 0.326172, -9.73828, 1.12.2022 16:19:20.534
676, 1.81713, 0.216838, 321.458, -0.000976562, 0, 0, -0.00976562, 0.317383, -9.75488, 1.12.2022 16:19:20.542
677, 1.81713, 0.216838, 321.458, -0.000976562, 0, 0, -0.0888672, 0.322266, -9.77051, 1.12.2022 16:19:20.550
678, 1.81713, 0.216838, 321.458, -0.000976562, 0, -0.000976562, -0.00488281, 0.304688, -9.74414, 1.12.2022 16:19:20.558
679, 1.81713, 0.216838, 321.458, -0.000976562, 0, -0.00195312, -0.0283203, 0.310547, -9.7666, 1.12.2022 16:19:20.566
680, 1.82372, 0.21453, 321.458, -0.00195312, 0, -0.000976562, -0.0380859, 0.327148, -9.75488, 1.12.2022 16:19:20.574
681, 1.82372, 0.21453, 321.458, -0.000976562, 0.000976562, -0.000976562, 0.00488281, 0.295898, -9.76758, 1.12.2022 16:19:20.582
682, 1.82372, 0.21453, 321.458, -0.000976562, 0, -0.000976562, -0.0810547, 0.3125, -9.74707, 1.12.2022 16:19:20.590
683, 1.82372, 0.21453, 321.458, -0.00195312, 0, 0, -0.0498047, 0.34082, -9.74219, 1.12.2022 16:19:20.598
684, 1.82372, 0.21453, 321.458, 0, -0.00195312, 0, -0.0195312, 0.318359, -9.80273, 1.12.2022 16:19:20.606
685, 1.82372, 0.21453, 321.458, 0, 0, 0.000976562, -0.0683594, 0.324219, -9.73535, 1.12.2022 16:19:20.614
686, 1.82372, 0.21453, 321.458, 0, 0, 0, 0.00488281, 0.307617, -9.75098, 1.12.2022 16:19:20.622
687, 1.82372, 0.21453, 321.458, 0, 0, 0, -0.0380859, 0.313477, -9.77344, 1.12.2022 16:19:20.630
688, 1.82372, 0.21453, 321.458, 0, -0.00195312, 0, -0.0498047, 0.31543, -9.76172, 1.12.2022 16:19:20.638
689, 1.83032, 0.212222, 321.458, 0, -0.00195312, 0, 0.0117188, 0.299805, -9.74902, 1.12.2022 16:19:20.646
690, 1.83032, 0.212222, 321.458, 0, 0, -0.000976562, -0.0576172, 0.325195, -9.78711, 1.12.2022 16:19:20.654
691, 1.83032, 0.212222, 321.458, 0, 0, 0, -0.0371094, 0.316406, -9.71289, 1.12.2022 16:19:20.662
692, 1.83032, 0.212222, 321.458, 0.000976562, 0, -0.00195312, 0, 0.289062, -9.76367, 1.12.2022 16:19:20.670
693, 1.83032, 0.212222, 321.458, 0, 0, 0, -0.0791016, 0.310547, -9.77832, 1.12.2022 16:19:20.678
694, 1.82802, 0.205621, 321.458, 0.000976562, -0.00195312, 0, 0.0166016, 0.28418, -9.78516, 1.12.2022 16:19:20.686
695, 1.82802, 0.205621, 321.458, 0, -0.00195312, 0, -0.0283203, 0.316406, -9.73633, 1.12.2022 16:19:20.694
696, 1.82802, 0.205621, 321.458, 0, -0.00195312, 0, -0.046875, 0.323242, -9.71875, 1.12.2022 16:19:20.702
697, 1.82802, 0.205621, 321.458, 0, 0, 0, 0.0234375, 0.307617, -9.77051, 1.12.2022 16:19:20.710
698, 1.82802, 0.205621, 321.458, 0, 0, 0, -0.0820312, 0.333008, -9.7959, 1.12.2022 16:19:20.718
699, 1.82802, 0.205621, 321.458, 0, 0, 0, -0.0341797, 0.308594, -9.7832, 1.12.2022 16:19:20.726
700, 1.82802, 0.205621, 321.458, 0, 0, 0, -0.0126953, 0.295898, -9.77734, 1.12.2022 16:19:20.734
701, 1.82802, 0.205621, 321.458, 0, 0, 0, -0.0859375, 0.291992, -9.7832, 1.12.2022 16:19:20.742
702, 1.82802, 0.205621, 321.458, 0, 0.000976562, 0, -0.0244141, 0.303711, -9.77246, 1.12.2022 16:19:20.750
703, 1.82571, 0.199019, 321.458, 0.000976562, 0.000976562, 0, -0.0478516, 0.268555, -9.73926, 1.12.2022 16:19:20.758
704, 1.82571, 0.199019, 321.458, 0, 0, 0, -0.0673828, 0.331055, -9.80859, 1.12.2022 16:19:20.766
705, 1.81911, 0.201327, 321.458, 0.000976562, 0, 0, 0.00683594, 0.308594, -9.77441, 1.12.2022 16:19:20.774
706, 1.81911, 0.201327, 321.458, 0, 0, 0.000976562, -0.0673828, 0.3125, -9.76367, 1.12.2022 16:19:20.782
707, 1.81911, 0.201327, 321.458, 0, 0, 0, -0.0263672, 0.332031, -9.76855, 1.12.2022 16:19:20.790
708, 1.81911, 0.201327, 321.458, -0.00195312, 0, 0, -0.0146484, 0.311523, -9.79297, 1.12.2022 16:19:20.798
709, 1.81911, 0.201327, 321.458, 0.000976562, 0, 0, -0.0839844, 0.320312, -9.78711, 1.12.2022 16:19:20.806
710, 1.81911, 0.201327, 321.458, 0, 0, 0, 0.0195312, 0.273438, -9.74316, 1.12.2022 16:19:20.814
711, 1.81911, 0.201327, 321.458, 0, -0.00195312, 0, -0.0234375, 0.291016, -9.75586, 1.12.2022 16:19:20.822
712, 1.81911, 0.201327, 321.458, 0, 0, 0, -0.0546875, 0.311523, -9.72852, 1.12.2022 16:19:20.830
713, 1.81911, 0.201327, 321.458, 0, -0.00195312, -0.00195312, 0.00292969, 0.283203, -9.74023, 1.12.2022 16:19:20.838
714, 1.81911, 0.201327, 321.458, 0, 0, 0, -0.0732422, 0.304688, -9.73145, 1.12.2022 16:19:20.846
715, 1.81251, 0.203635, 321.458, -0.000976562, -0.000976562, 0, -0.0644531, 0.322266, -9.7666, 1.12.2022 16:19:20.854
716, 1.81251, 0.203635, 321.458, -0.000976562, 0, 0, -0.00683594, 0.295898, -9.75586, 1.12.2022 16:19:20.862
717, 1.81251, 0.203635, 321.458, -0.000976562, 0, -0.00195312, -0.0625, 0.318359, -9.80176, 1.12.2022 16:19:20.870
718, 1.81251, 0.203635, 321.458, -0.000976562, 0, 0, -0.00683594, 0.302734, -9.76562, 1.12.2022 16:19:20.878
719, 1.81251, 0.203635, 321.458, -0.00195312, -0.000976562, 0, -0.0478516, 0.295898, -9.75293, 1.12.2022 16:19:20.886
720, 1.81251, 0.203635, 321.458, -0.000976562, 0, 0, -0.0615234, 0.305664, -9.75, 1.12.2022 16:19:20.894
721, 1.81251, 0.203635, 321.458, -0.000976562, 0, 0, 0.03125, 0.289062, -9.76172, 1.12.2022 16:19:20.902
722, 1.81251, 0.203635, 321.458, -0.000976562, -0.000976562, 0, -0.0664062, 0.322266, -9.74512, 1.12.2022 16:19:20.910
723, 1.81251, 0.203635, 321.458, -0.00195312, -0.000976562, 0.000976562, -0.0546875, 0.317383, -9.74707, 1.12.2022 16:19:20.918
724, 1.80591, 0.205943, 321.458, -0.00195312, 0, 0, -0.0078125, 0.289062, -9.7793, 1.12.2022 16:19:20.926
725, 1.80591, 0.205943, 321.458, -0.000976562, -0.000976562, 0.000976562, -0.0791016, 0.324219, -9.75391, 1.12.2022 16:19:20.934
726, 1.80591, 0.205943, 321.458, -0.000976562, 0, 0.000976562, 0.00488281, 0.300781, -9.75879, 1.12.2022 16:19:20.942
727, 1.80591, 0.205943, 321.458, 0, 0.000976562, 0, -0.0292969, 0.318359, -9.7998, 1.12.2022 16:19:20.950
728, 1.80591, 0.205943, 321.458, -0.000976562, 0, 0, -0.09375, 0.323242, -9.79395, 1.12.2022 16:19:20.958
729, 1.80591, 0.205943, 321.458, -0.000976562, 0, 0, 0.0117188, 0.298828, -9.79199, 1.12.2022 16:19:20.966
730, 1.80591, 0.205943, 321.458, -0.000976562, 0, 0, -0.0478516, 0.320312, -9.78516, 1.12.2022 16:19:20.974
731, 1.80591, 0.205943, 321.458, -0.000976562, 0.000976562, 0, -0.0498047, 0.310547, -9.76465, 1.12.2022 16:19:20.982
732, 1.80591, 0.205943, 321.458, -0.000976562, 0, 0.000976562, -0.00976562, 0.274414, -9.76855, 1.12.2022 16:19:20.990
733, 1.80591, 0.205943, 321.458, -0.000976562, 0, 0, -0.0957031, 0.303711, -9.77344, 1.12.2022 16:19:20.998
734, 1.80591, 0.205943, 321.458, 0, 0, 0, -0.0263672, 0.3125, -9.7666, 1.12.2022 16:19:21.006
735, 1.80591, 0.205943, 321.458, 0, 0, 0, -0.0283203, 0.274414, -9.74707, 1.12.2022 16:19:21.014
736, 1.80591, 0.205943, 321.458, 0, 0, 0, -0.0761719, 0.320312, -9.75879, 1.12.2022 16:19:21.022
737, 1.79932, 0.20825, 321.458, -0.000976562, 0, 0, 0.00292969, 0.285156, -9.73535, 1.12.2022 16:19:21.030
738, 1.79932, 0.20825, 321.458, -0.00195312, -0.000976562, 0, -0.0615234, 0.30957, -9.74316, 1.12.2022 16:19:21.038
739, 1.79932, 0.20825, 321.458, -0.000976562, 0, 0.000976562, -0.0527344, 0.34082, -9.74902, 1.12.2022 16:19:21.046
740, 1.79932, 0.20825, 321.458, -0.000976562, -0.000976562, 0, -0.00683594, 0.297852, -9.75098, 1.12.2022 16:19:21.054
741, 1.79932, 0.20825, 321.458, -0.000976562, -0.000976562, 0, -0.0722656, 0.318359, -9.78223, 1.12.2022 16:19:21.062
742, 1.80162, 0.214852, 321.458, -0.000976562, -0.000976562, 0, -0.0244141, 0.301758, -9.78418, 1.12.2022 16:19:21.070
743, 1.80162, 0.214852, 321.458, -0.000976562, 0, 0, -0.0166016, 0.287109, -9.77051, 1.12.2022 16:19:21.078
744, 1.80162, 0.214852, 321.458, -0.00195312, 0.000976562, 0.000976562, -0.0820312, 0.339844, -9.79102, 1.12.2022 16:19:21.086
745, 1.80162, 0.214852, 321.458, -0.000976562, 0, 0, -0.0292969, 0.289062, -9.76758, 1.12.2022 16:19:21.094
746, 1.80162, 0.214852, 321.458, -0.000976562, 0, 0, -0.0654297, 0.294922, -9.79785, 1.12.2022 16:19:21.102
747, 1.80162, 0.214852, 321.458, 0, 0, -0.000976562, -0.0595703, 0.34375, -9.76074, 1.12.2022 16:19:21.110
748, 1.80162, 0.214852, 321.458, 0, 0, 0, 0.0117188, 0.289062, -9.78027, 1.12.2022 16:19:21.118
749, 1.80162, 0.214852, 321.458, 0, -0.000976562, 0, -0.0742188, 0.34668, -9.7627, 1.12.2022 16:19:21.126
750, 1.80393, 0.221453, 321.458, 0, -0.000976562, 0, -0.0292969, 0.310547, -9.77637, 1.12.2022 16:19:21.134
751, 1.80393, 0.221453, 321.458, -0.00195312, 0, -0.000976562, -0.0166016, 0.291016, -9.75879, 1.12.2022 16:19:21.142
752, 1.80393, 0.221453, 321.458, 0, 0, -0.000976562, -0.0761719, 0.333984, -9.74219, 1.12.2022 16:19:21.150
753, 1.80393, 0.221453, 321.458, 0, 0, -0.000976562, -0.000976562, 0.301758, -9.79102, 1.12.2022 16:19:21.158
754, 1.80393, 0.221453, 321.458, 0, 0, -0.000976562, -0.0527344, 0.31543, -9.75488, 1.12.2022 16:19:21.166
755, 1.80393, 0.221453, 321.458, 0, 0, 0, -0.0361328, 0.319336, -9.75293, 1.12.2022 16:19:21.174
756, 1.80393, 0.221453, 321.458, 0, 0, -0.000976562, -0.0136719, 0.304688, -9.73438, 1.12.2022 16:19:21.182
757, 1.80393, 0.221453, 321.458, 0.000976562, 0, -0.000976562, -0.0664062, 0.3125, -9.74707, 1.12.2022 16:19:21.190
758, 1.81053, 0.219145, 321.458, 0, -0.000976562, -0.00195312, -0.0498047, 0.327148, -9.75684, 1.12.2022 16:19:21.198
759, 1.81053, 0.219145, 321.458, 0, 0, -0.000976562, -0.0410156, 0.313477, -9.79297, 1.12.2022 16:19:21.206
760, 1.81283, 0.225747, 321.458, 0, -0.000976562, 0, -0.0791016, 0.324219, -9.75879, 1.12.2022 16:19:21.214
761, 1.81283, 0.225747, 321.458, 0, 0, -0.000976562, -0.00683594, 0.292969, -9.75098, 1.12.2022 16:19:21.222
762, 1.81283, 0.225747, 321.458, 0, -0.000976562, -0.000976562, -0.0478516, 0.292969, -9.73633, 1.12.2022 16:19:21.230
763, 1.81283, 0.225747, 321.458, 0, 0, -0.000976562, -0.0595703, 0.31543, -9.76367, 1.12.2022 16:19:21.238
764, 1.81283, 0.225747, 321.458, 0, -0.000976562, -0.000976562, 0.0136719, 0.299805, -9.79883, 1.12.2022 16:19:21.246
765, 1.81283, 0.225747, 321.458, 0, -0.000976562, -0.000976562, -0.0693359, 0.316406, -9.79492, 1.12.2022 16:19:21.254
766, 1.81283, 0.225747, 321.458, 0, -0.000976562, -0.000976562, -0.0302734, 0.324219, -9.74023, 1.12.2022 16:19:21.262
767, 1.81283, 0.225747, 321.458, 0, 0, -0.000976562, -0.0341797, 0.298828, -9.78125, 1.12.2022 16:19:21.270
768, 1.81283, 0.225747, 321.458, 0, 0, 0, -0.0839844, 0.318359, -9.77539, 1.12.2022 16:19:21.278
769, 1.81283, 0.225747, 321.458, 0, -0.000976562, -0.000976562, 0.00976562, 0.288086, -9.74707, 1.12.2022 16:19:21.286
770, 1.81283, 0.225747, 321.458, 0, 0, -0.000976562, -0.046875, 0.285156, -9.73242, 1.12.2022 16:19:21.294
771, 1.81283, 0.225747, 321.458, 0, 0, -0.000976562, -0.0576172, 0.320312, -9.76367, 1.12.2022 16:19:21.302
772, 1.81283, 0.225747, 321.458, 0, 0, -0.000976562, -0.0195312, 0.301758, -9.79785, 1.12.2022 16:19:21.310
773, 1.81283, 0.225747, 321.458, 0, 0, -0.000976562, -0.0791016, 0.338867, -9.7627, 1.12.2022 16:19:21.318
774, 1.81514, 0.232348, 321.458, 0, 0.000976562, -0.000976562, -0.0546875, 0.328125, -9.72363, 1.12.2022 16:19:21.326
775, 1.81514, 0.232348, 321.458, 0, 0, -0.000976562, -0.0332031, 0.297852, -9.74121, 1.12.2022 16:19:21.332
776, 1.81514, 0.232348, 321.458, 0, 0, -0.000976562, -0.0722656, 0.298828, -9.78516, 1.12.2022 16:19:21.340
777, 1.81514, 0.232348, 321.458, 0, 0, -0.000976562, -0.0078125, 0.298828, -9.79102, 1.12.2022 16:19:21.348
778, 1.81514, 0.232348, 321.458, 0, 0.000976562, 0, -0.0576172, 0.287109, -9.78125, 1.12.2022 16:19:21.356
779, 1.81514, 0.232348, 321.458, -0.000976562, 0, -0.000976562, -0.0380859, 0.348633, -9.75879, 1.12.2022 16:19:21.366
780, 1.81514, 0.232348, 321.458, -0.000976562, 0, -0.000976562, -0.000976562, 0.313477, -9.7959, 1.12.2022 16:19:21.372
781, 1.81514, 0.232348, 321.458, -0.000976562, 0, -0.000976562, -0.0693359, 0.327148, -9.75391, 1.12.2022 16:19:21.380
782, 1.81514, 0.232348, 321.458, -0.00195312, 0, -0.000976562, -0.000976562, 0.282227, -9.78223, 1.12.2022 16:19:21.388
783, 1.81514, 0.232348, 321.458, -0.000976562, 0, -0.000976562, -0.00488281, 0.28418, -9.77539, 1.12.2022 16:19:21.396
784, 1.81514, 0.232348, 321.458, -0.000976562, 0, -0.000976562, -0.100586, 0.339844, -9.76953, 1.12.2022 16:19:21.404
785, 1.81514, 0.232348, 321.458, -0.000976562, 0, -0.000976562, -0.00488281, 0.31543, -9.7627, 1.12.2022 16:19:21.412
786, 1.81514, 0.232348, 321.458, -0.000976562, -0.000976562, -0.000976562, -0.0341797, 0.306641, -9.79297, 1.12.2022 16:19:21.420
787, 1.81514, 0.232348, 321.458, 0.000976562, -0.000976562, -0.000976562, -0.0761719, 0.348633, -9.74902, 1.12.2022 16:19:21.428
788, 1.81514, 0.232348, 321.458, 0, 0, 0, 0.00488281, 0.292969, -9.74414, 1.12.2022 16:19:21.436
789, 1.81514, 0.232348, 321.458, 0, 0.000976562, 0, -0.0957031, 0.308594, -9.79004, 1.12.2022 16:19:21.444
790, 1.81514, 0.232348, 321.458, 0, -0.000976562, 0, -0.0244141, 0.323242, -9.77832, 1.12.2022 16:19:21.452
791, 1.81514, 0.232348, 321.458, 0, 0, 0, -0.00976562, 0.291016, -9.75098, 1.12.2022 16:19:21.460
792, 1.81514, 0.232348, 321.458, -0.000976562, 0, -0.000976562, -0.0908203, 0.334961, -9.78906, 1.12.2022 16:19:21.468
793, 1.81514, 0.232348, 321.458, -0.000976562, 0, -0.000976562, -0.0146484, 0.293945, -9.7627, 1.12.2022 16:19:21.476
794, 1.81514, 0.232348, 321.458, -0.000976562, 0, -0.000976562, -0.03125, 0.299805, -9.7959, 1.12.2022 16:19:21.484
795, 1.81514, 0.232348, 321.458, 0.000976562, 0, -0.000976562, -0.0576172, 0.313477, -9.78027, 1.12.2022 16:19:21.492
796, 1.81514, 0.232348, 321.458, 0.000976562, 0, 0, 0.0244141, 0.275391, -9.70996, 1.12.2022 16:19:21.500
797, 1.81283, 0.225747, 321.458, 0.000976562, 0, -0.000976562, -0.0664062, 0.306641, -9.70703, 1.12.2022 16:19:21.508
798, 1.81283, 0.225747, 321.458, 0, 0, 0, -0.03125, 0.317383, -9.75977, 1.12.2022 16:19:21.516
799, 1.81283, 0.225747, 321.458, -0.000976562, 0.000976562, -0.000976562, -0.00195312, 0.294922, -9.7373, 1.12.2022 16:19:21.524
800, 1.81283, 0.225747, 321.458, 0.000976562, 0.000976562, -0.000976562, -0.0927734, 0.327148, -9.75879, 1.12.2022 16:19:21.532
801, 1.81283, 0.225747, 321.458, -0.000976562, 0, -0.000976562, -0.0117188, 0.327148, -9.77344, 1.12.2022 16:19:21.540
802, 1.81283, 0.225747, 321.458, -0.000976562, 0, -0.000976562, -0.0683594, 0.324219, -9.7373, 1.12.2022 16:19:21.548
803, 1.81283, 0.225747, 321.458, -0.00195312, -0.000976562, -0.000976562, -0.0908203, 0.317383, -9.74707, 1.12.2022 16:19:21.556
804, 1.81283, 0.225747, 321.458, -0.000976562, 0, -0.000976562, 0.0117188, 0.277344, -9.76855, 1.12.2022 16:19:21.564
805, 1.81283, 0.225747, 321.458, -0.000976562, 0.000976562, -0.000976562, -0.0927734, 0.310547, -9.77051, 1.12.2022 16:19:21.572
806, 1.81283, 0.225747, 321.458, -0.000976562, 0.000976562, -0.000976562, -0.0546875, 0.333984, -9.75195, 1.12.2022 16:19:21.580
807, 1.81283, 0.225747, 321.458, 0, 0, 0, -0.00976562, 0.319336, -9.75293, 1.12.2022 16:19:21.588
808, 1.81283, 0.225747, 321.458, -0.000976562, 0, -0.000976562, -0.0839844, 0.320312, -9.77051, 1.12.2022 16:19:21.596
809, 1.81283, 0.225747, 321.458, 0.000976562, 0, -0.000976562, -0.00292969, 0.277344, -9.79199, 1.12.2022 16:19:21.604
810, 1.81514, 0.232348, 321.458, 0.000976562, 0, -0.000976562, -0.0429688, 0.295898, -9.76465, 1.12.2022 16:19:21.612
811, 1.81514, 0.232348, 321.458, -0.000976562, -0.00195312, -0.000976562, -0.0693359, 0.333984, -9.74707, 1.12.2022 16:19:21.620
812, 1.81514, 0.232348, 321.458, -0.000976562, 0, -0.000976562, 0, 0.28418, -9.76855, 1.12.2022 16:19:21.628
813, 1.81514, 0.232348, 321.458, -0.000976562, 0, -0.000976562, -0.0595703, 0.291992, -9.77148, 1.12.2022 16:19:21.636
814, 1.81514, 0.232348, 321.458, -0.000976562, -0.000976562, 0, -0.0498047, 0.319336, -9.75, 1.12.2022 16:19:21.644
815, 1.81514, 0.232348, 321.458, -0.000976562, 0, -0.00195312, -0.0175781, 0.306641, -9.79297, 1.12.2022 16:19:21.652
816, 1.81514, 0.232348, 321.458, -0.000976562, 0, -0.000976562, -0.0761719, 0.31543, -9.77051, 1.12.2022 16:19:21.660
817, 1.81514, 0.232348, 321.458, -0.000976562, -0.000976562, 0, -0.00683594, 0.317383, -9.74609, 1.12.2022 16:19:21.668
818, 1.81514, 0.232348, 321.458, 0, 0, -0.000976562, -0.03125, 0.291992, -9.77441, 1.12.2022 16:19:21.676
819, 1.81514, 0.232348, 321.458, -0.000976562, -0.00195312, -0.000976562, -0.0830078, 0.338867, -9.76074, 1.12.2022 16:19:21.684
820, 1.81514, 0.232348, 321.458, -0.000976562, -0.00195312, 0, 0.00195312, 0.293945, -9.78418, 1.12.2022 16:19:21.692
821, 1.81514, 0.232348, 321.458, -0.000976562, -0.00195312, 0, -0.0761719, 0.286133, -9.75488, 1.12.2022 16:19:21.700
822, 1.81514, 0.232348, 321.458, -0.00195312, 0, -0.000976562, -0.0380859, 0.313477, -9.77148, 1.12.2022 16:19:21.708
823, 1.80854, 0.234656, 321.457, -0.000976562, -0.00195312, -0.000976562, -0.0078125, 0.274414, -9.76855, 1.12.2022 16:19:21.716
824, 1.80854, 0.234656, 321.457, -0.000976562, -0.000976562, 0, -0.100586, 0.344727, -9.77441, 1.12.2022 16:19:21.724
825, 1.80854, 0.234656, 321.457, -0.00195312, -0.000976562, 0, -0.0263672, 0.301758, -9.78809, 1.12.2022 16:19:21.732
826, 1.80854, 0.234656, 321.457, -0.000976562, 0, -0.000976562, -0.0117188, 0.295898, -9.76758, 1.12.2022 16:19:21.740
827, 1.80854, 0.234656, 321.457, -0.000976562, -0.00195312, -0.000976562, -0.0498047, 0.319336, -9.74512, 1.12.2022 16:19:21.748
828, 1.80854, 0.234656, 321.457, 0, 0, -0.000976562, 0.0214844, 0.271484, -9.75684, 1.12.2022 16:19:21.756
829, 1.80854, 0.234656, 321.457, -0.000976562, 0.000976562, 0, -0.0449219, 0.30957, -9.72168, 1.12.2022 16:19:21.764
830, 1.80854, 0.234656, 321.457, -0.000976562, 0.000976562, 0, -0.0166016, 0.308594, -9.77441, 1.12.2022 16:19:21.772
831, 1.80624, 0.228055, 321.458, -0.000976562, -0.000976562, 0, -0.0195312, 0.296875, -9.7959, 1.12.2022 16:19:21.780
832, 1.80614, 0.227955, 321.452, 0, -0.00195312, 0, -0.105469, 0.337891, -9.78613, 1.12.2022 16:19:21.788
833, 1.80614, 0.227955, 321.452, -0.000976562, 0, -0.000976562, -0.0244141, 0.313477, -9.79297, 1.12.2022 16:19:21.796
834, 1.80614, 0.227955, 321.452, -0.000976562, -0.00195312, -0.000976562, -0.0371094, 0.27832, -9.71582, 1.12.2022 16:19:21.804
835, 1.80614, 0.227955, 321.452, -0.000976562, -0.00195312, -0.000976562, -0.0664062, 0.324219, -9.74023, 1.12.2022 16:19:21.812
836, 1.80614, 0.227955, 321.452, 0, -0.000976562, 0, 0.0214844, 0.300781, -9.76562, 1.12.2022 16:19:21.820
837, 1.80614, 0.227955, 321.452, -0.000976562, -0.000976562, 0, -0.0507812, 0.293945, -9.7793, 1.12.2022 16:19:21.828
838, 1.80614, 0.227955, 321.452, 0, 0.000976562, 0, -0.0546875, 0.30957, -9.74512, 1.12.2022 16:19:21.836
839, 1.80614, 0.227955, 321.452, 0, -0.000976562, 0, 0.00488281, 0.299805, -9.73926, 1.12.2022 16:19:21.844
840, 1.79954, 0.230263, 321.452, 0, 0, -0.000976562, -0.0859375, 0.314453, -9.74512, 1.12.2022 16:19:21.852
841, 1.79954, 0.230263, 321.452, 0, -0.000976562, 0, -0.0244141, 0.28418, -9.75879, 1.12.2022 16:19:21.860
842, 1.79723, 0.223662, 321.452, -0.000976562, 0, -0.000976562, -0.0390625, 0.287109, -9.78613, 1.12.2022 16:19:21.868
843, 1.79723, 0.223662, 321.452, -0.000976562, 0, -0.000976562, -0.0449219, 0.319336, -9.74316, 1.12.2022 16:19:21.876
844, 1.79723, 0.223662, 321.452, 0, 0, 0, 0.0234375, 0.279297, -9.75977, 1.12.2022 16:19:21.884
845, 1.79723, 0.223662, 321.452, -0.000976562, 0.000976562, 0, -0.0302734, 0.319336, -9.73633, 1.12.2022 16:19:21.892
846, 1.79723, 0.223662, 321.452, -0.000976562, -0.000976562, 0, -0.0458984, 0.325195, -9.77539, 1.12.2022 16:19:21.900
847, 1.79493, 0.217061, 321.452, -0.000976562, 0, -0.000976562, 0.00878906, 0.287109, -9.77734, 1.12.2022 16:19:21.908
848, 1.79493, 0.217061, 321.452, -0.000976562, 0, -0.000976562, -0.0644531, 0.324219, -9.74512, 1.12.2022 16:19:21.916
849, 1.79493, 0.217061, 321.452, -0.000976562, 0, 0, -0.0195312, 0.310547, -9.76758, 1.12.2022 16:19:21.924
850, 1.79493, 0.217061, 321.452, -0.00195312, 0, -0.000976562, -0.0410156, 0.298828, -9.76953, 1.12.2022 16:19:21.932
851, 1.79493, 0.217061, 321.452, -0.00195312, 0, -0.000976562, -0.0722656, 0.316406, -9.79492, 1.12.2022 16:19:21.940
852, 1.79493, 0.217061, 321.452, -0.000976562, 0, -0.000976562, -0.00292969, 0.305664, -9.78223, 1.12.2022 16:19:21.948
853, 1.79262, 0.210459, 321.453, -0.000976562, -0.000976562, -0.000976562, -0.0478516, 0.318359, -9.77832, 1.12.2022 16:19:21.956
854, 1.79262, 0.210459, 321.453, -0.000976562, -0.000976562, -0.000976562, -0.0673828, 0.323242, -9.79688, 1.12.2022 16:19:21.964
855, 1.79262, 0.210459, 321.453, -0.000976562, 0, -0.000976562, 0, 0.264648, -9.76367, 1.12.2022 16:19:21.972
856, 1.79262, 0.210459, 321.453, -0.00195312, 0, -0.00195312, -0.0810547, 0.325195, -9.78027, 1.12.2022 16:19:21.980
857, 1.79262, 0.210459, 321.453, -0.000976562, 0, -0.000976562, -0.0488281, 0.316406, -9.81836, 1.12.2022 16:19:21.988
858, 1.79493, 0.217061, 321.452, -0.000976562, 0, -0.000976562, -0.0244141, 0.291992, -9.78906, 1.12.2022 16:19:21.996
859, 1.79502, 0.21716, 321.458, 0, 0, -0.000976562, -0.0830078, 0.302734, -9.75195, 1.12.2022 16:19:22.004
860, 1.79502, 0.21716, 321.458, -0.000976562, 0, 0, 0.0234375, 0.300781, -9.76562, 1.12.2022 16:19:22.012
861, 1.79493, 0.217061, 321.452, -0.00195312, 0, 0, -0.0380859, 0.292969, -9.75098, 1.12.2022 16:19:22.020
862, 1.79262, 0.210459, 321.453, -0.000976562, 0, -0.000976562, -0.0429688, 0.327148, -9.7666, 1.12.2022 16:19:22.028
863, 1.79262, 0.210459, 321.453, -0.000976562, 0, 0, 0.0117188, 0.28418, -9.77539, 1.12.2022 16:19:22.036
864, 1.79262, 0.210459, 321.453, -0.000976562, 0, 0, -0.0673828, 0.305664, -9.76465, 1.12.2022 16:19:22.044
865, 1.79262, 0.210459, 321.453, -0.000976562, 0, -0.000976562, -0.00976562, 0.322266, -9.75781, 1.12.2022 16:19:22.052
866, 1.79262, 0.210459, 321.453, -0.000976562, 0, -0.000976562, 0.00390625, 0.287109, -9.77734, 1.12.2022 16:19:22.060
867, 1.79262, 0.210459, 321.453, -0.000976562, 0, -0.000976562, -0.0947266, 0.290039, -9.71973, 1.12.2022 16:19:22.068
868, 1.79262, 0.210459, 321.453, -0.000976562, -0.000976562, -0.000976562, -0.0361328, 0.300781, -9.74805, 1.12.2022 16:19:22.076
869, 1.79262, 0.210459, 321.453, 0, -0.000976562, 0, -0.03125, 0.320312, -9.7666, 1.12.2022 16:19:22.084
870, 1.79262, 0.210459, 321.453, 0, -0.000976562, -0.000976562, -0.0449219, 0.307617, -9.75977, 1.12.2022 16:19:22.092
871, 1.79272, 0.210558, 321.458, 0, 0, -0.000976562, 0.0263672, 0.304688, -9.74219, 1.12.2022 16:19:22.100
872, 1.79041, 0.203957, 321.458, 0, 0, 0, -0.0566406, 0.321289, -9.73535, 1.12.2022 16:19:22.108
873, 1.79031, 0.203858, 321.453, -0.000976562, 0, -0.000976562, -0.00976562, 0.313477, -9.78125, 1.12.2022 16:19:22.116
874, 1.79041, 0.203957, 321.458, -0.000976562, -0.000976562, -0.000976562, -0.00976562, 0.280273, -9.79395, 1.12.2022 16:19:22.124
875, 1.79041, 0.203957, 321.458, -0.000976562, -0.000976562, 0, -0.0839844, 0.316406, -9.79395, 1.12.2022 16:19:22.132
876, 1.79031, 0.203858, 321.453, -0.000976562, 0, 0, -0.0126953, 0.291992, -9.78418, 1.12.2022 16:19:22.140
877, 1.79031, 0.203858, 321.453, 0.000976562, 0, -0.000976562, -0.0693359, 0.325195, -9.77539, 1.12.2022 16:19:22.148
878, 1.79031, 0.203858, 321.453, -0.000976562, -0.000976562, -0.000976562, -0.0546875, 0.314453, -9.75, 1.12.2022 16:19:22.156
879, 1.79031, 0.203858, 321.453, -0.000976562, 0, -0.000976562, 0.0117188, 0.271484, -9.75488, 1.12.2022 16:19:22.164
880, 1.79041, 0.203957, 321.458, -0.000976562, 0, -0.000976562, -0.0644531, 0.319336, -9.75488, 1.12.2022 16:19:22.172
881, 1.79041, 0.203957, 321.458, -0.000976562, 0, -0.000976562, -0.0214844, 0.31543, -9.75781, 1.12.2022 16:19:22.180
882, 1.79041, 0.203957, 321.458, -0.000976562, 0, -0.000976562, -0.0244141, 0.279297, -9.77539, 1.12.2022 16:19:22.188
883, 1.79041, 0.203957, 321.458, -0.000976562, 0, -0.000976562, -0.100586, 0.320312, -9.76074, 1.12.2022 16:19:22.196
884, 1.79041, 0.203957, 321.458, -0.000976562, 0, -0.00195312, -0.00292969, 0.291992, -9.78418, 1.12.2022 16:19:22.204
885, 1.79041, 0.203957, 321.458, -0.000976562, 0, -0.000976562, -0.0371094, 0.326172, -9.81152, 1.12.2022 16:19:22.212
886, 1.79041, 0.203957, 321.458, -0.000976562, 0, -0.000976562, -0.03125, 0.297852, -9.74805, 1.12.2022 16:19:22.220
887, 1.79041, 0.203957, 321.458, -0.000976562, -0.000976562, -0.000976562, -0.0175781, 0.277344, -9.79199, 1.12.2022 16:19:22.228
888, 1.79041, 0.203957, 321.458, -0.000976562, 0, -0.000976562, -0.0771484, 0.298828, -9.78027, 1.12.2022 16:19:22.236
889, 1.79041, 0.203957, 321.458, -0.000976562, 0, -0.000976562, -0.0283203, 0.338867, -9.76367, 1.12.2022 16:19:22.244
890, 1.79041, 0.203957, 321.458, -0.000976562, 0, -0.000976562, 0.0117188, 0.305664, -9.78223, 1.12.2022 16:19:22.252
891, 1.79041, 0.203957, 321.458, -0.000976562, 0, -0.00195312, -0.0791016, 0.294922, -9.79492, 1.12.2022 16:19:22.260
892, 1.79041, 0.203957, 321.458, -0.000976562, 0, 0, -0.0166016, 0.295898, -9.75586, 1.12.2022 16:19:22.268
893, 1.79041, 0.203957, 321.458, -0.000976562, 0, -0.000976562, -0.0332031, 0.293945, -9.76465, 1.12.2022 16:19:22.276
894, 1.79041, 0.203957, 321.458, -0.000976562, 0, -0.000976562, -0.0644531, 0.302734, -9.75977, 1.12.2022 16:19:22.284
895, 1.79041, 0.203957, 321.458, -0.000976562, 0, -0.000976562, 0.0136719, 0.28125, -9.76855, 1.12.2022 16:19:22.292
896, 1.78381, 0.206264, 321.458, -0.000976562, 0, -0.000976562, -0.0761719, 0.317383, -9.77051, 1.12.2022 16:19:22.298
897, 1.78381, 0.206264, 321.458, -0.000976562, -0.000976562, -0.000976562, -0.0429688, 0.310547, -9.76172, 1.12.2022 16:19:22.306
898, 1.78381, 0.206264, 321.458, -0.000976562, -0.000976562, -0.000976562, -0.00292969, 0.28418, -9.78223, 1.12.2022 16:19:22.314
899, 1.78381, 0.206264, 321.458, 0.000976562, -0.000976562, -0.000976562, -0.0673828, 0.306641, -9.78027, 1.12.2022 16:19:22.322
900, 1.78381, 0.206264, 321.458, -0.000976562, 0, -0.000976562, -0.0117188, 0.300781, -9.76074, 1.12.2022 16:19:22.330
901, 1.78381, 0.206264, 321.458, -0.000976562, -0.000976562, -0.000976562, -0.0195312, 0.303711, -9.76758, 1.12.2022 16:19:22.338
902, 1.78381, 0.206264, 321.458, -0.000976562, -0.000976562, -0.000976562, -0.0517578, 0.338867, -9.74414, 1.12.2022 16:19:22.346
903, 1.78381, 0.206264, 321.458, -0.000976562, 0, -0.000976562, -0.0117188, 0.294922, -9.74219, 1.12.2022 16:19:22.354
904, 1.78381, 0.206264, 321.458, -0.000976562, 0, -0.000976562, -0.0810547, 0.300781, -9.74805, 1.12.2022 16:19:22.362
905, 1.78381, 0.206264, 321.458, -0.00195312, -0.000976562, -0.000976562, -0.0449219, 0.324219, -9.74512, 1.12.2022 16:19:22.370
906, 1.78381, 0.206264, 321.458, -0.000976562, 0, -0.000976562, -0.00976562, 0.303711, -9.7793, 1.12.2022 16:19:22.378
907, 1.78381, 0.206264, 321.458, -0.000976562, 0, 0, -0.0927734, 0.320312, -9.76367, 1.12.2022 16:19:22.386
908, 1.78381, 0.206264, 321.458, -0.000976562, 0, 0.000976562, -0.0458984, 0.296875, -9.79102, 1.12.2022 16:19:22.394
909, 1.78381, 0.206264, 321.458, -0.000976562, -0.000976562, -0.000976562, -0.0527344, 0.289062, -9.75293, 1.12.2022 16:19:22.402
910, 1.78612, 0.212866, 321.458, -0.000976562, -0.000976562, -0.000976562, -0.0644531, 0.3125, -9.75195, 1.12.2022 16:19:22.410
911, 1.78612, 0.212866, 321.458, -0.00195312, -0.00195312, 0.000976562, 0.00976562, 0.300781, -9.75098, 1.12.2022 16:19:22.418
912, 1.78612, 0.212866, 321.458, -0.000976562, 0, 0.000976562, -0.0576172, 0.296875, -9.78613, 1.12.2022 16:19:22.426
913, 1.78612, 0.212866, 321.458, -0.000976562, 0.000976562, 0, -0.0361328, 0.289062, -9.76074, 1.12.2022 16:19:22.434
914, 1.78612, 0.212866, 321.458, -0.000976562, 0, 0, 0.000976562, 0.301758, -9.71094, 1.12.2022 16:19:22.442
915, 1.78612, 0.212866, 321.458, -0.000976562, -0.000976562, -0.000976562, -0.0996094, 0.286133, -9.73633, 1.12.2022 16:19:22.450
916, 1.78612, 0.212866, 321.458, -0.000976562, 0, 0, 0.00683594, 0.298828, -9.77734, 1.12.2022 16:19:22.458
917, 1.77952, 0.215174, 321.458, -0.000976562, 0, 0, -0.0273438, 0.283203, -9.81055, 1.12.2022 16:19:22.466
918, 1.77952, 0.215174, 321.458, -0.000976562, 0, 0, -0.0761719, 0.332031, -9.76562, 1.12.2022 16:19:22.474
919, 1.77952, 0.215174, 321.458, -0.000976562, 0, -0.00195312, -0.00976562, 0.308594, -9.77441, 1.12.2022 16:19:22.482
920, 1.77952, 0.215174, 321.458, 0.000976562, 0, -0.000976562, -0.0478516, 0.318359, -9.7832, 1.12.2022 16:19:22.490
921, 1.77952, 0.215174, 321.458, 0.000976562, 0.000976562, 0, -0.0644531, 0.30957, -9.74512, 1.12.2022 16:19:22.498
922, 1.77952, 0.215174, 321.458, 0.000976562, 0, -0.000976562, -0.00292969, 0.289062, -9.77051, 1.12.2022 16:19:22.506
923, 1.77952, 0.215174, 321.458, -0.000976562, 0, 0.000976562, -0.0683594, 0.335938, -9.72754, 1.12.2022 16:19:22.514
924, 1.77952, 0.215174, 321.458, -0.000976562, -0.000976562, -0.000976562, -0.0283203, 0.300781, -9.75293, 1.12.2022 16:19:22.522
925, 1.77952, 0.215174, 321.458, -0.000976562, -0.000976562, -0.000976562, -0.0380859, 0.307617, -9.7666, 1.12.2022 16:19:22.530
926, 1.78183, 0.221775, 321.457, -0.000976562, 0, 0, -0.0927734, 0.300781, -9.74707, 1.12.2022 16:19:22.538
927, 1.78183, 0.221775, 321.457, -0.000976562, -0.000976562, -0.000976562, 0.0224609, 0.297852, -9.8252, 1.12.2022 16:19:22.546
928, 1.78183, 0.221775, 321.457, -0.000976562, 0, 0, -0.0556641, 0.293945, -9.77441, 1.12.2022 16:19:22.554
929, 1.78183, 0.221775, 321.457, -0.000976562, 0, 0, -0.0361328, 0.325195, -9.76855, 1.12.2022 16:19:22.562
930, 1.78183, 0.221775, 321.457, -0.000976562, -0.000976562, 0.000976562, -0.0185547, 0.297852, -9.74414, 1.12.2022 16:19:22.570
931, 1.78183, 0.221775, 321.457, -0.000976562, -0.000976562, 0.000976562, -0.0839844, 0.291992, -9.7832, 1.12.2022 16:19:22.578
932, 1.78183, 0.221775, 321.457, -0.000976562, -0.000976562, 0.000976562, -0.0390625, 0.289062, -9.78613, 1.12.2022 16:19:22.586
933, 1.78183, 0.221775, 321.457, -0.000976562, 0, 0, -0.0166016, 0.30957, -9.73438, 1.12.2022 16:19:22.594
934, 1.78183, 0.221775, 321.457, -0.000976562, 0, 0, -0.0527344, 0.314453, -9.75, 1.12.2022 16:19:22.602
935, 1.78183, 0.221775, 321.457, -0.000976562, 0, 0, -0.00488281, 0.28418, -9.76367, 1.12.2022 16:19:22.610
936, 1.78183, 0.221775, 321.457, 0.000976562, 0, 0.000976562, -0.0507812, 0.301758, -9.78809, 1.12.2022 16:19:22.618
937, 1.78183, 0.221775, 321.457, -0.000976562, 0.000976562, 0, -0.0449219, 0.307617, -9.75977, 1.12.2022 16:19:22.626
938, 1.78183, 0.221775, 321.457, -0.000976562, -0.000976562, -0.000976562, 0.03125, 0.279297, -9.76172, 1.12.2022 16:19:22.634
939, 1.78183, 0.221775, 321.457, -0.000976562, -0.000976562, -0.000976562, -0.0830078, 0.326172, -9.74219, 1.12.2022 16:19:22.642
940, 1.78183, 0.221775, 321.457, -0.000976562, -0.000976562, -0.000976562, -0.0332031, 0.3125, -9.74805, 1.12.2022 16:19:22.650
941, 1.78183, 0.221775, 321.457, -0.000976562, -0.000976562, -0.000976562, -0.0224609, 0.285156, -9.79395, 1.12.2022 16:19:22.658
942, 1.78183, 0.221775, 321.457, -0.000976562, 0, -0.000976562, -0.100586, 0.319336, -9.80859, 1.12.2022 16:19:22.666
943, 1.78183, 0.221775, 321.457, -0.000976562, 0, -0.000976562, -0.0214844, 0.302734, -9.73633, 1.12.2022 16:19:22.674
944, 1.78183, 0.221775, 321.457, 0, 0, -0.00195312, -0.0527344, 0.308594, -9.77832, 1.12.2022 16:19:22.682
945, 1.78183, 0.221775, 321.457, -0.000976562, 0, -0.00195312, -0.0478516, 0.296875, -9.77637, 1.12.2022 16:19:22.690
946, 1.77523, 0.224083, 321.457, 0, -0.000976562, -0.00195312, -0.0214844, 0.286133, -9.76562, 1.12.2022 16:19:22.698
947, 1.77523, 0.224083, 321.457, -0.000976562, -0.000976562, 0, -0.0595703, 0.320312, -9.7832, 1.12.2022 16:19:22.706
948, 1.77523, 0.224083, 321.457, 0, -0.000976562, -0.000976562, -0.0244141, 0.295898, -9.76562, 1.12.2022 16:19:22.714
949, 1.77523, 0.224083, 321.457, 0, 0.000976562, -0.000976562, -0.0117188, 0.298828, -9.7627, 1.12.2022 16:19:22.722
950, 1.77523, 0.224083, 321.457, 0, 0.000976562, -0.000976562, -0.100586, 0.318359, -9.79199, 1.12.2022 16:19:22.730
951, 1.77523, 0.224083, 321.457, 0, 0.000976562, -0.000976562, -0.00292969, 0.305664, -9.76074, 1.12.2022 16:19:22.738
952, 1.77523, 0.224083, 321.457, 0, 0, 0, -0.0517578, 0.335938, -9.74219, 1.12.2022 16:19:22.746
953, 1.77523, 0.224083, 321.457, -0.000976562, 0, 0, -0.0390625, 0.310547, -9.78125, 1.12.2022 16:19:22.754
954, 1.77523, 0.224083, 321.457, -0.000976562, 0, -0.000976562, 0.0185547, 0.268555, -9.80957, 1.12.2022 16:19:22.762
955, 1.77523, 0.224083, 321.457, -0.000976562, 0, -0.000976562, -0.0761719, 0.31543, -9.76855, 1.12.2022 16:19:22.770
956, 1.77523, 0.224083, 321.457, -0.000976562, 0, 0, -0.0390625, 0.301758, -9.78613, 1.12.2022 16:19:22.778
957, 1.77523, 0.224083, 321.457, -0.000976562, 0, 0, -0.0126953, 0.298828, -9.7793, 1.12.2022 16:19:22.786
958, 1.77523, 0.224083, 321.457, -0.000976562, 0, -0.000976562, -0.0712891, 0.306641, -9.71484, 1.12.2022 16:19:22.794
959, 1.78183, 0.221775, 321.457, -0.000976562, 0.000976562, -0.000976562, 0.0078125, 0.319336, -9.74414, 1.12.2022 16:19:22.802
960, 1.78183, 0.221775, 321.457, 0, 0.000976562, -0.000976562, -0.0595703, 0.327148, -9.75684, 1.12.2022 16:19:22.810
961, 1.78183, 0.221775, 321.457, -0.000976562, 0, -0.000976562, -0.0625, 0.332031, -9.77051, 1.12.2022 16:19:22.818
962, 1.78183, 0.221775, 321.457, 0, 0, -0.000976562, 0.0107422, 0.299805, -9.82227, 1.12.2022 16:19:22.826
963, 1.78183, 0.221775, 321.457, -0.000976562, 0, -0.000976562, -0.0722656, 0.293945, -9.77148, 1.12.2022 16:19:22.834
964, 1.78183, 0.221775, 321.457, -0.000976562, 0, 0, -0.0263672, 0.325195, -9.7666, 1.12.2022 16:19:22.842
965, 1.78612, 0.212866, 321.458, -0.000976562, -0.000976562, -0.000976562, 0.0136719, 0.303711, -9.78711, 1.12.2022 16:19:22.850
966, 1.78842, 0.219467, 321.458, -0.000976562, 0, -0.000976562, -0.102539, 0.320312, -9.77539, 1.12.2022 16:19:22.858
967, 1.78612, 0.212866, 321.458, -0.00195312, 0.000976562, 0, -0.0166016, 0.288086, -9.73047, 1.12.2022 16:19:22.866
968, 1.78612, 0.212866, 321.458, -0.000976562, 0, -0.000976562, -0.0361328, 0.28418, -9.76074, 1.12.2022 16:19:22.874
969, 1.78612, 0.212866, 321.458, -0.000976562, 0, -0.000976562, -0.0644531, 0.329102, -9.74219, 1.12.2022 16:19:22.882
970, 1.78612, 0.212866, 321.458, 0, 0, -0.000976562, 0.0253906, 0.318359, -9.7793, 1.12.2022 16:19:22.890
971, 1.78612, 0.212866, 321.458, -0.000976562, -0.00195312, -0.000976562, -0.0761719, 0.317383, -9.74219, 1.12.2022 16:19:22.898
972, 1.79502, 0.21716, 321.458, 0, 0, -0.000976562, -0.0449219, 0.345703, -9.74414, 1.12.2022 16:19:22.906
973, 1.79502, 0.21716, 321.458, -0.000976562, 0, -0.000976562, -0.0234375, 0.288086, -9.74414, 1.12.2022 16:19:22.914
974, 1.79502, 0.21716, 321.458, -0.000976562, -0.00195312, -0.000976562, -0.0722656, 0.318359, -9.80176, 1.12.2022 16:19:22.922
975, 1.79502, 0.21716, 321.458, -0.000976562, -0.00195312, 0, -0.0205078, 0.313477, -9.72266, 1.12.2022 16:19:22.930
976, 1.79502, 0.21716, 321.458, -0.000976562, 0.000976562, -0.000976562, -0.0478516, 0.264648, -9.76562, 1.12.2022 16:19:22.938
977, 1.79502, 0.21716, 321.458, -0.000976562, 0, -0.000976562, -0.0644531, 0.316406, -9.78711, 1.12.2022 16:19:22.946
978, 1.79502, 0.21716, 321.458, 0, 0, -0.000976562, 0.0332031, 0.305664, -9.78223, 1.12.2022 16:19:22.954
979, 1.79502, 0.21716, 321.458, 0, 0, -0.000976562, -0.0664062, 0.320312, -9.75879, 1.12.2022 16:19:22.962
980, 1.79502, 0.21716, 321.458, -0.000976562, 0.000976562, -0.000976562, -0.0527344, 0.318359, -9.78027, 1.12.2022 16:19:22.970
981, 1.79502, 0.21716, 321.458, -0.000976562, 0, -0.000976562, -0.00585938, 0.282227, -9.79395, 1.12.2022 16:19:22.978
982, 1.80162, 0.214852, 321.458, 0, 0, -0.000976562, -0.09375, 0.328125, -9.78711, 1.12.2022 16:19:22.986
983, 1.80162, 0.214852, 321.458, 0, 0.000976562, 0, -0.00488281, 0.320312, -9.7832, 1.12.2022 16:19:22.994
984, 1.80162, 0.214852, 321.458, 0, 0.000976562, 0, -0.0195312, 0.31543, -9.77441, 1.12.2022 16:19:23.002
985, 1.80162, 0.214852, 321.458, -0.000976562, 0.000976562, 0.000976562, -0.0898438, 0.299805, -9.73047, 1.12.2022 16:19:23.010
986, 1.80162, 0.214852, 321.458, -0.000976562, 0, -0.000976562, 0.0380859, 0.3125, -9.77051, 1.12.2022 16:19:23.018
987, 1.80162, 0.214852, 321.458, -0.000976562, 0.000976562, 0.000976562, -0.0527344, 0.298828, -9.77148, 1.12.2022 16:19:23.026
988, 1.80162, 0.214852, 321.458, -0.000976562, 0, -0.000976562, -0.0361328, 0.314453, -9.75293, 1.12.2022 16:19:23.034
989, 1.80162, 0.214852, 321.458, -0.000976562, 0, -0.000976562, -0.00976562, 0.310547, -9.76953, 1.12.2022 16:19:23.042
990, 1.80162, 0.214852, 321.458, -0.000976562, -0.00195312, -0.000976562, -0.0712891, 0.338867, -9.76367, 1.12.2022 16:19:23.050
991, 1.80822, 0.212544, 321.458, -0.000976562, -0.00195312, -0.000976562, 0.00390625, 0.306641, -9.81055, 1.12.2022 16:19:23.058
992, 1.80822, 0.212544, 321.458, -0.000976562, -0.00195312, -0.000976562, -0.0283203, 0.283203, -9.74219, 1.12.2022 16:19:23.066
993, 1.80822, 0.212544, 321.458, -0.000976562, -0.00195312, -0.00195312, -0.0810547, 0.317383, -9.74512, 1.12.2022 16:19:23.074
994, 1.80822, 0.212544, 321.458, -0.000976562, 0, -0.000976562, 0.0234375, 0.305664, -9.75391, 1.12.2022 16:19:23.082
995, 1.80822, 0.212544, 321.458, 0, 0.000976562, -0.000976562, -0.0615234, 0.288086, -9.74805, 1.12.2022 16:19:23.090
996, 1.80591, 0.205943, 321.458, -0.000976562, 0.000976562, -0.000976562, -0.0498047, 0.295898, -9.75293, 1.12.2022 16:19:23.098
997, 1.80591, 0.205943, 321.458, -0.000976562, -0.00195312, -0.000976562, 0.00488281, 0.300781, -9.75586, 1.12.2022 16:19:23.106
998, 1.80591, 0.205943, 321.458, -0.000976562, 0, -0.000976562, -0.0546875, 0.314453, -9.74316, 1.12.2022 16:19:23.114
999, 1.80591, 0.205943, 321.458, -0.00195312, 0, -0.000976562, -0.0117188, 0.319336, -9.73828, 1.12.2022 16:19:23.122
1000, 1.80591, 0.205943, 321.458, 0, 0, 0, -0.015625, 0.283203, -9.80371, 1.12.2022 16:19:23.130
1001, 1.80591, 0.205943, 321.458, -0.000976562, 0, 0, -0.0742188, 0.332031, -9.76855, 1.12.2022 16:19:23.138
1002, 1.80591, 0.205943, 321.458, 0, 0, -0.000976562, -0.00292969, 0.308594, -9.78125, 1.12.2022 16:19:23.146
1003, 1.80591, 0.205943, 321.458, -0.000976562, -0.000976562, -0.000976562, -0.0527344, 0.318359, -9.79004, 1.12.2022 16:19:23.154
1004, 1.80591, 0.205943, 321.458, 0, 0.000976562, -0.000976562, -0.0527344, 0.310547, -9.78125, 1.12.2022 16:19:23.162
1005, 1.80361, 0.199341, 321.458, -0.000976562, -0.000976562, -0.000976562, 0.00878906, 0.293945, -9.77246, 1.12.2022 16:19:23.170
1006, 1.80361, 0.199341, 321.458, -0.000976562, -0.000976562, -0.000976562, -0.0791016, 0.326172, -9.80566, 1.12.2022 16:19:23.178
1007, 1.80361, 0.199341, 321.458, -0.000976562, -0.000976562, -0.000976562, -0.0214844, 0.322266, -9.7666, 1.12.2022 16:19:23.186
1008, 1.80361, 0.199341, 321.458, -0.000976562, -0.000976562, -0.00195312, -0.0546875, 0.293945, -9.77148, 1.12.2022 16:19:23.194
1009, 1.80591, 0.205943, 321.458, -0.000976562, -0.000976562, -0.000976562, -0.0888672, 0.303711, -9.76855, 1.12.2022 16:19:23.202
1010, 1.80591, 0.205943, 321.458, 0, -0.000976562, -0.000976562, 0.0136719, 0.303711, -9.78711, 1.12.2022 16:19:23.210
1011, 1.80591, 0.205943, 321.458, 0, -0.000976562, 0, -0.0703125, 0.288086, -9.7998, 1.12.2022 16:19:23.218
1012, 1.80591, 0.205943, 321.458, 0, -0.000976562, 0, -0.0498047, 0.304688, -9.73633, 1.12.2022 16:19:23.226
1013, 1.80591, 0.205943, 321.458, -0.00195312, -0.000976562, 0, -0.0195312, 0.291016, -9.75781, 1.12.2022 16:19:23.234
1014, 1.80591, 0.205943, 321.458, -0.000976562, -0.00195312, -0.000976562, -0.0927734, 0.322266, -9.76074, 1.12.2022 16:19:23.242
1015, 1.80591, 0.205943, 321.458, 0, -0.00195312, -0.000976562, -0.0146484, 0.321289, -9.7998, 1.12.2022 16:19:23.250
1016, 1.80591, 0.205943, 321.458, 0, -0.00195312, -0.000976562, -0.0625, 0.295898, -9.76465, 1.12.2022 16:19:23.258
1017, 1.80162, 0.214852, 321.458, -0.000976562, -0.00195312, -0.000976562, -0.0908203, 0.31543, -9.76855, 1.12.2022 16:19:23.264
1018, 1.80162, 0.214852, 321.458, -0.000976562, -0.000976562, -0.000976562, -0.0185547, 0.297852, -9.74902, 1.12.2022 16:19:23.272
1019, 1.80162, 0.214852, 321.458, -0.000976562, -0.000976562, 0, -0.0478516, 0.296875, -9.78613, 1.12.2022 16:19:23.280
1020, 1.80393, 0.221453, 321.458, -0.000976562, -0.00195312, -0.000976562, -0.0458984, 0.313477, -9.78809, 1.12.2022 16:19:23.288
1021, 1.80393, 0.221453, 321.458, -0.000976562, -0.000976562, -0.000976562, 0.0166016, 0.307617, -9.77051, 1.12.2022 16:19:23.296
1022, 1.80393, 0.221453, 321.458, -0.00195312, -0.000976562, -0.000976562, -0.100586, 0.332031, -9.77441, 1.12.2022 16:19:23.304
1023, 1.80393, 0.221453, 321.458, -0.000976562, -0.000976562, -0.000976562, -0.00878906, 0.326172, -9.73633, 1.12.2022 16:19:23.312
1024, 1.80393, 0.221453, 321.458, -0.000976562, -0.000976562, -0.000976562, -0.00976562, 0.317383, -9.74805, 1.12.2022 16:19:23.320
1025, 1.80393, 0.221453, 321.458, -0.000976562, -0.000976562, 0, -0.0771484, 0.326172, -9.79688, 1.12.2022 16:19:23.328
1026, 1.80393, 0.221453, 321.458, -0.000976562, -0.000976562, -0.000976562, 0.00976562, 0.291016, -9.74707, 1.12.2022 16:19:23.336
1027, 1.80393, 0.221453, 321.458, -0.000976562, -0.000976562, 0, -0.0380859, 0.298828, -9.77637, 1.12.2022 16:19:23.344
1028, 1.80393, 0.221453, 321.458, -0.00195312, 0.000976562, 0, -0.0693359, 0.322266, -9.76855, 1.12.2022 16:19:23.352
1029, 1.81053, 0.219145, 321.458, -0.000976562, -0.000976562, -0.000976562, -0.00195312, 0.28418, -9.84375, 1.12.2022 16:19:23.360
1030, 1.81053, 0.219145, 321.458, -0.000976562, -0.000976562, -0.000976562, -0.0576172, 0.318359, -9.7998, 1.12.2022 16:19:23.368
1031, 1.81053, 0.219145, 321.458, -0.000976562, -0.00195312, -0.000976562, -0.0195312, 0.31543, -9.76953, 1.12.2022 16:19:23.376
