Seq, Rot x, Rot y, Rot z, Vel x, Vel y, Vel z, Acc x, Acc y, Acc z, Time(m.d.y h:m:s.ms)
0, 20.1418, 88.805, 94.9259, 0, 0, -0.000976562, 9.89453, -0.0869141, -0.185547, 11.29.2021 15:13:8.903
1, 20.1418, 88.805, 94.9259, -0.000976562, 0, -0.000976562, 9.86426, -0.0751953, -0.139648, 11.29.2021 15:13:8.907
2, 20.1418, 88.805, 94.9259, -0.000976562, -0.00195312, 0, 9.91699, -0.03125, -0.136719, 11.29.2021 15:13:8.915
3, 20.1418, 88.805, 94.9259, -0.000976562, -0.00195312, -0.000976562, 9.88867, -0.0322266, -0.105469, 11.29.2021 15:13:8.923
4, 20.1418, 88.805, 94.9259, -0.000976562, 0, -0.000976562, 9.90527, -0.0478516, -0.0800781, 11.29.2021 15:13:8.931
5, 20.1418, 88.805, 94.9259, -0.000976562, 0, 0, 9.87402, -0.0654297, -0.136719, 11.29.2021 15:13:8.939
6, 19.9533, 88.9611, 94.6431, 0, -0.000976562, -0.000976562, 9.87109, -0.0693359, -0.161133, 11.29.2021 15:13:8.947
7, 20.018, 89.0176, 94.6718, 0, -0.00195312, 0, 9.8916, -0.0722656, -0.197266, 11.29.2021 15:13:8.955
8, 20.2996, 88.8116, 95.0885, 0, 0, 0, 9.87988, -0.118164, -0.260742, 11.29.2021 15:13:8.963
9, 20.2996, 88.8116, 95.0885, -0.000976562, -0.000976562, -0.000976562, 9.86523, -0.0625, -0.227539, 11.29.2021 15:13:8.971
10, 20.3788, 88.9641, 95.0706, -0.000976562, -0.000976562, 0, 9.875, -0.0927734, -0.240234, 11.29.2021 15:13:8.979
11, 20.3788, 88.9641, 95.0706, -0.000976562, 0, 0, 9.90332, -0.0507812, -0.210938, 11.29.2021 15:13:8.987
12, 20.1418, 88.805, 94.9259, 0, 0, -0.000976562, 9.89355, -0.0244141, -0.209961, 11.29.2021 15:13:8.995
13, 20.1418, 88.805, 94.9259, 0, 0, 0, 9.87793, -0.0214844, -0.140625, 11.29.2021 15:13:9.003
14, 19.9533, 88.9611, 94.6431, -0.000976562, 0, -0.000976562, 9.86621, -0.0507812, -0.15332, 11.29.2021 15:13:9.011
15, 19.9533, 88.9611, 94.6431, -0.000976562, -0.000976562, -0.000976562, 9.89648, -0.0771484, -0.195312, 11.29.2021 15:13:9.019
16, 19.9533, 88.9611, 94.6431, 0, -0.000976562, -0.00195312, 9.8877, -0.0849609, -0.175781, 11.29.2021 15:13:9.027
17, 19.9533, 88.9611, 94.6431, 0, -0.00195312, -0.000976562, 9.87207, -0.0976562, -0.238281, 11.29.2021 15:13:9.035
18, 19.9533, 88.9611, 94.6431, 0.000976562, -0.000976562, -0.000976562, 9.87012, -0.0908203, -0.242188, 11.29.2021 15:13:9.043
19, 19.8644, 89.0099, 94.5145, 0, -0.000976562, -0.000976562, 9.86328, -0.0869141, -0.213867, 11.29.2021 15:13:9.051
20, 19.72, 88.8025, 94.5028, 0, -0.000976562, -0.000976562, 9.875, -0.0605469, -0.203125, 11.29.2021 15:13:9.059
21, 19.8014, 88.9538, 94.4872, -0.000976562, -0.000976562, 0, 9.88281, -0.0537109, -0.191406, 11.29.2021 15:13:9.067
22, 19.8014, 88.9538, 94.4872, -0.000976562, -0.000976562, 0, 9.87793, -0.03125, -0.147461, 11.29.2021 15:13:9.075
23, 19.8014, 88.9538, 94.4872, -0.00195312, 0, 0, 9.85938, -0.0341797, -0.137695, 11.29.2021 15:13:9.083
24, 19.8014, 88.9538, 94.4872, -0.000976562, 0, 0, 9.89062, -0.0771484, -0.121094, 11.29.2021 15:13:9.091
25, 19.8014, 88.9538, 94.4872, 0, -0.000976562, -0.000976562, 9.8877, -0.109375, -0.183594, 11.29.2021 15:13:9.099
26, 19.8014, 88.9538, 94.4872, 0, -0.000976562, -0.000976562, 9.88379, -0.103516, -0.135742, 11.29.2021 15:13:9.107
27, 19.8014, 88.9538, 94.4872, 0, -0.00195312, 0, 9.85645, -0.0810547, -0.161133, 11.29.2021 15:13:9.113
28, 20.2208, 88.9566, 94.9088, 0, -0.00195312, 0, 9.86816, -0.0966797, -0.197266, 11.29.2021 15:13:9.123
29, 20.2208, 88.9566, 94.9088, -0.000976562, 0, -0.000976562, 9.87109, -0.0380859, -0.166992, 11.29.2021 15:13:9.129
30, 20.2208, 88.9566, 94.9088, -0.000976562, 0, -0.00195312, 9.89648, -0.0410156, -0.219727, 11.29.2021 15:13:9.137
31, 20.2208, 88.9566, 94.9088, -0.000976562, -0.000976562, 0, 9.87012, -0.0292969, -0.21875, 11.29.2021 15:13:9.145
32, 20.2208, 88.9566, 94.9088, 0.000976562, 0, -0.000976562, 9.86816, -0.0292969, -0.200195, 11.29.2021 15:13:9.153
33, 20.1418, 88.805, 94.9259, 0, 0, 0, 9.87305, -0.0615234, -0.18457, 11.29.2021 15:13:9.161
34, 20.1418, 88.805, 94.9259, 0, -0.000976562, 0, 9.87793, -0.0898438, -0.183594, 11.29.2021 15:13:9.169
35, 20.1418, 88.805, 94.9259, 0, 0, 0, 9.89551, -0.09375, -0.152344, 11.29.2021 15:13:9.177
36, 20.1418, 88.805, 94.9259, 0, -0.000976562, 0, 9.875, -0.100586, -0.211914, 11.29.2021 15:13:9.185
37, 20.2208, 88.9566, 94.9088, -0.000976562, -0.000976562, 0, 9.83398, -0.106445, -0.266602, 11.29.2021 15:13:9.193
38, 20.2208, 88.9566, 94.9088, 0, -0.000976562, 0, 9.87012, -0.0693359, -0.232422, 11.29.2021 15:13:9.201
39, 20.4076, 88.8011, 95.1885, -0.000976562, 0, -0.000976562, 9.86523, -0.0732422, -0.253906, 11.29.2021 15:13:9.209
40, 20.0667, 88.9491, 94.7506, -0.000976562, -0.000976562, -0.00195312, 9.8623, -0.0166016, -0.242188, 11.29.2021 15:13:9.217
41, 20.0667, 88.9491, 94.7506, -0.000976562, 0, 0, 9.88867, -0.0263672, -0.216797, 11.29.2021 15:13:9.225
42, 19.9243, 88.752, 94.7384, 0, -0.000976562, -0.000976562, 9.86133, -0.078125, -0.167969, 11.29.2021 15:13:9.233
43, 19.8374, 88.792, 94.612, 0, -0.000976562, 0, 9.90234, -0.0791016, -0.147461, 11.29.2021 15:13:9.241
44, 19.8374, 88.792, 94.612, 0, -0.000976562, 0, 9.85645, -0.0898438, -0.192383, 11.29.2021 15:13:9.249
45, 19.9162, 88.9417, 94.5963, 0, -0.000976562, -0.000976562, 9.90137, -0.0644531, -0.227539, 11.29.2021 15:13:9.257
46, 19.9162, 88.9417, 94.5963, 0, 0, -0.00195312, 9.87012, -0.0947266, -0.24707, 11.29.2021 15:13:9.265
47, 19.6904, 88.7853, 94.4602, 0, -0.000976562, -0.000976562, 9.87207, -0.0712891, -0.251953, 11.29.2021 15:13:9.273
48, 19.7693, 88.9341, 94.4453, -0.00195312, -0.000976562, -0.000976562, 9.88379, -0.0556641, -0.270508, 11.29.2021 15:13:9.281
49, 19.6299, 88.7392, 94.4341, -0.000976562, -0.00195312, -0.000976562, 9.83691, -0.0820312, -0.217773, 11.29.2021 15:13:9.289
50, 19.5469, 88.7789, 94.312, -0.000976562, -0.000976562, -0.000976562, 9.9043, -0.0371094, -0.191406, 11.29.2021 15:13:9.297
51, 19.6257, 88.9266, 94.2977, 0, -0.000976562, 0, 9.88379, -0.0400391, -0.105469, 11.29.2021 15:13:9.305
52, 19.4878, 88.7328, 94.287, 0, -0.000976562, -0.000976562, 9.88086, -0.0253906, -0.121094, 11.29.2021 15:13:9.313
53, 19.4081, 88.6053, 94.3013, 0, -0.00195312, 0, 9.87402, -0.0605469, -0.134766, 11.29.2021 15:13:9.321
54, 19.4081, 88.6053, 94.3013, 0, -0.000976562, 0, 9.89941, -0.0673828, -0.151367, 11.29.2021 15:13:9.329
55, 19.2274, 88.7367, 94.0301, -0.000976562, -0.00195312, 0, 9.88086, -0.0888672, -0.154297, 11.29.2021 15:13:9.337
56, 19.3664, 88.9312, 94.0402, 0, -0.000976562, 0, 9.86523, -0.140625, -0.115234, 11.29.2021 15:13:9.345
57, 19.3664, 88.9312, 94.0402, 0, -0.00195312, 0, 9.86523, -0.0322266, -0.178711, 11.29.2021 15:13:9.353
58, 19.6299, 88.7392, 94.4341, 0, -0.000976562, -0.000976562, 9.89844, -0.0712891, -0.223633, 11.29.2021 15:13:9.361
59, 19.6299, 88.7392, 94.4341, 0, -0.000976562, 0, 9.8916, -0.0556641, -0.208008, 11.29.2021 15:13:9.369
60, 19.6299, 88.7392, 94.4341, -0.00195312, -0.000976562, 0, 9.88965, -0.0488281, -0.179688, 11.29.2021 15:13:9.377
61, 19.6299, 88.7392, 94.4341, -0.000976562, -0.000976562, 0, 9.87695, -0.0712891, -0.227539, 11.29.2021 15:13:9.385
62, 19.6904, 88.7853, 94.4602, 0, 0.000976562, -0.000976562, 9.89941, -0.0654297, -0.182617, 11.29.2021 15:13:9.393
63, 19.508, 88.9387, 94.1858, 0, -0.000976562, -0.000976562, 9.88281, -0.0703125, -0.1875, 11.29.2021 15:13:9.401
64, 19.508, 88.9387, 94.1858, 0, 0.000976562, -0.000976562, 9.90137, -0.0976562, -0.219727, 11.29.2021 15:13:9.409
65, 19.508, 88.9387, 94.1858, 0, 0.000976562, 0, 9.88281, -0.0771484, -0.192383, 11.29.2021 15:13:9.417
66, 19.6904, 88.7853, 94.4602, 0, 0.000976562, 0, 9.88184, -0.0878906, -0.25, 11.29.2021 15:13:9.425
67, 19.7693, 88.9341, 94.4453, 0.000976562, 0.000976562, -0.000976562, 9.90527, -0.0576172, -0.280273, 11.29.2021 15:13:9.433
68, 19.7693, 88.9341, 94.4453, 0, 0.000976562, -0.000976562, 9.86523, -0.0351562, -0.233398, 11.29.2021 15:13:9.441
69, 19.6299, 88.7392, 94.4341, 0, -0.000976562, 0, 9.85547, 0.00292969, -0.174805, 11.29.2021 15:13:9.449
70, 19.3664, 88.9312, 94.0402, 0, -0.000976562, 0, 9.92285, -0.0273438, -0.188477, 11.29.2021 15:13:9.457
71, 19.3664, 88.9312, 94.0402, 0, -0.000976562, 0, 9.88281, -0.0400391, -0.157227, 11.29.2021 15:13:9.465
72, 19.2274, 88.7367, 94.0301, 0, -0.000976562, -0.00195312, 9.89258, -0.0566406, -0.166016, 11.29.2021 15:13:9.473
73, 19.1456, 88.609, 94.0436, 0, -0.000976562, -0.000976562, 9.89551, -0.102539, -0.165039, 11.29.2021 15:13:9.481
74, 19.1456, 88.609, 94.0436, 0, -0.000976562, 0, 9.88184, -0.0859375, -0.235352, 11.29.2021 15:13:9.489
75, 18.8845, 88.7802, 93.651, 0, -0.000976562, 0, 9.8584, -0.121094, -0.248047, 11.29.2021 15:13:9.497
76, 18.9673, 88.9281, 93.6388, 0, -0.000976562, 0, 9.87012, -0.106445, -0.254883, 11.29.2021 15:13:9.505
77, 18.9673, 88.9281, 93.6388, 0.000976562, 0.000976562, 0, 9.875, -0.0810547, -0.228516, 11.29.2021 15:13:9.513
78, 19.1474, 88.776, 93.9109, 0.000976562, -0.000976562, -0.000976562, 9.84961, -0.0498047, -0.168945, 11.29.2021 15:13:9.521
79, 19.1474, 88.776, 93.9109, 0.000976562, -0.000976562, -0.000976562, 9.87793, -0.0371094, -0.176758, 11.29.2021 15:13:9.529
80, 19.1474, 88.776, 93.9109, -0.000976562, -0.00195312, -0.000976562, 9.88574, -0.0107422, -0.123047, 11.29.2021 15:13:9.537
81, 19.1474, 88.776, 93.9109, -0.000976562, -0.000976562, -0.000976562, 9.88867, -0.0595703, -0.101562, 11.29.2021 15:13:9.545
82, 18.9673, 88.9281, 93.6388, 0, -0.000976562, -0.000976562, 9.87891, -0.104492, -0.114258, 11.29.2021 15:13:9.553
83, 18.9673, 88.9281, 93.6388, 0, -0.00195312, 0, 9.87305, -0.0888672, -0.207031, 11.29.2021 15:13:9.561
84, 19.2274, 88.7367, 94.0301, 0, -0.00195312, 0.000976562, 9.88574, -0.0947266, -0.168945, 11.29.2021 15:13:9.569
85, 19.2274, 88.7367, 94.0301, 0, -0.00195312, 0, 9.86328, -0.0878906, -0.232422, 11.29.2021 15:13:9.577
86, 19.3664, 88.9312, 94.0402, 0, -0.00195312, 0, 9.88672, -0.0615234, -0.24707, 11.29.2021 15:13:9.585
87, 19.3664, 88.9312, 94.0402, -0.000976562, 0.000976562, -0.000976562, 9.88184, -0.0722656, -0.21875, 11.29.2021 15:13:9.593
88, 19.3664, 88.9312, 94.0402, 0, -0.000976562, -0.000976562, 9.88086, -0.00878906, -0.253906, 11.29.2021 15:13:9.601
89, 19.3664, 88.9312, 94.0402, 0, 0.000976562, 0, 9.87891, -0.0371094, -0.119141, 11.29.2021 15:13:9.609
90, 19.3664, 88.9312, 94.0402, 0.000976562, -0.000976562, 0, 9.87793, -0.0546875, -0.155273, 11.29.2021 15:13:9.617
91, 19.3664, 88.9312, 94.0402, 0, -0.00195312, 0, 9.88672, -0.109375, -0.115234, 11.29.2021 15:13:9.625
92, 19.3664, 88.9312, 94.0402, 0, -0.00195312, 0, 9.86621, -0.0800781, -0.180664, 11.29.2021 15:13:9.633
93, 19.2855, 88.7828, 94.0538, 0, -0.000976562, -0.000976562, 9.85938, -0.117188, -0.173828, 11.29.2021 15:13:9.641
94, 19.6904, 88.7853, 94.4602, 0, -0.00195312, -0.00195312, 9.86719, -0.134766, -0.134766, 11.29.2021 15:13:9.649
95, 19.6904, 88.7853, 94.4602, 0, -0.000976562, -0.000976562, 9.87109, -0.0673828, -0.15625, 11.29.2021 15:13:9.657
96, 19.6904, 88.7853, 94.4602, 0.00195312, -0.000976562, 0, 9.86816, -0.0449219, -0.181641, 11.29.2021 15:13:9.665
97, 20.0989, 88.7879, 94.8705, 0.000976562, -0.000976562, 0, 9.87305, -0.015625, -0.19043, 11.29.2021 15:13:9.673
98, 19.9162, 88.9417, 94.5963, 0, 0, 0, 9.87012, -0.0322266, -0.193359, 11.29.2021 15:13:9.681
99, 19.9162, 88.9417, 94.5963, -0.00195312, 0, 0.000976562, 9.88672, -0.0439453, -0.203125, 11.29.2021 15:13:9.689
100, 19.8374, 88.792, 94.612, 0, 0, -0.000976562, 9.8584, -0.0527344, -0.160156, 11.29.2021 15:13:9.697
101, 19.8374, 88.792, 94.612, 0, -0.000976562, 0, 9.85156, -0.0820312, -0.21582, 11.29.2021 15:13:9.705
102, 20.1094, 88.6192, 95.0147, 0, -0.000976562, 0.000976562, 9.85645, -0.0869141, -0.197266, 11.29.2021 15:13:9.713
103, 20.2515, 88.7946, 95.0276, 0, -0.000976562, 0.000976562, 9.88965, -0.0888672, -0.223633, 11.29.2021 15:13:9.721
104, 20.2515, 88.7946, 95.0276, 0.000976562, -0.000976562, 0, 9.86035, -0.0683594, -0.246094, 11.29.2021 15:13:9.729
105, 20.1094, 88.6192, 95.0147, -0.00195312, 0, 0, 9.89648, -0.0351562, -0.178711, 11.29.2021 15:13:9.737
106, 20.1094, 88.6192, 95.0147, 0, -0.000976562, 0, 9.83691, -0.0078125, -0.136719, 11.29.2021 15:13:9.745
107, 19.9243, 88.752, 94.7384, -0.00195312, 0, 0.000976562, 9.89258, -0.0244141, -0.140625, 11.29.2021 15:13:9.753
108, 19.9243, 88.752, 94.7384, 0, 0, 0.000976562, 9.88574, -0.0234375, -0.0996094, 11.29.2021 15:13:9.761
109, 19.8014, 88.9538, 94.4872, 0, -0.000976562, -0.000976562, 9.88379, -0.0576172, -0.0820312, 11.29.2021 15:13:9.769
110, 19.8014, 88.9538, 94.4872, 0, -0.000976562, -0.000976562, 9.88574, -0.0527344, -0.148438, 11.29.2021 15:13:9.777
111, 19.8081, 88.762, 94.631, 0, 0, -0.000976562, 9.87012, -0.107422, -0.0976562, 11.29.2021 15:13:9.785
112, 19.9533, 88.9611, 94.6431, -0.00195312, -0.000976562, -0.000976562, 9.87793, -0.0996094, -0.185547, 11.29.2021 15:13:9.793
113, 19.6818, 88.9656, 94.3736, -0.00195312, -0.000976562, -0.000976562, 9.87695, -0.0839844, -0.21875, 11.29.2021 15:13:9.801
114, 19.9621, 88.7682, 94.7902, 0, 0, -0.000976562, 9.87793, -0.106445, -0.205078, 11.29.2021 15:13:9.809
115, 19.9621, 88.7682, 94.7902, -0.00292969, 0, 0, 9.85352, -0.0380859, -0.22168, 11.29.2021 15:13:9.817
116, 20.109, 88.9686, 94.8029, 0, 0, -0.000976562, 9.86328, -0.0205078, -0.194336, 11.29.2021 15:13:9.825
117, 20.109, 88.9686, 94.8029, 0, -0.000976562, -0.000976562, 9.86816, -0.0253906, -0.1875, 11.29.2021 15:13:9.833
118, 19.918, 89.1544, 94.5149, -0.00195312, 0, 0, 9.87598, -0.0546875, -0.167969, 11.29.2021 15:13:9.841
119, 19.8352, 88.9732, 94.5311, -0.00195312, -0.000976562, -0.000976562, 9.87402, -0.0966797, -0.140625, 11.29.2021 15:13:9.849
120, 19.8352, 88.9732, 94.5311, -0.00195312, -0.00195312, -0.000976562, 9.88086, -0.0751953, -0.137695, 11.29.2021 15:13:9.857
121, 19.8352, 88.9732, 94.5311, 0, -0.00195312, 0, 9.87695, -0.0878906, -0.235352, 11.29.2021 15:13:9.865
122, 20.1202, 88.7744, 94.9534, -0.000976562, -0.000976562, 0, 9.83398, -0.09375, -0.232422, 11.29.2021 15:13:9.873
123, 20.1202, 88.7744, 94.9534, -0.000976562, -0.000976562, -0.000976562, 9.87402, -0.0683594, -0.250977, 11.29.2021 15:13:9.881
124, 19.7707, 88.919, 94.5029, 0, -0.000976562, -0.000976562, 9.86035, -0.0625, -0.219727, 11.29.2021 15:13:9.889
125, 19.7707, 88.919, 94.5029, 0, -0.000976562, 0, 9.89258, -0.0361328, -0.28125, 11.29.2021 15:13:9.897
126, 19.7707, 88.919, 94.5029, 0, -0.000976562, -0.000976562, 9.86621, -0.0263672, -0.299805, 11.29.2021 15:13:9.905
127, 19.5352, 88.7658, 94.362, 0, -0.00195312, 0, 9.88867, -0.0419922, -0.246094, 11.29.2021 15:13:9.913
128, 19.1982, 88.9091, 93.9242, 0, 0, -0.000976562, 9.88965, -0.0205078, -0.178711, 11.29.2021 15:13:9.921
129, 19.1982, 88.9091, 93.9242, 0, 0.000976562, 0, 9.8916, -0.0292969, -0.198242, 11.29.2021 15:13:9.929
130, 18.7816, 88.9062, 93.5056, 0, 0, 0, 9.87988, -0.0761719, -0.223633, 11.29.2021 15:13:9.937
131, 18.7816, 88.9062, 93.5056, 0, 0, 0, 9.875, -0.0703125, -0.189453, 11.29.2021 15:13:9.945
132, 18.5571, 88.7545, 93.3759, 0.000976562, -0.000976562, 0, 9.87793, -0.114258, -0.171875, 11.29.2021 15:13:9.953
133, 18.6448, 88.8991, 93.3643, 0, -0.000976562, 0, 9.85156, -0.0654297, -0.196289, 11.29.2021 15:13:9.961
134, 18.6448, 88.8991, 93.3643, 0, -0.000976562, 0, 9.86523, -0.0683594, -0.250977, 11.29.2021 15:13:9.969
135, 18.3808, 89.1255, 92.9629, 0, 0, -0.000976562, 9.87305, -0.0341797, -0.135742, 11.29.2021 15:13:9.977
136, 18.2379, 88.8962, 92.9553, 0, -0.000976562, -0.000976562, 9.86328, -0.0341797, -0.147461, 11.29.2021 15:13:9.985
137, 18.2379, 88.8962, 92.9553, 0, -0.000976562, -0.000976562, 9.90527, -0.0302734, -0.0908203, 11.29.2021 15:13:9.993
138, 18.2379, 88.8962, 92.9553, 0, -0.000976562, 0, 9.87109, -0.0556641, -0.146484, 11.29.2021 15:13:10.001
139, 18.2379, 88.8962, 92.9553, -0.000976562, -0.000976562, 0.000976562, 9.91211, -0.0947266, -0.178711, 11.29.2021 15:13:10.009
140, 18.1481, 88.752, 92.9654, -0.000976562, -0.000976562, 0, 9.89062, -0.0605469, -0.120117, 11.29.2021 15:13:10.017
141, 18.1481, 88.752, 92.9654, 0.000976562, 0, -0.000976562, 9.88477, -0.0859375, -0.230469, 11.29.2021 15:13:10.025
142, 18.5571, 88.7545, 93.3759, 0, -0.000976562, -0.000976562, 9.86816, -0.125, -0.224609, 11.29.2021 15:13:10.033
143, 18.5571, 88.7545, 93.3759, -0.000976562, -0.000976562, -0.000976562, 9.86035, -0.0800781, -0.263672, 11.29.2021 15:13:10.041
144, 18.5012, 88.7096, 93.3557, -0.000976562, -0.000976562, -0.000976562, 9.90625, -0.0478516, -0.21582, 11.29.2021 15:13:10.049
145, 18.2379, 88.8962, 92.9553, 0, -0.000976562, -0.000976562, 9.87305, -0.0585938, -0.201172, 11.29.2021 15:13:10.057
146, 18.2379, 88.8962, 92.9553, 0, -0.000976562, -0.000976562, 9.87891, -0.0351562, -0.117188, 11.29.2021 15:13:10.065
147, 18.2379, 88.8962, 92.9553, 0, -0.000976562, -0.00195312, 9.86621, -0.0244141, -0.142578, 11.29.2021 15:13:10.073
148, 18.2379, 88.8962, 92.9553, 0, -0.000976562, -0.000976562, 9.87988, -0.0537109, -0.189453, 11.29.2021 15:13:10.081
149, 18.1481, 88.752, 92.9654, -0.000976562, -0.000976562, -0.000976562, 9.86523, -0.0703125, -0.194336, 11.29.2021 15:13:10.089
150, 18.2243, 88.7132, 93.083, -0.000976562, -0.000976562, 0, 9.86621, -0.104492, -0.185547, 11.29.2021 15:13:10.097
151, 18.5012, 88.7096, 93.3557, -0.000976562, -0.000976562, 0, 9.88965, -0.134766, -0.201172, 11.29.2021 15:13:10.105
152, 18.5012, 88.7096, 93.3557, 0.000976562, -0.000976562, -0.000976562, 9.91992, -0.0898438, -0.259766, 11.29.2021 15:13:10.113
153, 18.5012, 88.7096, 93.3557, 0, -0.00195312, -0.000976562, 9.88477, -0.0908203, -0.228516, 11.29.2021 15:13:10.121
154, 18.5012, 88.7096, 93.3557, 0, 0, -0.000976562, 9.86816, -0.0751953, -0.1875, 11.29.2021 15:13:10.129
155, 18.7742, 88.7059, 93.6245, 0, -0.000976562, -0.000976562, 9.88965, -0.00878906, -0.164062, 11.29.2021 15:13:10.137
156, 18.9165, 88.8948, 93.6338, -0.000976562, -0.000976562, 0, 9.88574, -0.0556641, -0.146484, 11.29.2021 15:13:10.145
157, 18.9165, 88.8948, 93.6338, -0.000976562, -0.000976562, 0, 9.85938, -0.046875, -0.117188, 11.29.2021 15:13:10.153
158, 18.7314, 89.0658, 93.3528, 0, -0.000976562, 0, 9.88086, -0.0654297, -0.134766, 11.29.2021 15:13:10.161
159, 18.9972, 88.8512, 93.7546, 0, -0.000976562, 0, 9.85742, -0.143555, -0.148438, 11.29.2021 15:13:10.169
160, 18.9972, 88.8512, 93.7546, -0.000976562, -0.00195312, -0.00195312, 9.87012, -0.09375, -0.208984, 11.29.2021 15:13:10.177
161, 19.3258, 88.8977, 94.0451, -0.000976562, -0.000976562, -0.000976562, 9.84766, -0.0888672, -0.287109, 11.29.2021 15:13:10.185
162, 19.3258, 88.8977, 94.0451, -0.000976562, -0.000976562, 0, 9.8584, -0.0996094, -0.24707, 11.29.2021 15:13:10.193
163, 19.408, 89.0641, 94.0313, 0, 0, -0.00195312, 9.87402, -0.0527344, -0.277344, 11.29.2021 15:13:10.201
164, 19.2663, 88.8472, 94.021, -0.000976562, -0.000976562, -0.000976562, 9.87793, -0.0371094, -0.186523, 11.29.2021 15:13:10.209
165, 19.4505, 88.7046, 94.2981, 0, 0, -0.000976562, 9.875, -0.000976562, -0.179688, 11.29.2021 15:13:10.217
166, 19.4505, 88.7046, 94.2981, 0, -0.000976562, -0.000976562, 9.87012, -0.03125, -0.207031, 11.29.2021 15:13:10.225
167, 19.4505, 88.7046, 94.2981, 0, -0.000976562, 0, 9.86816, -0.0771484, -0.194336, 11.29.2021 15:13:10.233
168, 19.1845, 88.8904, 93.8994, 0, -0.00195312, -0.000976562, 9.87988, -0.0751953, -0.202148, 11.29.2021 15:13:10.241
169, 19.2665, 89.0556, 93.8863, 0, -0.000976562, 0, 9.87793, -0.137695, -0.191406, 11.29.2021 15:13:10.249
170, 19.2665, 89.0556, 93.8863, 0, -0.000976562, -0.00195312, 9.85352, -0.117188, -0.216797, 11.29.2021 15:13:10.257
171, 19.3085, 88.6985, 94.1508, 0, -0.000976562, 0, 9.85645, -0.120117, -0.219727, 11.29.2021 15:13:10.265
172, 19.3893, 88.836, 94.1369, 0, -0.000976562, 0, 9.88965, -0.0703125, -0.206055, 11.29.2021 15:13:10.273
173, 19.3893, 88.836, 94.1369, 0, -0.000976562, 0.000976562, 9.9043, -0.0234375, -0.171875, 11.29.2021 15:13:10.279
174, 19.5699, 88.6946, 94.4083, 0, 0, 0, 9.85547, -0.03125, -0.213867, 11.29.2021 15:13:10.287
175, 19.5699, 88.6946, 94.4083, 0, 0, -0.000976562, 9.87109, -0.0361328, -0.140625, 11.29.2021 15:13:10.295
176, 19.5699, 88.6946, 94.4083, -0.000976562, 0, -0.000976562, 9.8623, -0.0400391, -0.107422, 11.29.2021 15:13:10.303
177, 19.5283, 89.0504, 94.1472, 0, -0.000976562, 0, 9.89062, -0.105469, -0.155273, 11.29.2021 15:13:10.311
178, 19.7929, 88.8387, 94.5423, 0, -0.000976562, -0.000976562, 9.88281, -0.0722656, -0.149414, 11.29.2021 15:13:10.319
179, 19.7929, 88.8387, 94.5423, 0, 0, -0.000976562, 9.85156, -0.104492, -0.175781, 11.29.2021 15:13:10.327
180, 19.7929, 88.8387, 94.5423, 0, 0.000976562, -0.000976562, 9.8877, -0.102539, -0.155273, 11.29.2021 15:13:10.335
181, 19.9323, 89.0537, 94.5538, 0, 0, -0.000976562, 9.84473, -0.0517578, -0.173828, 11.29.2021 15:13:10.343
182, 20.1235, 88.7034, 94.9681, 0, 0, 0, 9.85938, -0.0273438, -0.130859, 11.29.2021 15:13:10.351
183, 20.1235, 88.7034, 94.9681, -0.000976562, -0.000976562, 0, 9.87891, -0.0166016, -0.228516, 11.29.2021 15:13:10.359
184, 19.9405, 88.8456, 94.6942, -0.000976562, 0, 0, 9.87109, -0.0673828, -0.136719, 11.29.2021 15:13:10.367
185, 20.3532, 88.8484, 95.1089, 0, 0, 0, 9.87793, -0.0576172, -0.138672, 11.29.2021 15:13:10.375
186, 20.2765, 88.7094, 95.1264, 0, -0.000976562, -0.000976562, 9.87793, -0.0683594, -0.18457, 11.29.2021 15:13:10.383
187, 20.0916, 88.8526, 94.8498, -0.000976562, -0.000976562, 0, 9.88574, -0.09375, -0.154297, 11.29.2021 15:13:10.391
188, 20.51, 88.855, 95.27, -0.000976562, 0, 0, 9.86328, -0.129883, -0.201172, 11.29.2021 15:13:10.399
189, 20.51, 88.855, 95.27, 0, -0.000976562, 0, 9.8584, -0.102539, -0.235352, 11.29.2021 15:13:10.407
190, 20.51, 88.855, 95.27, 0, 0, -0.000976562, 9.87207, -0.0732422, -0.260742, 11.29.2021 15:13:10.415
191, 20.51, 88.855, 95.27, 0, 0, 0, 9.87012, -0.0761719, -0.249023, 11.29.2021 15:13:10.423
192, 20.7698, 88.8509, 95.527, -0.000976562, 0, 0, 9.85059, -0.0205078, -0.251953, 11.29.2021 15:13:10.431
193, 20.7698, 88.8509, 95.527, -0.000976562, -0.00195312, -0.000976562, 9.86426, -0.0322266, -0.25, 11.29.2021 15:13:10.439
194, 20.3532, 88.8484, 95.1089, -0.000976562, -0.000976562, 0, 9.86523, -0.0478516, -0.219727, 11.29.2021 15:13:10.447
195, 20.3532, 88.8484, 95.1089, -0.000976562, -0.000976562, -0.000976562, 9.8916, -0.0556641, -0.196289, 11.29.2021 15:13:10.455
196, 20.2119, 88.6659, 95.0959, 0, 0, 0, 9.87598, -0.0947266, -0.19043, 11.29.2021 15:13:10.463
197, 20.2886, 88.7998, 95.0786, 0, 0, -0.000976562, 9.88965, -0.116211, -0.18457, 11.29.2021 15:13:10.471
198, 20.2002, 88.8414, 94.9514, 0, -0.000976562, -0.000976562, 9.85742, -0.115234, -0.155273, 11.29.2021 15:13:10.479
199, 20.2002, 88.8414, 94.9514, -0.000976562, -0.000976562, -0.000976562, 9.86133, -0.114258, -0.185547, 11.29.2021 15:13:10.487
200, 20.2002, 88.8414, 94.9514, 0, -0.00195312, 0, 9.87695, -0.0478516, -0.222656, 11.29.2021 15:13:10.495
201, 20.2759, 88.9985, 94.9347, 0, -0.000976562, 0.000976562, 9.875, -0.0986328, -0.202148, 11.29.2021 15:13:10.503
202, 20.4561, 88.8372, 95.2047, 0, -0.000976562, 0, 9.8584, -0.0302734, -0.180664, 11.29.2021 15:13:10.511
203, 20.4561, 88.8372, 95.2047, 0, 0, -0.000976562, 9.87305, -0.0283203, -0.154297, 11.29.2021 15:13:10.519
204, 20.4561, 88.8372, 95.2047, 0, 0.000976562, 0, 9.89062, -0.0576172, -0.15332, 11.29.2021 15:13:10.527
205, 20.4561, 88.8372, 95.2047, 0.000976562, 0, 0, 9.88574, -0.0478516, -0.150391, 11.29.2021 15:13:10.535
206, 20.4561, 88.8372, 95.2047, 0, -0.000976562, -0.000976562, 9.89551, -0.115234, -0.148438, 11.29.2021 15:13:10.543
207, 20.7264, 88.6586, 95.6015, 0, 0, 0, 9.87305, -0.114258, -0.186523, 11.29.2021 15:13:10.551
208, 20.8653, 88.8399, 95.6156, -0.000976562, 0.000976562, 0, 9.88477, -0.0996094, -0.185547, 11.29.2021 15:13:10.559
209, 20.8653, 88.8399, 95.6156, 0, 0, 0, 9.875, -0.109375, -0.254883, 11.29.2021 15:13:10.567
210, 20.8653, 88.8399, 95.6156, -0.000976562, 0, 0, 9.87695, -0.0537109, -0.267578, 11.29.2021 15:13:10.575
211, 20.8653, 88.8399, 95.6156, -0.000976562, 0, -0.000976562, 9.87988, -0.0595703, -0.220703, 11.29.2021 15:13:10.583
212, 20.9369, 88.9967, 95.5968, -0.000976562, -0.000976562, -0.000976562, 9.90137, -0.0175781, -0.200195, 11.29.2021 15:13:10.591
213, 20.9369, 88.9967, 95.5968, 0.000976562, -0.000976562, -0.000976562, 9.8877, -0.0693359, -0.139648, 11.29.2021 15:13:10.599
214, 20.9369, 88.9967, 95.5968, 0, -0.00195312, -0.000976562, 9.87793, -0.0546875, -0.172852, 11.29.2021 15:13:10.607
215, 20.7264, 88.6586, 95.6015, -0.000976562, -0.000976562, -0.000976562, 9.89551, -0.0791016, -0.137695, 11.29.2021 15:13:10.615
216, 20.8653, 88.8399, 95.6156, 0, 0, -0.000976562, 9.86914, -0.0820312, -0.132812, 11.29.2021 15:13:10.623
217, 20.8653, 88.8399, 95.6156, -0.000976562, -0.000976562, 0, 9.89746, -0.0849609, -0.175781, 11.29.2021 15:13:10.631
218, 20.8653, 88.8399, 95.6156, 0, -0.000976562, -0.000976562, 9.86328, -0.120117, -0.219727, 11.29.2021 15:13:10.639
219, 20.8653, 88.8399, 95.6156, 0, -0.000976562, 0, 9.86719, -0.0742188, -0.237305, 11.29.2021 15:13:10.647
220, 21.1389, 88.6609, 96.015, 0, -0.000976562, -0.000976562, 9.88477, -0.0849609, -0.19043, 11.29.2021 15:13:10.655
221, 21.2094, 88.7941, 95.9948, 0, -0.000976562, -0.000976562, 9.85547, -0.046875, -0.195312, 11.29.2021 15:13:10.663
222, 20.9369, 88.9967, 95.5968, 0, 0, -0.000976562, 9.87695, -0.0283203, -0.233398, 11.29.2021 15:13:10.671
223, 20.8653, 88.8399, 95.6156, 0, -0.000976562, -0.000976562, 9.87598, -0.0771484, -0.125, 11.29.2021 15:13:10.679
224, 20.8653, 88.8399, 95.6156, -0.000976562, 0, 0, 9.87012, -0.0771484, -0.201172, 11.29.2021 15:13:10.687
225, 21.1389, 88.6609, 96.015, -0.000976562, -0.000976562, -0.000976562, 9.88574, -0.0859375, -0.162109, 11.29.2021 15:13:10.695
226, 21.1389, 88.6609, 96.015, 0, -0.000976562, -0.000976562, 9.86816, -0.0625, -0.208008, 11.29.2021 15:13:10.703
227, 20.9369, 88.9967, 95.5968, -0.000976562, 0, -0.000976562, 9.85742, -0.111328, -0.271484, 11.29.2021 15:13:10.711
228, 20.9369, 88.9967, 95.5968, -0.000976562, -0.00195312, 0.000976562, 9.84375, -0.102539, -0.235352, 11.29.2021 15:13:10.719
229, 21.1158, 88.8357, 95.8636, 0, -0.000976562, -0.000976562, 9.90332, -0.0683594, -0.235352, 11.29.2021 15:13:10.727
230, 20.9781, 88.6548, 95.849, 0, -0.000976562, -0.000976562, 9.87695, -0.0341797, -0.203125, 11.29.2021 15:13:10.735
231, 21.0486, 88.7874, 95.8296, -0.000976562, -0.000976562, 0, 9.87695, -0.0195312, -0.21875, 11.29.2021 15:13:10.743
232, 20.78, 88.9886, 95.4364, -0.000976562, -0.000976562, -0.000976562, 9.88184, -0.0273438, -0.25293, 11.29.2021 15:13:10.751
233, 20.6434, 88.7849, 95.423, 0.000976562, 0, -0.000976562, 9.88281, -0.0234375, -0.15918, 11.29.2021 15:13:10.759
234, 20.6434, 88.7849, 95.423, -0.000976562, 0, 0, 9.87109, -0.09375, -0.135742, 11.29.2021 15:13:10.767
235, 20.6434, 88.7849, 95.423, -0.00195312, -0.000976562, 0, 9.86914, -0.100586, -0.164062, 11.29.2021 15:13:10.775
236, 20.6434, 88.7849, 95.423, -0.00195312, 0, -0.000976562, 9.85352, -0.110352, -0.22168, 11.29.2021 15:13:10.783
237, 20.6434, 88.7849, 95.423, -0.000976562, 0, -0.000976562, 9.86328, -0.118164, -0.208008, 11.29.2021 15:13:10.791
238, 20.6434, 88.7849, 95.423, -0.000976562, -0.000976562, -0.000976562, 9.89258, -0.104492, -0.181641, 11.29.2021 15:13:10.799
239, 20.6434, 88.7849, 95.423, 0, -0.000976562, 0, 9.91895, -0.0595703, -0.166016, 11.29.2021 15:13:10.807
240, 20.6434, 88.7849, 95.423, 0, -0.000976562, 0, 9.87305, -0.0644531, -0.158203, 11.29.2021 15:13:10.815
241, 20.6434, 88.7849, 95.423, 0, -0.00195312, 0, 9.89453, -0.0361328, -0.205078, 11.29.2021 15:13:10.823
242, 20.6434, 88.7849, 95.423, -0.000976562, -0.000976562, 0, 9.87109, -0.0507812, -0.124023, 11.29.2021 15:13:10.831
243, 20.6434, 88.7849, 95.423, -0.000976562, -0.000976562, -0.000976562, 9.89746, -0.0595703, -0.158203, 11.29.2021 15:13:10.839
244, 20.6434, 88.7849, 95.423, 0, -0.00195312, -0.000976562, 9.84473, -0.0996094, -0.180664, 11.29.2021 15:13:10.847
245, 20.6434, 88.7849, 95.423, 0.000976562, 0, -0.000976562, 9.86621, -0.12793, -0.203125, 11.29.2021 15:13:10.855
246, 20.6434, 88.7849, 95.423, 0, -0.000976562, -0.000976562, 9.86816, -0.0820312, -0.21875, 11.29.2021 15:13:10.863
247, 20.9115, 88.6129, 95.8152, -0.000976562, -0.000976562, -0.000976562, 9.8584, -0.143555, -0.222656, 11.29.2021 15:13:10.871
248, 21.0486, 88.7874, 95.8296, -0.000976562, -0.000976562, -0.000976562, 9.88672, -0.0625, -0.208984, 11.29.2021 15:13:10.879
249, 21.0486, 88.7874, 95.8296, -0.000976562, -0.000976562, 0, 9.87012, -0.0625, -0.219727, 11.29.2021 15:13:10.887
250, 20.9115, 88.6129, 95.8152, 0.000976562, -0.000976562, -0.000976562, 9.84277, 0.00976562, -0.219727, 11.29.2021 15:13:10.895
251, 20.7151, 88.9336, 95.4051, 0, -0.000976562, 0.000976562, 9.88574, -0.0400391, -0.305664, 11.29.2021 15:13:10.903
252, 20.7151, 88.9336, 95.4051, -0.000976562, 0, 0, 9.8623, 0.00878906, -0.198242, 11.29.2021 15:13:10.911
253, 20.5792, 88.7385, 95.3919, -0.00195312, -0.00195312, -0.000976562, 9.88965, -0.0888672, -0.202148, 11.29.2021 15:13:10.919
254, 20.3158, 88.9306, 95.0035, -0.000976562, 0, -0.000976562, 9.86816, -0.129883, -0.208008, 11.29.2021 15:13:10.927
255, 20.3158, 88.9306, 95.0035, -0.000976562, 0, -0.000976562, 9.8916, -0.0839844, -0.223633, 11.29.2021 15:13:10.935
256, 20.4917, 88.7781, 95.2668, 0, 0, -0.000976562, 9.86719, -0.103516, -0.130859, 11.29.2021 15:13:10.943
257, 20.4917, 88.7781, 95.2668, 0.000976562, 0, 0, 9.86719, -0.0820312, -0.123047, 11.29.2021 15:13:10.951
258, 20.4917, 88.7781, 95.2668, 0.000976562, 0, 0, 9.89062, -0.0605469, -0.125, 11.29.2021 15:13:10.959
259, 20.5792, 88.7385, 95.3919, -0.000976562, -0.000976562, -0.000976562, 9.88574, -0.0517578, -0.113281, 11.29.2021 15:13:10.967
260, 20.7151, 88.9336, 95.4051, 0, -0.00195312, 0, 9.87305, -0.00976562, -0.137695, 11.29.2021 15:13:10.975
261, 20.6434, 88.7849, 95.423, 0, -0.00195312, -0.000976562, 9.90527, -0.0615234, -0.103516, 11.29.2021 15:13:10.983
262, 20.4657, 88.9382, 95.1573, -0.000976562, -0.000976562, -0.000976562, 9.8418, -0.0263672, -0.167969, 11.29.2021 15:13:10.991
263, 20.6607, 88.6166, 95.5689, 0, -0.000976562, -0.000976562, 9.87012, -0.0820312, -0.208984, 11.29.2021 15:13:10.999
264, 20.7989, 88.7915, 95.5828, 0.000976562, -0.000976562, 0, 9.87695, -0.0751953, -0.263672, 11.29.2021 15:13:11.007
265, 20.6192, 88.9457, 95.3146, 0.000976562, -0.000976562, -0.000976562, 9.87891, -0.0800781, -0.25, 11.29.2021 15:13:11.015
266, 20.6192, 88.9457, 95.3146, 0, -0.000976562, -0.000976562, 9.9082, -0.113281, -0.265625, 11.29.2021 15:13:11.023
267, 20.2127, 88.9428, 94.9059, -0.000976562, 0, 0, 9.87207, -0.0527344, -0.224609, 11.29.2021 15:13:11.031
268, 20.2127, 88.9428, 94.9059, -0.000976562, 0, 0, 9.89648, -0.0478516, -0.219727, 11.29.2021 15:13:11.039
269, 20.392, 88.7889, 95.1744, 0, 0, 0, 9.86523, -0.0400391, -0.248047, 11.29.2021 15:13:11.047
270, 20.2127, 88.9428, 94.9059, 0, -0.000976562, -0.000976562, 9.89062, -0.0537109, -0.115234, 11.29.2021 15:13:11.055
271, 20.2127, 88.9428, 94.9059, 0, 0, 0, 9.89258, -0.0839844, -0.137695, 11.29.2021 15:13:11.063
272, 20.2127, 88.9428, 94.9059, -0.000976562, -0.000976562, 0, 9.88086, -0.0898438, -0.178711, 11.29.2021 15:13:11.071
273, 20.2127, 88.9428, 94.9059, 0, -0.000976562, 0, 9.85645, -0.130859, -0.169922, 11.29.2021 15:13:11.079
274, 20.2127, 88.9428, 94.9059, -0.000976562, 0, -0.000976562, 9.8584, -0.118164, -0.198242, 11.29.2021 15:13:11.087
275, 20.2127, 88.9428, 94.9059, -0.00195312, -0.000976562, -0.000976562, 9.88184, -0.0830078, -0.230469, 11.29.2021 15:13:11.095
276, 20.392, 88.7889, 95.1744, -0.00195312, -0.000976562, -0.000976562, 9.89844, -0.0595703, -0.227539, 11.29.2021 15:13:11.103
277, 20.392, 88.7889, 95.1744, -0.000976562, -0.000976562, -0.000976562, 9.87109, -0.0507812, -0.289062, 11.29.2021 15:13:11.111
278, 20.4657, 88.9382, 95.1573, 0, -0.000976562, 0, 9.84766, -0.0273438, -0.263672, 11.29.2021 15:13:11.119
279, 20.3286, 88.7426, 95.1445, -0.000976562, -0.000976562, 0, 9.88965, -0.0136719, -0.173828, 11.29.2021 15:13:11.127
280, 20.3286, 88.7426, 95.1445, 0, -0.000976562, -0.000976562, 9.88379, -0.0566406, -0.108398, 11.29.2021 15:13:11.135
281, 20.3286, 88.7426, 95.1445, 0, 0, 0, 9.89648, -0.0791016, -0.0800781, 11.29.2021 15:13:11.143
282, 20.254, 88.6144, 95.1616, -0.000976562, -0.000976562, -0.000976562, 9.87207, -0.0898438, -0.116211, 11.29.2021 15:13:11.151
283, 20.2127, 88.9428, 94.9059, -0.000976562, -0.000976562, -0.000976562, 9.86621, -0.107422, -0.160156, 11.29.2021 15:13:11.159
284, 20.2127, 88.9428, 94.9059, 0, -0.000976562, -0.000976562, 9.89746, -0.0898438, -0.195312, 11.29.2021 15:13:11.167
285, 20.2127, 88.9428, 94.9059, 0, -0.000976562, -0.000976562, 9.83398, -0.0908203, -0.24707, 11.29.2021 15:13:11.175
286, 20.2127, 88.9428, 94.9059, 0, -0.000976562, -0.000976562, 9.86719, -0.0683594, -0.265625, 11.29.2021 15:13:11.183
287, 20.2127, 88.9428, 94.9059, 0, -0.000976562, -0.000976562, 9.86621, -0.0244141, -0.292969, 11.29.2021 15:13:11.191
288, 20.2127, 88.9428, 94.9059, 0.000976562, 0, 0, 9.84766, -0.0283203, -0.242188, 11.29.2021 15:13:11.199
289, 20.254, 88.6144, 95.1616, 0, 0, 0, 9.87012, -0.015625, -0.197266, 11.29.2021 15:13:11.207
290, 19.8098, 88.9398, 94.5008, 0, -0.000976562, -0.000976562, 9.86816, -0.0625, -0.15625, 11.29.2021 15:13:11.215
291, 19.8098, 88.9398, 94.5008, 0, -0.000976562, 0, 9.86328, -0.0429688, -0.216797, 11.29.2021 15:13:11.223
292, 19.8511, 88.6121, 94.7579, 0, -0.000976562, -0.000976562, 9.9043, -0.12207, -0.220703, 11.29.2021 15:13:11.231
293, 19.8511, 88.6121, 94.7579, -0.000976562, 0, -0.000976562, 9.84277, -0.116211, -0.130859, 11.29.2021 15:13:11.239
294, 19.8511, 88.6121, 94.7579, -0.000976562, 0, 0, 9.88184, -0.0849609, -0.251953, 11.29.2021 15:13:11.247
295, 19.9277, 88.7401, 94.7422, -0.000976562, -0.000976562, 0, 9.875, -0.117188, -0.231445, 11.29.2021 15:13:11.255
296, 19.667, 88.9323, 94.3539, 0, 0, 0, 9.87402, -0.03125, -0.28125, 11.29.2021 15:13:11.263
297, 19.5303, 88.7376, 94.3432, 0, -0.000976562, -0.000976562, 9.87695, -0.0273438, -0.200195, 11.29.2021 15:13:11.271
298, 19.5303, 88.7376, 94.3432, 0.000976562, -0.00195312, -0.000976562, 9.85449, -0.0292969, -0.152344, 11.29.2021 15:13:11.279
299, 19.2729, 88.9292, 93.9575, 0, -0.00195312, 0, 9.89258, -0.00683594, -0.152344, 11.29.2021 15:13:11.287
300, 19.2729, 88.9292, 93.9575, 0, -0.000976562, -0.000976562, 9.88281, -0.0654297, -0.196289, 11.29.2021 15:13:11.295
301, 19.1366, 88.735, 93.9479, 0, -0.000976562, -0.000976562, 9.88086, -0.0683594, -0.170898, 11.29.2021 15:13:11.303
302, 19.1366, 88.735, 93.9479, 0, -0.000976562, -0.000976562, 9.89258, -0.103516, -0.148438, 11.29.2021 15:13:11.311
303, 19.1366, 88.735, 93.9479, 0, -0.00195312, 0, 9.85547, -0.107422, -0.226562, 11.29.2021 15:13:11.319
304, 19.1366, 88.735, 93.9479, -0.000976562, 0, -0.000976562, 9.87305, -0.0957031, -0.216797, 11.29.2021 15:13:11.327
305, 19.1366, 88.735, 93.9479, 0, 0, -0.000976562, 9.87402, -0.0683594, -0.253906, 11.29.2021 15:13:11.335
306, 19.1366, 88.735, 93.9479, 0, 0, 0, 9.90918, -0.0419922, -0.186523, 11.29.2021 15:13:11.343
307, 19.1366, 88.735, 93.9479, -0.000976562, 0, -0.000976562, 9.90234, -0.0410156, -0.138672, 11.29.2021 15:13:11.351
308, 19.1366, 88.735, 93.9479, -0.000976562, -0.000976562, -0.000976562, 9.92383, -0.0507812, -0.132812, 11.29.2021 15:13:11.359
309, 19.0561, 88.6073, 93.9608, -0.000976562, -0.000976562, -0.000976562, 9.91211, -0.0429688, -0.141602, 11.29.2021 15:13:11.367
310, 19.015, 88.9339, 93.7012, 0, -0.000976562, 0, 9.89062, -0.0517578, -0.115234, 11.29.2021 15:13:11.375
311, 19.015, 88.9339, 93.7012, 0.000976562, 0, -0.000976562, 9.89258, -0.102539, -0.173828, 11.29.2021 15:13:11.383
312, 19.2729, 88.7417, 94.0891, 0.000976562, -0.000976562, -0.000976562, 9.89453, -0.103516, -0.193359, 11.29.2021 15:13:11.391
313, 19.1922, 88.6134, 94.1026, 0, -0.000976562, -0.00195312, 9.87305, -0.0986328, -0.22168, 11.29.2021 15:13:11.399
314, 19.3308, 88.7879, 94.1128, -0.000976562, 0, -0.000976562, 9.8623, -0.0810547, -0.24707, 11.29.2021 15:13:11.407
315, 19.3308, 88.7879, 94.1128, -0.00292969, -0.00195312, -0.000976562, 9.9043, -0.0966797, -0.200195, 11.29.2021 15:13:11.413
316, 19.3308, 88.7879, 94.1128, -0.000976562, -0.000976562, -0.000976562, 9.87598, -0.0644531, -0.163086, 11.29.2021 15:13:11.423
317, 19.6718, 88.7441, 94.4896, -0.000976562, -0.000976562, -0.000976562, 9.8916, -0.0429688, -0.229492, 11.29.2021 15:13:11.429
318, 19.6718, 88.7441, 94.4896, 0, -0.000976562, -0.000976562, 9.8457, -0.0234375, -0.237305, 11.29.2021 15:13:11.437
319, 19.4123, 88.7479, 94.2335, 0, 0.000976562, 0, 9.90234, -0.0361328, -0.145508, 11.29.2021 15:13:11.445
320, 19.4123, 88.7479, 94.2335, -0.000976562, 0, -0.000976562, 9.90527, -0.0576172, -0.0820312, 11.29.2021 15:13:11.453
321, 19.4123, 88.7479, 94.2335, -0.000976562, -0.000976562, 0, 9.87793, -0.103516, -0.193359, 11.29.2021 15:13:11.461
322, 19.4123, 88.7479, 94.2335, 0, 0, 0, 9.8584, -0.101562, -0.205078, 11.29.2021 15:13:11.469
323, 19.5515, 88.9446, 94.2441, 0.000976562, -0.000976562, 0, 9.8584, -0.0888672, -0.21582, 11.29.2021 15:13:11.477
324, 19.8165, 88.7504, 94.6391, -0.000976562, -0.000976562, -0.000976562, 9.89551, -0.0722656, -0.142578, 11.29.2021 15:13:11.485
325, 19.8165, 88.7504, 94.6391, -0.000976562, 0, -0.000976562, 9.8877, -0.0263672, -0.147461, 11.29.2021 15:13:11.493
326, 19.6348, 88.8989, 94.3663, -0.000976562, -0.000976562, -0.000976562, 9.90234, -0.0527344, -0.139648, 11.29.2021 15:13:11.501
327, 19.5549, 88.7545, 94.381, -0.000976562, -0.000976562, -0.000976562, 9.88281, -0.0419922, -0.188477, 11.29.2021 15:13:11.509
328, 19.9646, 88.757, 94.7922, 0, -0.000976562, -0.000976562, 9.88574, -0.0283203, -0.102539, 11.29.2021 15:13:11.517
329, 19.781, 88.9062, 94.5166, 0, 0, 0, 9.87402, -0.0810547, -0.151367, 11.29.2021 15:13:11.525
330, 19.701, 88.7608, 94.532, 0, -0.00195312, 0, 9.87109, -0.101562, -0.193359, 11.29.2021 15:13:11.533
331, 20.1163, 88.7633, 94.9488, 0, -0.000976562, 0, 9.86816, -0.117188, -0.231445, 11.29.2021 15:13:11.541
332, 20.1163, 88.7633, 94.9488, -0.000976562, -0.000976562, 0, 9.875, -0.123047, -0.25293, 11.29.2021 15:13:11.549
333, 20.1943, 88.9091, 94.9318, 0, -0.00195312, 0, 9.87695, -0.0771484, -0.21875, 11.29.2021 15:13:11.557
334, 20.1943, 88.9091, 94.9318, 0, -0.000976562, 0, 9.89941, -0.0957031, -0.216797, 11.29.2021 15:13:11.565
335, 20.1943, 88.9091, 94.9318, 0, 0, -0.000976562, 9.89551, -0.0136719, -0.24707, 11.29.2021 15:13:11.573
336, 20.3783, 88.7595, 95.2071, 0, 0, -0.000976562, 9.87012, -0.0458984, -0.212891, 11.29.2021 15:13:11.581
337, 20.3783, 88.7595, 95.2071, 0, -0.000976562, -0.000976562, 9.87109, -0.03125, -0.140625, 11.29.2021 15:13:11.589
338, 20.1943, 88.9091, 94.9318, 0, -0.000976562, -0.000976562, 9.87109, -0.0820312, -0.139648, 11.29.2021 15:13:11.597
339, 20.1943, 88.9091, 94.9318, -0.00292969, -0.000976562, -0.000976562, 9.83691, -0.0898438, -0.189453, 11.29.2021 15:13:11.605
340, 20.1943, 88.9091, 94.9318, 0, 0, -0.000976562, 9.89453, -0.0917969, -0.188477, 11.29.2021 15:13:11.613
341, 20.3783, 88.7595, 95.2071, 0.000976562, 0, 0, 9.87305, -0.108398, -0.198242, 11.29.2021 15:13:11.621
342, 20.3783, 88.7595, 95.2071, 0.000976562, 0, 0, 9.87305, -0.102539, -0.223633, 11.29.2021 15:13:11.629
343, 20.454, 88.9046, 95.1894, 0.000976562, 0, -0.000976562, 9.87695, -0.0771484, -0.21582, 11.29.2021 15:13:11.637
344, 20.454, 88.9046, 95.1894, -0.000976562, 0, -0.000976562, 9.87695, -0.0595703, -0.244141, 11.29.2021 15:13:11.645
345, 20.454, 88.9046, 95.1894, 0, 0, 0, 9.87109, -0.0341797, -0.276367, 11.29.2021 15:13:11.653
346, 20.6363, 88.7554, 95.4616, -0.000976562, 0, 0, 9.89941, -0.0214844, -0.147461, 11.29.2021 15:13:11.661
347, 20.6363, 88.7554, 95.4616, 0, 0, 0, 9.90918, -0.0488281, -0.18457, 11.29.2021 15:13:11.669
348, 20.6363, 88.7554, 95.4616, 0.00195312, -0.000976562, -0.000976562, 9.87891, -0.0742188, -0.139648, 11.29.2021 15:13:11.677
349, 20.2246, 88.7529, 95.0486, 0, 0, -0.000976562, 9.87305, -0.108398, -0.205078, 11.29.2021 15:13:11.685
350, 20.2246, 88.7529, 95.0486, -0.000976562, -0.000976562, -0.000976562, 9.86328, -0.0869141, -0.204102, 11.29.2021 15:13:11.693
351, 20.3003, 88.8973, 95.0317, -0.000976562, -0.000976562, -0.000976562, 9.86816, -0.0771484, -0.21582, 11.29.2021 15:13:11.701
352, 20.3003, 88.8973, 95.0317, 0, 0, 0, 9.86426, -0.0556641, -0.282227, 11.29.2021 15:13:11.709
353, 20.4807, 88.7491, 95.3013, 0, 0, 0, 9.85742, -0.0800781, -0.260742, 11.29.2021 15:13:11.717
354, 20.0744, 88.7466, 94.8936, 0, -0.000976562, -0.000976562, 9.89355, -0.0322266, -0.25293, 11.29.2021 15:13:11.725
355, 20.1501, 88.8901, 94.8774, 0, -0.000976562, -0.000976562, 9.8877, -0.0439453, -0.181641, 11.29.2021 15:13:11.733
356, 20.1501, 88.8901, 94.8774, 0, 0, -0.000976562, 9.85742, -0.046875, -0.112305, 11.29.2021 15:13:11.741
357, 20.0124, 88.7019, 94.8653, 0, -0.000976562, 0, 9.89062, -0.0888672, -0.142578, 11.29.2021 15:13:11.749
358, 20.0124, 88.7019, 94.8653, -0.000976562, -0.000976562, 0.000976562, 9.87402, -0.104492, -0.0976562, 11.29.2021 15:13:11.757
359, 20.1501, 88.8901, 94.8774, 0, -0.000976562, 0, 9.87891, -0.110352, -0.138672, 11.29.2021 15:13:11.765
360, 20.1501, 88.8901, 94.8774, 0, -0.00195312, -0.000976562, 9.88086, -0.114258, -0.165039, 11.29.2021 15:13:11.773
361, 20.1501, 88.8901, 94.8774, 0, -0.000976562, 0, 9.87207, -0.104492, -0.238281, 11.29.2021 15:13:11.781
362, 20.1501, 88.8901, 94.8774, 0, -0.000976562, -0.000976562, 9.88379, -0.0849609, -0.256836, 11.29.2021 15:13:11.789
363, 20.5955, 88.5759, 95.5366, -0.000976562, 0, 0, 9.88184, -0.0332031, -0.228516, 11.29.2021 15:13:11.797
364, 20.3286, 88.7426, 95.1445, 0, -0.000976562, 0, 9.85352, -0.0126953, -0.204102, 11.29.2021 15:13:11.805
365, 20.3286, 88.7426, 95.1445, 0, -0.000976562, 0, 9.88574, -0.0361328, -0.150391, 11.29.2021 15:13:11.813
366, 20.3286, 88.7426, 95.1445, -0.000976562, -0.000976562, 0, 9.86816, -0.0214844, -0.154297, 11.29.2021 15:13:11.821
367, 20.1501, 88.8901, 94.8774, -0.000976562, 0, 0, 9.87402, -0.0888672, -0.142578, 11.29.2021 15:13:11.829
368, 20.4163, 88.7043, 95.2704, 0, -0.000976562, 0, 9.88281, -0.0546875, -0.165039, 11.29.2021 15:13:11.837
369, 20.4163, 88.7043, 95.2704, 0.000976562, -0.00195312, -0.000976562, 9.88574, -0.112305, -0.166992, 11.29.2021 15:13:11.845
370, 20.5543, 88.8929, 95.2836, 0, -0.000976562, -0.000976562, 9.87305, -0.118164, -0.200195, 11.29.2021 15:13:11.853
371, 20.5543, 88.8929, 95.2836, -0.000976562, -0.000976562, -0.000976562, 9.87695, -0.0722656, -0.222656, 11.29.2021 15:13:11.861
372, 20.5543, 88.8929, 95.2836, 0, -0.000976562, 0, 9.88867, -0.0966797, -0.261719, 11.29.2021 15:13:11.869
373, 20.5543, 88.8929, 95.2836, -0.000976562, -0.000976562, -0.000976562, 9.87207, -0.0429688, -0.229492, 11.29.2021 15:13:11.877
374, 20.5543, 88.8929, 95.2836, -0.000976562, -0.000976562, 0, 9.89941, -0.0488281, -0.18457, 11.29.2021 15:13:11.885
375, 20.4163, 88.7043, 95.2704, -0.000976562, -0.000976562, 0, 9.87988, -0.0634766, -0.199219, 11.29.2021 15:13:11.893
376, 20.4163, 88.7043, 95.2704, -0.000976562, 0, -0.000976562, 9.90723, -0.0449219, -0.160156, 11.29.2021 15:13:11.901
377, 20.4163, 88.7043, 95.2704, 0, 0, 0, 9.85156, -0.0820312, -0.151367, 11.29.2021 15:13:11.909
378, 20.4163, 88.7043, 95.2704, 0.000976562, 0, -0.000976562, 9.87793, -0.0800781, -0.1875, 11.29.2021 15:13:11.917
379, 20.5543, 88.8929, 95.2836, -0.000976562, -0.00195312, -0.000976562, 9.87109, -0.108398, -0.198242, 11.29.2021 15:13:11.925
380, 20.5543, 88.8929, 95.2836, -0.000976562, -0.000976562, 0, 9.89941, -0.141602, -0.197266, 11.29.2021 15:13:11.933
381, 20.5543, 88.8929, 95.2836, 0, -0.000976562, -0.000976562, 9.90625, -0.0800781, -0.248047, 11.29.2021 15:13:11.941
382, 20.6271, 89.0583, 95.266, 0, -0.000976562, 0, 9.86914, -0.0683594, -0.258789, 11.29.2021 15:13:11.949
383, 20.8047, 88.8883, 95.532, 0, 0, -0.000976562, 9.91406, -0.0205078, -0.171875, 11.29.2021 15:13:11.957
384, 20.668, 88.7003, 95.5183, -0.000976562, -0.000976562, -0.000976562, 9.85645, -0.0283203, -0.175781, 11.29.2021 15:13:11.965
385, 20.49, 88.8424, 95.253, 0, -0.000976562, 0, 9.91211, -0.0507812, -0.136719, 11.29.2021 15:13:11.973
386, 20.4163, 88.7043, 95.2704, 0, -0.000976562, 0, 9.87109, -0.0537109, -0.136719, 11.29.2021 15:13:11.981
387, 20.4163, 88.7043, 95.2704, -0.000976562, -0.000976562, 0, 9.90723, -0.0927734, -0.171875, 11.29.2021 15:13:11.989
388, 20.5543, 88.8929, 95.2836, -0.00195312, 0, 0, 9.88086, -0.0888672, -0.142578, 11.29.2021 15:13:11.997
389, 20.5543, 88.8929, 95.2836, 0, 0, -0.000976562, 9.90137, -0.12207, -0.212891, 11.29.2021 15:13:12.005
390, 20.824, 88.7067, 95.6792, 0.000976562, -0.000976562, -0.000976562, 9.87891, -0.0595703, -0.241211, 11.29.2021 15:13:12.013
391, 20.824, 88.7067, 95.6792, 0.000976562, -0.000976562, -0.000976562, 9.86523, -0.0527344, -0.236328, 11.29.2021 15:13:12.021
392, 20.5543, 88.8929, 95.2836, 0, -0.000976562, -0.000976562, 9.8877, -0.0517578, -0.172852, 11.29.2021 15:13:12.029
393, 20.5543, 88.8929, 95.2836, -0.000976562, -0.000976562, -0.000976562, 9.89941, 0.00585938, -0.175781, 11.29.2021 15:13:12.037
394, 20.3751, 89.0637, 95.0148, -0.000976562, -0.000976562, 0, 9.88965, -0.0302734, -0.168945, 11.29.2021 15:13:12.045
395, 20.3751, 89.0637, 95.0148, 0, -0.000976562, 0, 9.86328, -0.0224609, -0.1875, 11.29.2021 15:13:12.053
396, 20.1611, 88.708, 95.019, 0, -0.00195312, 0, 9.86621, -0.0283203, -0.154297, 11.29.2021 15:13:12.061
397, 20.1611, 88.708, 95.019, 0, -0.00195312, 0, 9.87402, -0.146484, -0.154297, 11.29.2021 15:13:12.069
398, 19.98, 88.8511, 94.7479, 0, -0.000976562, 0, 9.84863, -0.0859375, -0.244141, 11.29.2021 15:13:12.077
399, 19.98, 88.8511, 94.7479, -0.000976562, 0, 0, 9.87695, -0.0849609, -0.24707, 11.29.2021 15:13:12.085
400, 19.98, 88.8511, 94.7479, -0.00195312, -0.000976562, -0.000976562, 9.87012, -0.0957031, -0.230469, 11.29.2021 15:13:12.093
401, 19.98, 88.8511, 94.7479, 0, -0.000976562, -0.000976562, 9.875, -0.0625, -0.227539, 11.29.2021 15:13:12.101
402, 19.98, 88.8511, 94.7479, 0, -0.000976562, 0, 9.86328, -0.0546875, -0.163086, 11.29.2021 15:13:12.109
403, 19.7138, 89.0656, 94.3516, 0, -0.000976562, -0.000976562, 9.88867, -0.00488281, -0.207031, 11.29.2021 15:13:12.117
404, 19.5746, 88.8484, 94.3407, -0.000976562, 0, -0.000976562, 9.86816, -0.0283203, -0.154297, 11.29.2021 15:13:12.125
405, 19.5746, 88.8484, 94.3407, -0.000976562, 0, 0, 9.8877, -0.0419922, -0.181641, 11.29.2021 15:13:12.133
406, 19.5746, 88.8484, 94.3407, 0, 0, 0, 9.89746, -0.0957031, -0.145508, 11.29.2021 15:13:12.141
407, 19.5746, 88.8484, 94.3407, 0, 0, 0, 9.87305, -0.137695, -0.194336, 11.29.2021 15:13:12.149
408, 19.5746, 88.8484, 94.3407, 0, -0.000976562, 0, 9.88965, -0.108398, -0.193359, 11.29.2021 15:13:12.157
409, 19.5746, 88.8484, 94.3407, 0, -0.000976562, -0.000976562, 9.87109, -0.0810547, -0.177734, 11.29.2021 15:13:12.165
410, 19.98, 88.8511, 94.7479, -0.000976562, 0, 0, 9.85938, -0.0527344, -0.145508, 11.29.2021 15:13:12.173
411, 19.9022, 88.7118, 94.7639, 0, 0, -0.000976562, 9.85156, -0.0380859, -0.164062, 11.29.2021 15:13:12.181
412, 19.7195, 88.8553, 94.4898, 0, 0, 0, 9.87793, -0.0263672, -0.15918, 11.29.2021 15:13:12.189
413, 19.7195, 88.8553, 94.4898, -0.000976562, 0, 0, 9.91309, -0.0205078, -0.183594, 11.29.2021 15:13:12.197
414, 19.7195, 88.8553, 94.4898, 0, -0.000976562, 0, 9.89746, -0.0634766, -0.182617, 11.29.2021 15:13:12.205
415, 19.6394, 88.7156, 94.5051, 0.000976562, -0.00195312, -0.000976562, 9.89453, -0.0878906, -0.178711, 11.29.2021 15:13:12.213
416, 19.4551, 88.8595, 94.2281, 0, -0.000976562, -0.000976562, 9.86523, -0.0664062, -0.250977, 11.29.2021 15:13:12.221
417, 19.4551, 88.8595, 94.2281, 0, -0.000976562, -0.000976562, 9.86523, -0.0966797, -0.254883, 11.29.2021 15:13:12.229
418, 19.6394, 88.7156, 94.5051, -0.000976562, -0.000976562, -0.000976562, 9.86035, -0.0996094, -0.251953, 11.29.2021 15:13:12.237
419, 19.7195, 88.8553, 94.4898, -0.000976562, -0.000976562, 0, 9.88867, -0.0556641, -0.277344, 11.29.2021 15:13:12.245
420, 19.5785, 88.672, 94.4785, -0.000976562, -0.000976562, 0, 9.88965, -0.0478516, -0.210938, 11.29.2021 15:13:12.253
421, 19.3124, 88.8526, 94.081, -0.000976562, 0, -0.000976562, 9.87207, -0.0234375, -0.235352, 11.29.2021 15:13:12.261
422, 19.3124, 88.8526, 94.081, 0, -0.000976562, -0.000976562, 9.85547, -0.0439453, -0.207031, 11.29.2021 15:13:12.269
423, 18.9092, 88.8499, 93.6759, 0, 0, -0.000976562, 9.86035, -0.046875, -0.19043, 11.29.2021 15:13:12.277
424, 18.9092, 88.8499, 93.6759, -0.000976562, -0.000976562, -0.000976562, 9.88184, -0.0791016, -0.078125, 11.29.2021 15:13:12.285
425, 18.9092, 88.8499, 93.6759, -0.000976562, -0.000976562, 0, 9.85938, -0.105469, -0.166992, 11.29.2021 15:13:12.293
426, 18.9092, 88.8499, 93.6759, -0.000976562, -0.000976562, 0, 9.86914, -0.0634766, -0.258789, 11.29.2021 15:13:12.301
427, 18.9923, 89.0083, 93.6635, -0.000976562, -0.000976562, 0, 9.875, -0.0507812, -0.201172, 11.29.2021 15:13:12.309
428, 18.8528, 88.8012, 93.6544, 0, -0.00195312, 0, 9.86328, -0.0673828, -0.206055, 11.29.2021 15:13:12.317
429, 18.8528, 88.8012, 93.6544, 0.000976562, -0.000976562, 0, 9.89648, -0.0556641, -0.196289, 11.29.2021 15:13:12.325
430, 18.7752, 88.8428, 93.5373, 0, -0.000976562, 0, 9.88477, -0.0478516, -0.219727, 11.29.2021 15:13:12.333
431, 18.5947, 89.005, 93.2634, 0, -0.000976562, 0, 9.87598, -0.0283203, -0.152344, 11.29.2021 15:13:12.341
432, 18.5098, 88.847, 93.2744, 0, -0.000976562, 0, 9.8584, -0.0166016, -0.0322266, 11.29.2021 15:13:12.349
433, 18.769, 88.6672, 93.6666, 0, 0, 0, 9.88184, -0.0839844, -0.0761719, 11.29.2021 15:13:12.357
434, 18.7268, 89.0132, 93.3993, 0, 0, 0, 9.88672, -0.0849609, -0.046875, 11.29.2021 15:13:12.365
435, 18.9045, 88.6732, 93.8078, 0.000976562, -0.000976562, -0.000976562, 9.88184, -0.117188, -0.09375, 11.29.2021 15:13:12.373
436, 18.8621, 89.0212, 93.5381, -0.000976562, -0.000976562, -0.000976562, 9.87402, -0.145508, -0.15918, 11.29.2021 15:13:12.381
437, 19.1869, 88.8637, 93.9626, -0.000976562, 0, 0, 9.87793, -0.0966797, -0.188477, 11.29.2021 15:13:12.389
438, 19.6011, 88.8665, 94.3785, -0.000976562, -0.000976562, -0.000976562, 9.89355, -0.0830078, -0.235352, 11.29.2021 15:13:12.397
439, 19.6011, 88.8665, 94.3785, 0, 0, -0.00195312, 9.87598, -0.0527344, -0.300781, 11.29.2021 15:13:12.405
440, 19.6011, 88.8665, 94.3785, -0.000976562, -0.000976562, -0.000976562, 9.86914, -0.0576172, -0.28418, 11.29.2021 15:13:12.413
441, 19.6011, 88.8665, 94.3785, 0, 0, -0.000976562, 9.8623, -0.0449219, -0.229492, 11.29.2021 15:13:12.421
442, 19.6011, 88.8665, 94.3785, 0.000976562, 0, 0, 9.86328, -0.0224609, -0.19043, 11.29.2021 15:13:12.429
443, 19.6011, 88.8665, 94.3785, 0.000976562, -0.000976562, -0.000976562, 9.86523, -0.0839844, -0.230469, 11.29.2021 15:13:12.437
444, 19.6011, 88.8665, 94.3785, 0.000976562, 0, -0.000976562, 9.87988, -0.0888672, -0.208984, 11.29.2021 15:13:12.445
445, 19.6824, 89.0276, 94.3635, -0.000976562, -0.000976562, -0.000976562, 9.8291, -0.0771484, -0.227539, 11.29.2021 15:13:12.453
446, 19.8676, 88.8622, 94.6425, -0.00195312, 0.000976562, -0.000976562, 9.84668, -0.046875, -0.183594, 11.29.2021 15:13:12.461
447, 19.7251, 88.678, 94.6306, -0.000976562, -0.000976562, -0.000976562, 9.87305, -0.0556641, -0.210938, 11.29.2021 15:13:12.469
448, 19.4551, 88.8595, 94.2281, 0, -0.000976562, -0.000976562, 9.90137, -0.0410156, -0.196289, 11.29.2021 15:13:12.477
449, 19.4551, 88.8595, 94.2281, 0, 0, 0, 9.89648, -0.0341797, -0.191406, 11.29.2021 15:13:12.485
450, 19.4551, 88.8595, 94.2281, 0, -0.000976562, 0, 9.87598, -0.0849609, -0.12793, 11.29.2021 15:13:12.493
451, 19.4551, 88.8595, 94.2281, 0, -0.000976562, -0.000976562, 9.89551, -0.0283203, -0.0839844, 11.29.2021 15:13:12.501
452, 19.2703, 89.0244, 93.949, -0.000976562, 0, -0.000976562, 9.86523, -0.113281, -0.0742188, 11.29.2021 15:13:12.509
453, 19.5396, 88.8173, 94.3523, 0, -0.000976562, 0, 9.86719, -0.0947266, -0.111328, 11.29.2021 15:13:12.517
454, 19.6011, 88.8665, 94.3785, 0, -0.00195312, 0, 9.85742, -0.100586, -0.144531, 11.29.2021 15:13:12.525
455, 19.8754, 88.6839, 94.7864, -0.000976562, -0.00195312, 0, 9.85938, -0.110352, -0.140625, 11.29.2021 15:13:12.533
456, 20.0194, 88.8693, 94.7988, 0, -0.000976562, 0, 9.84961, -0.102539, -0.170898, 11.29.2021 15:13:12.541
457, 20.4416, 88.8719, 95.2227, 0, 0, 0, 9.88281, -0.105469, -0.219727, 11.29.2021 15:13:12.549
458, 20.4416, 88.8719, 95.2227, 0, -0.00195312, -0.000976562, 9.87988, -0.0615234, -0.237305, 11.29.2021 15:13:12.555
459, 20.7231, 88.6885, 95.6357, -0.000976562, -0.000976562, -0.00195312, 9.8916, -0.00585938, -0.173828, 11.29.2021 15:13:12.563
460, 20.7231, 88.6885, 95.6357, 0, -0.000976562, 0, 9.89648, -0.0507812, -0.212891, 11.29.2021 15:13:12.571
461, 20.5348, 88.829, 95.3553, -0.000976562, 0, 0, 9.89746, -0.0263672, -0.155273, 11.29.2021 15:13:12.579
462, 20.5348, 88.829, 95.3553, -0.000976562, -0.000976562, 0, 9.87207, -0.078125, -0.249023, 11.29.2021 15:13:12.587
463, 20.5348, 88.829, 95.3553, -0.000976562, 0, 0, 9.85254, -0.0966797, -0.266602, 11.29.2021 15:13:12.595
464, 20.7231, 88.6885, 95.6357, 0, 0, -0.000976562, 9.87891, -0.0771484, -0.263672, 11.29.2021 15:13:12.603
465, 20.7988, 88.825, 95.6161, -0.000976562, -0.000976562, 0, 9.86523, -0.0771484, -0.208984, 11.29.2021 15:13:12.611
466, 20.5186, 89.0339, 95.2045, 0, 0, 0, 9.86914, -0.103516, -0.286133, 11.29.2021 15:13:12.619
467, 20.5614, 88.6827, 95.4686, 0, 0, -0.000976562, 9.87402, -0.0673828, -0.275391, 11.29.2021 15:13:12.627
468, 20.637, 88.8185, 95.4498, 0, -0.000976562, -0.000976562, 9.89453, -0.0556641, -0.206055, 11.29.2021 15:13:12.635
469, 20.2192, 88.8158, 95.0305, -0.000976562, -0.000976562, -0.000976562, 9.88477, -0.0302734, -0.178711, 11.29.2021 15:13:12.643
470, 20.4034, 88.6766, 95.3053, 0, 0, -0.000976562, 9.91504, -0.0566406, -0.111328, 11.29.2021 15:13:12.651
471, 20.4034, 88.6766, 95.3053, 0, 0, -0.000976562, 9.86426, -0.0585938, -0.108398, 11.29.2021 15:13:12.659
472, 20.4034, 88.6766, 95.3053, 0, 0, 0, 9.88379, -0.113281, -0.136719, 11.29.2021 15:13:12.667
473, 20.2192, 88.8158, 95.0305, 0, 0, 0, 9.87012, -0.0888672, -0.0849609, 11.29.2021 15:13:12.675
474, 20.361, 89.026, 95.0434, 0.000976562, -0.000976562, -0.000976562, 9.87402, -0.113281, -0.143555, 11.29.2021 15:13:12.683
475, 20.637, 88.8185, 95.4498, 0, -0.000976562, -0.000976562, 9.88379, -0.112305, -0.15332, 11.29.2021 15:13:12.691
476, 20.637, 88.8185, 95.4498, 0, 0, 0, 9.88477, -0.0683594, -0.18457, 11.29.2021 15:13:12.699
477, 20.779, 89.029, 95.4638, 0, 0, 0, 9.87305, -0.0253906, -0.183594, 11.29.2021 15:13:12.707
478, 21.0586, 88.821, 95.8729, -0.000976562, 0, 0, 9.8916, -0.0253906, -0.185547, 11.29.2021 15:13:12.715
479, 21.0586, 88.821, 95.8729, -0.000976562, -0.000976562, -0.000976562, 9.89062, -0.0205078, -0.102539, 11.29.2021 15:13:12.723
480, 20.9853, 88.6848, 95.8933, 0, -0.000976562, -0.000976562, 9.89453, -0.0556641, -0.210938, 11.29.2021 15:13:12.731
481, 20.7988, 88.825, 95.6161, 0, 0, 0, 9.86328, -0.0693359, -0.21582, 11.29.2021 15:13:12.739
482, 20.7988, 88.825, 95.6161, 0, -0.000976562, -0.000976562, 9.8877, -0.102539, -0.171875, 11.29.2021 15:13:12.747
483, 20.9424, 89.0369, 95.6308, 0, 0.000976562, 0, 9.875, -0.0927734, -0.230469, 11.29.2021 15:13:12.755
484, 20.9424, 89.0369, 95.6308, -0.000976562, 0, 0, 9.86816, -0.102539, -0.235352, 11.29.2021 15:13:12.763
485, 20.9424, 89.0369, 95.6308, -0.000976562, 0, 0, 9.85059, -0.0810547, -0.242188, 11.29.2021 15:13:12.771
486, 20.8733, 88.9797, 95.5967, -0.000976562, 0, -0.000976562, 9.87012, -0.0585938, -0.246094, 11.29.2021 15:13:12.779
487, 21.0586, 88.821, 95.8729, 0, -0.000976562, 0, 9.87988, -0.0351562, -0.178711, 11.29.2021 15:13:12.787
488, 21.0586, 88.821, 95.8729, 0, 0, 0, 9.86816, -0.0361328, -0.155273, 11.29.2021 15:13:12.795
489, 21.0586, 88.821, 95.8729, 0, 0, -0.000976562, 9.87793, -0.0410156, -0.133789, 11.29.2021 15:13:12.803
490, 20.8733, 88.9797, 95.5967, 0, 0, -0.000976562, 9.89746, -0.0791016, -0.152344, 11.29.2021 15:13:12.811
491, 20.8733, 88.9797, 95.5967, 0, -0.000976562, -0.000976562, 9.85742, -0.141602, -0.151367, 11.29.2021 15:13:12.819
492, 20.8733, 88.9797, 95.5967, -0.000976562, -0.00195312, -0.00195312, 9.85449, -0.104492, -0.178711, 11.29.2021 15:13:12.827
493, 20.8733, 88.9797, 95.5967, -0.000976562, -0.00195312, -0.000976562, 9.8877, -0.118164, -0.206055, 11.29.2021 15:13:12.835
494, 21.0586, 88.821, 95.8729, -0.000976562, -0.000976562, 0, 9.8457, -0.0751953, -0.255859, 11.29.2021 15:13:12.843
495, 21.0586, 88.821, 95.8729, 0, -0.000976562, -0.000976562, 9.88477, -0.03125, -0.219727, 11.29.2021 15:13:12.851
496, 21.0586, 88.821, 95.8729, 0, -0.000976562, -0.000976562, 9.875, -0.0322266, -0.183594, 11.29.2021 15:13:12.859
497, 21.0586, 88.821, 95.8729, 0, -0.000976562, -0.000976562, 9.87793, -0.0205078, -0.183594, 11.29.2021 15:13:12.867
498, 21.0586, 88.821, 95.8729, -0.000976562, -0.000976562, -0.000976562, 9.88281, -0.0302734, -0.171875, 11.29.2021 15:13:12.875
499, 20.916, 88.6423, 95.8578, 0, -0.000976562, 0, 9.89551, -0.0644531, -0.141602, 11.29.2021 15:13:12.883
500, 21.0586, 88.821, 95.8729, -0.000976562, -0.000976562, -0.000976562, 9.86523, -0.0859375, -0.0849609, 11.29.2021 15:13:12.891
501, 20.8733, 88.9797, 95.5967, -0.000976562, 0, -0.000976562, 9.85449, -0.0869141, -0.132812, 11.29.2021 15:13:12.899
502, 20.8733, 88.9797, 95.5967, -0.000976562, 0, 0, 9.85156, -0.121094, -0.178711, 11.29.2021 15:13:12.907
503, 21.1552, 88.7799, 96.0084, -0.000976562, -0.000976562, -0.000976562, 9.84473, -0.113281, -0.147461, 11.29.2021 15:13:12.915
504, 21.2985, 88.9824, 96.0241, -0.000976562, -0.000976562, -0.000976562, 9.89062, -0.0849609, -0.125977, 11.29.2021 15:13:12.923
505, 21.2262, 88.8275, 96.0451, 0, -0.000976562, 0, 9.84668, -0.0576172, -0.165039, 11.29.2021 15:13:12.931
506, 21.5133, 88.6501, 96.4611, -0.000976562, 0, 0, 9.88672, -0.0244141, -0.209961, 11.29.2021 15:13:12.939
507, 21.3254, 88.7863, 96.1831, 0, -0.000976562, -0.000976562, 9.87598, -0.0195312, -0.144531, 11.29.2021 15:13:12.947
508, 21.4702, 88.9901, 96.1994, 0, -0.000976562, -0.000976562, 9.8877, -0.0478516, -0.150391, 11.29.2021 15:13:12.955
509, 21.398, 88.834, 96.2213, 0, -0.000976562, -0.000976562, 9.85156, -0.0771484, -0.146484, 11.29.2021 15:13:12.963
510, 21.2086, 88.9948, 95.9396, 0, -0.000976562, -0.000976562, 9.87012, -0.0830078, -0.249023, 11.29.2021 15:13:12.971
511, 21.2086, 88.9948, 95.9396, 0, -0.00195312, -0.000976562, 9.875, -0.112305, -0.236328, 11.29.2021 15:13:12.979
512, 21.2086, 88.9948, 95.9396, 0, -0.000976562, -0.000976562, 9.87305, -0.100586, -0.211914, 11.29.2021 15:13:12.987
513, 21.398, 88.834, 96.2213, 0, -0.000976562, -0.000976562, 9.85938, -0.107422, -0.175781, 11.29.2021 15:13:12.995
514, 21.398, 88.834, 96.2213, -0.000976562, 0, 0, 9.8457, -0.0458984, -0.228516, 11.29.2021 15:13:13.003
515, 21.4702, 88.9901, 96.1994, -0.000976562, 0, -0.000976562, 9.88965, -0.0488281, -0.186523, 11.29.2021 15:13:13.011
516, 21.4702, 88.9901, 96.1994, -0.000976562, -0.000976562, 0, 9.87109, -0.0517578, -0.176758, 11.29.2021 15:13:13.019
517, 21.4702, 88.9901, 96.1994, 0, -0.00195312, 0.000976562, 9.86719, -0.0712891, -0.103516, 11.29.2021 15:13:13.027
518, 21.4702, 88.9901, 96.1994, -0.000976562, -0.00195312, -0.000976562, 9.85938, -0.0966797, -0.123047, 11.29.2021 15:13:13.035
519, 21.7601, 88.7887, 96.6191, 0, -0.000976562, -0.000976562, 9.87988, -0.0869141, -0.19043, 11.29.2021 15:13:13.043
520, 21.7601, 88.7887, 96.6191, 0, -0.000976562, 0, 9.86816, -0.133789, -0.239258, 11.29.2021 15:13:13.051
521, 21.7601, 88.7887, 96.6191, 0, 0, -0.000976562, 9.86133, -0.120117, -0.212891, 11.29.2021 15:13:13.059
522, 21.9485, 88.6523, 96.8963, 0, 0, 0, 9.87695, -0.116211, -0.260742, 11.29.2021 15:13:13.067
523, 22.017, 88.7847, 96.8722, 0, 0, -0.00195312, 9.87207, -0.0878906, -0.237305, 11.29.2021 15:13:13.075
524, 22.2034, 88.6488, 97.1465, 0, -0.000976562, -0.00195312, 9.9082, -0.0537109, -0.263672, 11.29.2021 15:13:13.083
525, 21.9813, 88.9807, 96.7074, 0, 0, 0, 9.88477, -0.0410156, -0.198242, 11.29.2021 15:13:13.091
526, 21.9813, 88.9807, 96.7074, 0, 0, 0, 9.90527, -0.0576172, -0.132812, 11.29.2021 15:13:13.099
527, 21.9813, 88.9807, 96.7074, -0.000976562, 0, -0.000976562, 9.88867, -0.0634766, -0.120117, 11.29.2021 15:13:13.107
528, 21.9813, 88.9807, 96.7074, -0.000976562, -0.000976562, -0.00195312, 9.875, -0.046875, -0.174805, 11.29.2021 15:13:13.115
529, 21.9813, 88.9807, 96.7074, -0.000976562, -0.000976562, -0.000976562, 9.87109, -0.0908203, -0.152344, 11.29.2021 15:13:13.123
530, 22.1655, 88.8218, 96.9796, 0.000976562, -0.000976562, 0, 9.8584, -0.107422, -0.22168, 11.29.2021 15:13:13.131
531, 22.2312, 88.9759, 96.9556, -0.000976562, 0, 0, 9.8584, -0.115234, -0.226562, 11.29.2021 15:13:13.139
532, 22.0903, 88.7744, 96.9377, -0.000976562, -0.000976562, -0.000976562, 9.88379, -0.0439453, -0.274414, 11.29.2021 15:13:13.147
533, 22.2731, 88.6394, 97.2064, 0, -0.000976562, 0, 9.88281, -0.0849609, -0.335938, 11.29.2021 15:13:13.155
534, 22.0544, 88.9683, 96.7751, 0.000976562, -0.000976562, 0, 9.86523, -0.0507812, -0.22168, 11.29.2021 15:13:13.163
535, 21.915, 88.7681, 96.7579, -0.000976562, -0.00195312, 0, 9.86816, -0.0351562, -0.166992, 11.29.2021 15:13:13.171
536, 21.8154, 88.8086, 96.621, 0, -0.000976562, -0.000976562, 9.91211, -0.0585938, -0.118164, 11.29.2021 15:13:13.179
537, 21.8817, 88.9607, 96.5987, 0, -0.000976562, 0, 9.89258, -0.0566406, -0.161133, 11.29.2021 15:13:13.187
538, 21.7437, 88.7617, 96.5822, -0.000976562, 0, 0, 9.87109, -0.0976562, -0.166992, 11.29.2021 15:13:13.195
539, 21.7437, 88.7617, 96.5822, 0, -0.000976562, 0, 9.88672, -0.133789, -0.101562, 11.29.2021 15:13:13.203
540, 21.8817, 88.9607, 96.5987, 0, -0.000976562, 0, 9.87109, -0.0898438, -0.130859, 11.29.2021 15:13:13.211
541, 21.8817, 88.9607, 96.5987, -0.000976562, -0.000976562, -0.000976562, 9.88477, -0.120117, -0.201172, 11.29.2021 15:13:13.219
542, 22.1608, 88.7639, 97.0004, 0, -0.000976562, 0, 9.87793, -0.0830078, -0.173828, 11.29.2021 15:13:13.227
543, 22.1608, 88.7639, 97.0004, 0, -0.00195312, 0, 9.87598, -0.0556641, -0.136719, 11.29.2021 15:13:13.235
544, 22.299, 88.9633, 97.0181, -0.000976562, -0.000976562, -0.000976562, 9.89062, -0.03125, -0.0810547, 11.29.2021 15:13:13.243
545, 22.3377, 88.7704, 97.1818, 0.000976562, -0.000976562, 0, 9.875, -0.0400391, -0.0361328, 11.29.2021 15:13:13.251
546, 22.4773, 88.9711, 97.2002, -0.000976562, -0.000976562, 0, 9.86133, -0.0654297, -0.131836, 11.29.2021 15:13:13.259
547, 22.5188, 88.7768, 97.3673, -0.000976562, -0.000976562, -0.000976562, 9.86133, -0.0703125, -0.129883, 11.29.2021 15:13:13.267
548, 22.6599, 88.9786, 97.3863, -0.000976562, -0.000976562, -0.000976562, 9.90527, -0.112305, -0.146484, 11.29.2021 15:13:13.275
549, 22.951, 88.7791, 97.8006, -0.000976562, -0.000976562, -0.000976562, 9.8877, -0.0810547, -0.15918, 11.29.2021 15:13:13.283
550, 22.8468, 88.9861, 97.577, 0, -0.000976562, 0, 9.8916, -0.109375, -0.255859, 11.29.2021 15:13:13.291
551, 23.1425, 88.7853, 97.9965, 0.000976562, 0, 0, 9.8623, -0.0917969, -0.27832, 11.29.2021 15:13:13.299
552, 23.1425, 88.7853, 97.9965, 0, 0, -0.000976562, 9.88574, -0.0458984, -0.269531, 11.29.2021 15:13:13.307
553, 23.1425, 88.7853, 97.9965, -0.000976562, -0.000976562, 0, 9.86035, -0.0322266, -0.200195, 11.29.2021 15:13:13.315
554, 23.1425, 88.7853, 97.9965, -0.000976562, -0.00195312, -0.000976562, 9.88477, -0.0429688, -0.224609, 11.29.2021 15:13:13.323
555, 22.8468, 88.9861, 97.577, -0.000976562, -0.000976562, 0, 9.8584, -0.0576172, -0.226562, 11.29.2021 15:13:13.331
556, 22.7673, 88.9316, 97.5309, 0, -0.000976562, 0, 9.86914, -0.103516, -0.274414, 11.29.2021 15:13:13.339
557, 22.951, 88.7791, 97.8006, 0.000976562, -0.000976562, 0, 9.86816, -0.113281, -0.193359, 11.29.2021 15:13:13.347
558, 22.6599, 88.9786, 97.3863, 0, 0, -0.000976562, 9.875, -0.114258, -0.234375, 11.29.2021 15:13:13.355
559, 22.7224, 89.1609, 97.3609, 0, 0, -0.000976562, 9.85352, -0.125, -0.216797, 11.29.2021 15:13:13.363
560, 22.7641, 88.7728, 97.6092, 0, -0.000976562, 0, 9.85742, -0.0947266, -0.251953, 11.29.2021 15:13:13.371
561, 22.8254, 88.9199, 97.5833, -0.000976562, -0.000976562, -0.000976562, 9.89258, -0.0917969, -0.193359, 11.29.2021 15:13:13.379
562, 23.0055, 88.7687, 97.8475, 0, -0.000976562, 0, 9.8623, -0.0498047, -0.102539, 11.29.2021 15:13:13.387
563, 22.7197, 88.9664, 97.4412, 0.000976562, -0.00195312, 0, 9.87598, -0.0390625, -0.140625, 11.29.2021 15:13:13.395
564, 22.5814, 88.7665, 97.4223, 0.000976562, -0.000976562, -0.000976562, 9.86035, -0.0507812, -0.200195, 11.29.2021 15:13:13.403
565, 22.5814, 88.7665, 97.4223, 0, -0.000976562, 0, 9.86328, -0.0488281, -0.200195, 11.29.2021 15:13:13.411
566, 22.5814, 88.7665, 97.4223, -0.000976562, -0.000976562, 0, 9.84961, -0.0976562, -0.166016, 11.29.2021 15:13:13.419
567, 22.5814, 88.7665, 97.4223, 0, -0.000976562, -0.000976562, 9.88086, -0.107422, -0.160156, 11.29.2021 15:13:13.427
568, 22.6433, 88.9125, 97.3973, -0.00195312, -0.00195312, -0.000976562, 9.86328, -0.131836, -0.217773, 11.29.2021 15:13:13.435
569, 22.8215, 88.7624, 97.6592, -0.000976562, -0.000976562, -0.000976562, 9.8623, -0.0878906, -0.256836, 11.29.2021 15:13:13.443
570, 22.8215, 88.7624, 97.6592, 0.000976562, 0.000976562, 0, 9.86719, -0.0351562, -0.259766, 11.29.2021 15:13:13.451
571, 22.5399, 88.9586, 97.2575, 0, -0.000976562, 0, 9.89062, -0.0576172, -0.141602, 11.29.2021 15:13:13.459
572, 22.4029, 88.76, 97.2394, 0, 0.000976562, 0, 9.88965, -0.0195312, -0.137695, 11.29.2021 15:13:13.467
573, 22.4029, 88.76, 97.2394, 0, 0.000976562, -0.000976562, 9.87305, -0.0302734, -0.164062, 11.29.2021 15:13:13.475
574, 22.4029, 88.76, 97.2394, 0, -0.000976562, -0.000976562, 9.89746, -0.0693359, -0.164062, 11.29.2021 15:13:13.483
575, 22.2249, 88.9098, 96.9769, 0, 0.000976562, -0.000976562, 9.8877, -0.0429688, -0.155273, 11.29.2021 15:13:13.491
576, 22.2249, 88.9098, 96.9769, 0, -0.000976562, -0.000976562, 9.86133, -0.107422, -0.175781, 11.29.2021 15:13:13.499
577, 22.1608, 88.7639, 97.0004, -0.000976562, -0.000976562, -0.000976562, 9.85547, -0.0839844, -0.225586, 11.29.2021 15:13:13.507
578, 22.1608, 88.7639, 97.0004, -0.000976562, -0.00195312, 0, 9.88379, -0.0742188, -0.287109, 11.29.2021 15:13:13.515
579, 21.81, 88.9071, 96.5601, 0, -0.00195312, 0, 9.84863, -0.0546875, -0.229492, 11.29.2021 15:13:13.523
580, 21.81, 88.9071, 96.5601, 0, 0.000976562, 0, 9.88184, -0.0078125, -0.210938, 11.29.2021 15:13:13.531
581, 21.7437, 88.7617, 96.5822, -0.000976562, 0.00195312, -0.000976562, 9.84668, -0.0332031, -0.180664, 11.29.2021 15:13:13.539
582, 21.3302, 88.7592, 96.1675, -0.000976562, 0.00195312, -0.000976562, 9.88477, -0.03125, -0.209961, 11.29.2021 15:13:13.547
583, 21.3302, 88.7592, 96.1675, 0, 0.000976562, 0, 9.86133, -0.0585938, -0.188477, 11.29.2021 15:13:13.555
584, 21.151, 88.9091, 95.9011, 0.000976562, 0.000976562, 0.000976562, 9.86914, -0.0917969, -0.130859, 11.29.2021 15:13:13.563
585, 21.151, 88.9091, 95.9011, 0, 0.000976562, -0.000976562, 9.88672, -0.100586, -0.0878906, 11.29.2021 15:13:13.571
586, 21.0806, 88.7633, 95.921, 0, 0.000976562, -0.00195312, 9.89258, -0.119141, -0.179688, 11.29.2021 15:13:13.579
587, 21.0806, 88.7633, 95.921, 0, 0.000976562, -0.000976562, 9.89746, -0.0888672, -0.145508, 11.29.2021 15:13:13.587
588, 20.8998, 88.9136, 95.6517, 0, -0.000976562, -0.000976562, 9.85156, -0.0625, -0.141602, 11.29.2021 15:13:13.595
589, 21.175, 88.7242, 96.0534, -0.000976562, 0.000976562, 0, 9.87793, -0.0332031, -0.166992, 11.29.2021 15:13:13.603
590, 21.2445, 88.7696, 96.0894, 0, -0.000976562, -0.000976562, 9.88281, -0.0429688, -0.166992, 11.29.2021 15:13:13.611
591, 21.0617, 88.9208, 95.8177, 0, -0.00195312, 0, 9.88477, -0.0332031, -0.155273, 11.29.2021 15:13:13.619
592, 21.0617, 88.9208, 95.8177, -0.000976562, -0.000976562, -0.000976562, 9.89258, -0.0449219, -0.158203, 11.29.2021 15:13:13.627
593, 20.8049, 88.9253, 95.5629, 0, -0.000976562, -0.000976562, 9.85645, -0.0615234, -0.169922, 11.29.2021 15:13:13.635
594, 20.8049, 88.9253, 95.5629, 0, 0.000976562, -0.00195312, 9.86719, -0.0927734, -0.0996094, 11.29.2021 15:13:13.643
595, 21.1552, 88.7799, 96.0084, 0, 0.00195312, -0.000976562, 9.84375, -0.0605469, -0.214844, 11.29.2021 15:13:13.651
596, 20.9689, 88.9325, 95.7309, -0.000976562, 0.00195312, -0.000976562, 9.88184, -0.0820312, -0.211914, 11.29.2021 15:13:13.659
597, 20.9689, 88.9325, 95.7309, 0, 0.000976562, -0.000976562, 9.88281, -0.0751953, -0.182617, 11.29.2021 15:13:13.667
598, 20.8944, 88.7839, 95.7509, 0, 0.000976562, 0, 9.87695, -0.0410156, -0.214844, 11.29.2021 15:13:13.675
599, 20.7063, 88.9369, 95.4703, 0, 0.000976562, 0, 9.88672, -0.0332031, -0.224609, 11.29.2021 15:13:13.683
600, 20.7063, 88.9369, 95.4703, 0, -0.000976562, -0.000976562, 9.88184, -0.0390625, -0.257812, 11.29.2021 15:13:13.691
601, 20.7063, 88.9369, 95.4703, 0, 0.000976562, -0.000976562, 9.89941, -0.0439453, -0.198242, 11.29.2021 15:13:13.699
602, 20.2797, 88.9343, 95.0417, -0.000976562, -0.000976562, -0.000976562, 9.88477, -0.0419922, -0.174805, 11.29.2021 15:13:13.707
603, 20.2797, 88.9343, 95.0417, 0, -0.000976562, -0.000976562, 9.86133, -0.0839844, -0.154297, 11.29.2021 15:13:13.713
604, 20.2797, 88.9343, 95.0417, 0, -0.000976562, -0.000976562, 9.86328, -0.0732422, -0.182617, 11.29.2021 15:13:13.721
605, 20.2797, 88.9343, 95.0417, -0.000976562, -0.000976562, 0.000976562, 9.87305, -0.110352, -0.209961, 11.29.2021 15:13:13.729
606, 20.2797, 88.9343, 95.0417, 0, -0.000976562, 0, 9.88086, -0.0898438, -0.173828, 11.29.2021 15:13:13.737
607, 20.2797, 88.9343, 95.0417, -0.000976562, -0.000976562, 0, 9.86621, -0.0878906, -0.172852, 11.29.2021 15:13:13.745
608, 20.2797, 88.9343, 95.0417, 0, 0, 0, 9.87109, -0.0410156, -0.157227, 11.29.2021 15:13:13.753
609, 20.2797, 88.9343, 95.0417, -0.000976562, 0, -0.000976562, 9.87012, -0.0214844, -0.211914, 11.29.2021 15:13:13.761
610, 20.0914, 89.1129, 94.7585, 0, 0.000976562, 0, 9.9082, -0.0703125, -0.0546875, 11.29.2021 15:13:13.769
611, 20.011, 88.9387, 94.7752, -0.000976562, -0.000976562, -0.000976562, 9.91016, -0.0292969, -0.0576172, 11.29.2021 15:13:13.777
612, 20.293, 88.7454, 95.192, 0, -0.000976562, -0.000976562, 9.90234, -0.0673828, -0.134766, 11.29.2021 15:13:13.785
613, 20.1687, 88.9457, 94.9373, -0.000976562, -0.000976562, 0, 9.92871, -0.0673828, -0.132812, 11.29.2021 15:13:13.793
614, 20.1687, 88.9457, 94.9373, 0, -0.000976562, -0.000976562, 9.88086, -0.0878906, -0.15918, 11.29.2021 15:13:13.801
615, 20.4552, 88.7515, 95.3596, 0, -0.00195312, -0.000976562, 9.89746, -0.135742, -0.166016, 11.29.2021 15:13:13.809
616, 20.4109, 89.13, 95.0849, -0.000976562, -0.000976562, -0.000976562, 9.89258, -0.0878906, -0.180664, 11.29.2021 15:13:13.817
617, 20.7005, 88.9028, 95.511, -0.000976562, -0.000976562, -0.000976562, 9.87988, -0.0712891, -0.239258, 11.29.2021 15:13:13.825
618, 20.7005, 88.9028, 95.511, -0.000976562, 0, 0, 9.87695, -0.0888672, -0.22168, 11.29.2021 15:13:13.833
619, 20.7005, 88.9028, 95.511, 0, -0.000976562, -0.000976562, 9.87109, -0.0458984, -0.143555, 11.29.2021 15:13:13.841
620, 20.7005, 88.9028, 95.511, 0, -0.000976562, -0.000976562, 9.87305, -0.0351562, -0.176758, 11.29.2021 15:13:13.849
621, 20.8494, 89.1336, 95.526, 0, -0.00195312, 0, 9.9043, -0.0625, -0.146484, 11.29.2021 15:13:13.857
622, 20.8494, 89.1336, 95.526, -0.000976562, -0.000976562, 0, 9.88281, -0.0927734, -0.170898, 11.29.2021 15:13:13.865
623, 21.143, 88.9053, 95.9551, 0, -0.000976562, -0.000976562, 9.86328, -0.109375, -0.238281, 11.29.2021 15:13:13.873
624, 21.143, 88.9053, 95.9551, -0.000976562, -0.000976562, -0.000976562, 9.86816, -0.110352, -0.209961, 11.29.2021 15:13:13.881
625, 21.3366, 88.7562, 96.2426, 0, -0.000976562, -0.000976562, 9.9082, -0.124023, -0.239258, 11.29.2021 15:13:13.889
626, 21.4107, 88.9012, 96.2201, 0, 0, -0.000976562, 9.87012, -0.0947266, -0.245117, 11.29.2021 15:13:13.897
627, 21.4107, 88.9012, 96.2201, -0.000976562, -0.000976562, 0, 9.85352, -0.0839844, -0.232422, 11.29.2021 15:13:13.905
628, 21.6741, 88.897, 96.481, 0, -0.00195312, -0.000976562, 9.86523, -0.0253906, -0.175781, 11.29.2021 15:13:13.916
629, 21.3822, 89.1228, 96.0574, 0, -0.000976562, 0, 9.87793, -0.0615234, -0.161133, 11.29.2021 15:13:13.921
630, 21.2361, 88.8943, 96.0413, 0, 0, 0, 9.88477, -0.0166016, -0.154297, 11.29.2021 15:13:13.929
631, 21.4257, 88.7463, 96.3226, 0, -0.000976562, -0.000976562, 9.88086, -0.0683594, -0.172852, 11.29.2021 15:13:13.937
632, 21.4257, 88.7463, 96.3226, 0, -0.000976562, 0, 9.8877, -0.0996094, -0.178711, 11.29.2021 15:13:13.945
633, 21.4977, 88.8901, 96.3003, 0, -0.000976562, 0, 9.86133, -0.0908203, -0.172852, 11.29.2021 15:13:13.953
634, 21.4977, 88.8901, 96.3003, 0, -0.00195312, -0.000976562, 9.8584, -0.123047, -0.212891, 11.29.2021 15:13:13.961
635, 21.6855, 88.7426, 96.5785, 0.000976562, -0.000976562, 0, 9.875, -0.117188, -0.224609, 11.29.2021 15:13:13.969
636, 21.7555, 88.8858, 96.5555, 0, -0.00195312, -0.000976562, 9.85059, -0.0673828, -0.210938, 11.29.2021 15:13:13.977
637, 21.7555, 88.8858, 96.5555, 0, -0.000976562, -0.000976562, 9.86133, -0.0478516, -0.162109, 11.29.2021 15:13:13.985
638, 21.7555, 88.8858, 96.5555, 0, -0.000976562, -0.000976562, 9.88477, -0.00390625, -0.1875, 11.29.2021 15:13:13.993
639, 21.7555, 88.8858, 96.5555, -0.000976562, -0.000976562, -0.00195312, 9.9043, -0.0585938, -0.170898, 11.29.2021 15:13:14.001
640, 21.4688, 89.1087, 96.14, -0.00195312, 0, -0.000976562, 9.8584, -0.0869141, -0.21875, 11.29.2021 15:13:14.009
641, 21.5113, 88.7365, 96.3995, -0.000976562, -0.00195312, -0.00195312, 9.88477, -0.0898438, -0.192383, 11.29.2021 15:13:14.017
642, 21.5814, 88.8788, 96.3774, 0, -0.000976562, -0.000976562, 9.85156, -0.134766, -0.219727, 11.29.2021 15:13:14.025
643, 21.5814, 88.8788, 96.3774, -0.000976562, 0, -0.000976562, 9.87891, -0.125, -0.143555, 11.29.2021 15:13:14.033
644, 21.5814, 88.8788, 96.3774, 0, 0, 0, 9.88184, -0.0791016, -0.21582, 11.29.2021 15:13:14.041
645, 21.8334, 88.8745, 96.6269, 0, -0.000976562, -0.000976562, 9.875, -0.0957031, -0.226562, 11.29.2021 15:13:14.049
646, 21.8334, 88.8745, 96.6269, 0, 0, 0, 9.86133, -0.0371094, -0.130859, 11.29.2021 15:13:14.057
647, 21.8334, 88.8745, 96.6269, 0, 0.000976562, -0.000976562, 9.83203, -0.0498047, -0.162109, 11.29.2021 15:13:14.065
648, 21.8334, 88.8745, 96.6269, 0, -0.000976562, -0.000976562, 9.89062, -0.0585938, -0.129883, 11.29.2021 15:13:14.073
649, 21.974, 89.098, 96.644, 0.000976562, -0.000976562, -0.000976562, 9.9043, -0.0810547, -0.168945, 11.29.2021 15:13:14.081
650, 22.2593, 88.8771, 97.0543, 0.000976562, -0.000976562, 0, 9.87598, -0.0869141, -0.121094, 11.29.2021 15:13:14.089
651, 22.2593, 88.8771, 97.0543, 0, -0.00195312, 0, 9.87402, -0.115234, -0.150391, 11.29.2021 15:13:14.097
652, 22.2593, 88.8771, 97.0543, 0, 0, 0, 9.88672, -0.0976562, -0.233398, 11.29.2021 15:13:14.105
653, 22.2593, 88.8771, 97.0543, 0, -0.000976562, 0, 9.88184, -0.114258, -0.246094, 11.29.2021 15:13:14.113
654, 22.4419, 88.7311, 97.3231, 0, -0.00195312, -0.000976562, 9.85547, -0.108398, -0.276367, 11.29.2021 15:13:14.121
655, 22.5054, 88.8727, 97.2981, -0.000976562, -0.000976562, 0, 9.87988, -0.0625, -0.206055, 11.29.2021 15:13:14.129
656, 22.5054, 88.8727, 97.2981, 0, -0.000976562, 0.000976562, 9.89648, -0.0390625, -0.198242, 11.29.2021 15:13:14.137
657, 22.6863, 88.7273, 97.564, 0, 0, 0, 9.88281, -0.0878906, -0.173828, 11.29.2021 15:13:14.145
658, 22.6863, 88.7273, 97.564, 0, 0.000976562, -0.000976562, 9.87305, -0.0566406, -0.163086, 11.29.2021 15:13:14.153
659, 22.7479, 88.8684, 97.5383, -0.000976562, 0, -0.000976562, 9.87598, -0.107422, -0.160156, 11.29.2021 15:13:14.161
660, 22.7479, 88.8684, 97.5383, 0, -0.000976562, -0.000976562, 9.87402, -0.113281, -0.124023, 11.29.2021 15:13:14.169
661, 23.1731, 88.8708, 97.9651, 0, -0.000976562, -0.000976562, 9.85254, -0.15332, -0.141602, 11.29.2021 15:13:14.177
662, 23.1731, 88.8708, 97.9651, 0, -0.000976562, -0.000976562, 9.85352, -0.124023, -0.243164, 11.29.2021 15:13:14.185
663, 23.3525, 88.7256, 98.2275, 0, -0.000976562, 0, 9.86523, -0.116211, -0.248047, 11.29.2021 15:13:14.193
664, 23.4099, 88.8665, 98.1997, 0, -0.00195312, -0.000976562, 9.87012, -0.0576172, -0.231445, 11.29.2021 15:13:14.201
665, 23.5877, 88.7216, 98.459, -0.000976562, -0.00195312, -0.000976562, 9.89062, -0.015625, -0.25, 11.29.2021 15:13:14.209
666, 23.5877, 88.7216, 98.459, 0, -0.000976562, -0.000976562, 9.87109, -0.0244141, -0.271484, 11.29.2021 15:13:14.217
667, 23.2223, 88.8595, 98.0081, -0.000976562, 0, 0, 9.87695, -0.0498047, -0.239258, 11.29.2021 15:13:14.225
668, 23.2223, 88.8595, 98.0081, 0, -0.000976562, 0, 9.875, -0.0419922, -0.178711, 11.29.2021 15:13:14.233
669, 23.2223, 88.8595, 98.0081, -0.000976562, -0.000976562, 0, 9.90918, -0.102539, -0.165039, 11.29.2021 15:13:14.241
670, 22.9808, 88.7131, 97.8468, -0.000976562, -0.000976562, 0, 9.90039, -0.0976562, -0.160156, 11.29.2021 15:13:14.249
671, 23.039, 88.8524, 97.8209, -0.000976562, -0.000976562, 0, 9.89258, -0.102539, -0.160156, 11.29.2021 15:13:14.257
672, 23.039, 88.8524, 97.8209, -0.000976562, 0, 0, 9.89941, -0.0878906, -0.183594, 11.29.2021 15:13:14.265
673, 23.039, 88.8524, 97.8209, 0, -0.000976562, -0.000976562, 9.85645, -0.0771484, -0.206055, 11.29.2021 15:13:14.273
674, 23.039, 88.8524, 97.8209, -0.000976562, -0.000976562, -0.000976562, 9.87793, -0.0654297, -0.189453, 11.29.2021 15:13:14.281
675, 23.039, 88.8524, 97.8209, 0, -0.000976562, 0, 9.88672, -0.0273438, -0.180664, 11.29.2021 15:13:14.289
676, 23.039, 88.8524, 97.8209, 0, -0.000976562, 0, 9.86816, -0.0214844, -0.166016, 11.29.2021 15:13:14.297
677, 22.9043, 88.6695, 97.8017, -0.000976562, -0.00195312, -0.000976562, 9.89941, -0.0283203, -0.166992, 11.29.2021 15:13:14.305
678, 22.7292, 88.8081, 97.5452, 0, -0.000976562, -0.000976562, 9.90625, -0.0615234, -0.175781, 11.29.2021 15:13:14.313
679, 22.669, 88.6734, 97.5703, 0, -0.000976562, -0.000976562, 9.90234, -0.0712891, -0.166016, 11.29.2021 15:13:14.321
680, 22.3909, 88.8543, 97.1734, -0.000976562, -0.000976562, -0.000976562, 9.88965, -0.108398, -0.196289, 11.29.2021 15:13:14.329
681, 22.3909, 88.8543, 97.1734, -0.000976562, 0, -0.000976562, 9.88477, -0.0820312, -0.19043, 11.29.2021 15:13:14.337
682, 22.4923, 88.8124, 97.3111, 0, 0, -0.000976562, 9.8877, -0.0742188, -0.15918, 11.29.2021 15:13:14.345
683, 22.4923, 88.8124, 97.3111, 0, -0.000976562, -0.000976562, 9.87793, -0.0634766, -0.182617, 11.29.2021 15:13:14.353
684, 22.4303, 88.6772, 97.3355, 0, 0, 0, 9.89258, -0.0644531, -0.146484, 11.29.2021 15:13:14.361
685, 22.2521, 88.8167, 97.0734, 0.000976562, 0, 0, 9.86621, -0.0322266, -0.130859, 11.29.2021 15:13:14.369
686, 22.1881, 88.6809, 97.0972, -0.000976562, -0.000976562, 0, 9.87402, -0.0361328, -0.0859375, 11.29.2021 15:13:14.377
687, 22.1469, 89.0319, 96.8495, 0, -0.00195312, 0.000976562, 9.90234, -0.0517578, -0.105469, 11.29.2021 15:13:14.385
688, 22.4293, 88.8233, 97.2548, -0.000976562, -0.00195312, 0, 9.87598, -0.0878906, -0.164062, 11.29.2021 15:13:14.393
689, 22.1838, 88.8275, 97.0121, -0.000976562, -0.00195312, 0, 9.90625, -0.0751953, -0.202148, 11.29.2021 15:13:14.401
690, 22.1838, 88.8275, 97.0121, -0.000976562, 0, -0.000976562, 9.88379, -0.0917969, -0.269531, 11.29.2021 15:13:14.409
691, 22.1838, 88.8275, 97.0121, 0, 0.000976562, -0.000976562, 9.86426, -0.112305, -0.314453, 11.29.2021 15:13:14.417
692, 22.1838, 88.8275, 97.0121, 0, -0.000976562, 0, 9.85352, -0.0664062, -0.239258, 11.29.2021 15:13:14.425
693, 22.1838, 88.8275, 97.0121, -0.000976562, -0.000976562, 0, 9.86719, -0.0751953, -0.251953, 11.29.2021 15:13:14.433
694, 21.7606, 88.825, 96.5874, -0.000976562, -0.000976562, 0, 9.88379, -0.0126953, -0.273438, 11.29.2021 15:13:14.441
695, 21.7606, 88.825, 96.5874, -0.000976562, -0.000976562, 0, 9.88477, -0.0351562, -0.178711, 11.29.2021 15:13:14.449
696, 21.7606, 88.825, 96.5874, 0, 0, 0, 9.88086, -0.0546875, -0.151367, 11.29.2021 15:13:14.457
697, 21.341, 88.8225, 96.1663, 0, 0, 0, 9.9248, -0.0449219, -0.09375, 11.29.2021 15:13:14.465
698, 21.341, 88.8225, 96.1663, -0.000976562, -0.000976562, -0.000976562, 9.8877, -0.0732422, -0.166016, 11.29.2021 15:13:14.473
699, 21.341, 88.8225, 96.1663, -0.000976562, -0.00195312, -0.000976562, 9.875, -0.0839844, -0.230469, 11.29.2021 15:13:14.481
700, 21.341, 88.8225, 96.1663, -0.000976562, -0.000976562, -0.000976562, 9.85547, -0.104492, -0.238281, 11.29.2021 15:13:14.489
701, 21.201, 88.6438, 96.1507, -0.000976562, -0.000976562, 0, 9.87012, -0.0859375, -0.235352, 11.29.2021 15:13:14.497
702, 20.9252, 88.82, 95.7489, 0, -0.000976562, 0, 9.87695, -0.0664062, -0.249023, 11.29.2021 15:13:14.505
703, 20.9252, 88.82, 95.7489, -0.000976562, -0.000976562, 0, 9.89648, -0.0478516, -0.219727, 11.29.2021 15:13:14.513
704, 20.7855, 88.6414, 95.7344, -0.000976562, 0, 0, 9.9043, -0.0234375, -0.171875, 11.29.2021 15:13:14.521
705, 20.5132, 88.8173, 95.3352, -0.000976562, 0, 0, 9.88281, -0.0361328, -0.138672, 11.29.2021 15:13:14.529
706, 20.5132, 88.8173, 95.3352, 0, 0, -0.000976562, 9.90723, -0.0517578, -0.0986328, 11.29.2021 15:13:14.537
707, 20.332, 88.9755, 95.0639, 0, 0.000976562, 0, 9.87891, -0.135742, -0.163086, 11.29.2021 15:13:14.545
708, 20.6037, 88.7767, 95.4641, 0, -0.000976562, -0.000976562, 9.89844, -0.158203, -0.140625, 11.29.2021 15:13:14.553
709, 20.7438, 88.9786, 95.478, 0, -0.000976562, 0, 9.87305, -0.125977, -0.174805, 11.29.2021 15:13:14.561
710, 20.9252, 88.82, 95.7489, 0, -0.000976562, 0, 9.88867, -0.143555, -0.151367, 11.29.2021 15:13:14.569
711, 21.201, 88.6438, 96.1507, -0.000976562, 0, -0.000976562, 9.87305, -0.0703125, -0.196289, 11.29.2021 15:13:14.577
712, 21.341, 88.8225, 96.1663, 0, -0.000976562, -0.000976562, 9.90137, -0.0605469, -0.1875, 11.29.2021 15:13:14.585
713, 21.341, 88.8225, 96.1663, 0, -0.00195312, -0.000976562, 9.87207, -0.015625, -0.25, 11.29.2021 15:13:14.593
714, 21.341, 88.8225, 96.1663, 0, -0.00195312, -0.000976562, 9.88184, -0.0410156, -0.209961, 11.29.2021 15:13:14.601
715, 21.341, 88.8225, 96.1663, 0.000976562, -0.000976562, 0, 9.8584, -0.0712891, -0.172852, 11.29.2021 15:13:14.609
716, 21.341, 88.8225, 96.1663, 0, -0.000976562, 0, 9.86914, -0.0654297, -0.282227, 11.29.2021 15:13:14.617
717, 20.9968, 88.974, 95.7295, 0, -0.000976562, 0, 9.87402, -0.0859375, -0.304688, 11.29.2021 15:13:14.625
718, 21.1767, 88.8158, 95.9975, -0.000976562, -0.000976562, 0, 9.86719, -0.0898438, -0.251953, 11.29.2021 15:13:14.633
719, 21.1767, 88.8158, 95.9975, -0.000976562, -0.000976562, 0, 9.87695, -0.0830078, -0.235352, 11.29.2021 15:13:14.641
720, 20.838, 88.966, 95.5671, 0, 0, 0, 9.86719, -0.0664062, -0.239258, 11.29.2021 15:13:14.649
721, 21.016, 88.8091, 95.8326, 0, -0.000976562, 0, 9.8916, -0.0439453, -0.186523, 11.29.2021 15:13:14.657
722, 20.8789, 88.632, 95.8182, 0, 0, 0, 9.88281, -0.0263672, -0.15918, 11.29.2021 15:13:14.665
723, 20.6111, 88.8065, 95.4261, -0.000976562, 0, 0, 9.87598, -0.0556641, -0.125, 11.29.2021 15:13:14.673
724, 20.6111, 88.8065, 95.4261, -0.000976562, -0.000976562, -0.000976562, 9.85449, -0.0429688, -0.0996094, 11.29.2021 15:13:14.681
725, 20.6111, 88.8065, 95.4261, -0.000976562, -0.00195312, 0, 9.90039, -0.0859375, -0.0908203, 11.29.2021 15:13:14.689
726, 20.7006, 88.7662, 95.5532, -0.000976562, -0.00195312, 0, 9.87207, -0.103516, -0.124023, 11.29.2021 15:13:14.697
727, 20.838, 88.966, 95.5671, 0, -0.00195312, -0.000976562, 9.87891, -0.0888672, -0.147461, 11.29.2021 15:13:14.705
728, 20.7664, 88.8132, 95.5857, -0.000976562, -0.00195312, 0, 9.87305, -0.104492, -0.171875, 11.29.2021 15:13:14.713
729, 21.0381, 88.6379, 95.9825, 0, -0.000976562, -0.000976562, 9.87891, -0.114258, -0.160156, 11.29.2021 15:13:14.721
730, 21.1767, 88.8158, 95.9975, -0.00195312, -0.000976562, -0.000976562, 9.87012, -0.0595703, -0.219727, 11.29.2021 15:13:14.729
731, 20.9968, 88.974, 95.7295, -0.000976562, 0.000976562, -0.00195312, 9.85742, -0.00878906, -0.237305, 11.29.2021 15:13:14.737
732, 20.9968, 88.974, 95.7295, 0, 0.000976562, -0.00195312, 9.87207, -0.0449219, -0.229492, 11.29.2021 15:13:14.745
733, 20.9968, 88.974, 95.7295, 0, 0.000976562, -0.000976562, 9.87305, -0.0351562, -0.166992, 11.29.2021 15:13:14.753
734, 20.9252, 88.82, 95.7489, 0, -0.000976562, 0, 9.87598, -0.0888672, -0.137695, 11.29.2021 15:13:14.761
735, 20.9252, 88.82, 95.7489, 0, -0.000976562, -0.000976562, 9.86035, -0.0839844, -0.21582, 11.29.2021 15:13:14.769
736, 20.7438, 88.9786, 95.478, -0.000976562, -0.000976562, 0, 9.87305, -0.0771484, -0.204102, 11.29.2021 15:13:14.777
737, 20.7438, 88.9786, 95.478, 0, 0.000976562, 0, 9.87793, -0.116211, -0.179688, 11.29.2021 15:13:14.785
738, 20.7438, 88.9786, 95.478, 0, -0.000976562, -0.000976562, 9.86523, -0.0761719, -0.227539, 11.29.2021 15:13:14.793
739, 20.9252, 88.82, 95.7489, -0.000976562, -0.000976562, 0, 9.92676, -0.116211, -0.318359, 11.29.2021 15:13:14.801
740, 20.9968, 88.974, 95.7295, -0.000976562, -0.000976562, 0, 9.84961, -0.0537109, -0.279297, 11.29.2021 15:13:14.809
741, 20.8579, 88.7728, 95.7151, -0.000976562, -0.00195312, -0.000976562, 9.88574, -0.0292969, -0.28125, 11.29.2021 15:13:14.817
742, 20.7664, 88.8132, 95.5857, 0, 0.000976562, 0, 9.8457, -0.0517578, -0.25, 11.29.2021 15:13:14.825
743, 20.7006, 88.7662, 95.5532, 0.000976562, 0.000976562, 0, 9.88867, -0.0498047, -0.224609, 11.29.2021 15:13:14.833
744, 20.4335, 88.963, 95.1602, 0, 0.000976562, 0, 9.8418, -0.0859375, -0.177734, 11.29.2021 15:13:14.841
745, 20.4742, 88.6297, 95.4128, 0, -0.000976562, 0, 9.89648, -0.0771484, -0.216797, 11.29.2021 15:13:14.847
746, 20.5467, 88.7595, 95.395, -0.000976562, 0.000976562, 0, 9.87305, -0.119141, -0.176758, 11.29.2021 15:13:14.855
747, 20.2836, 88.9551, 95.0066, -0.000976562, 0.000976562, -0.000976562, 9.87988, -0.0820312, -0.21582, 11.29.2021 15:13:14.863
748, 20.2836, 88.9551, 95.0066, 0, -0.00195312, 0, 9.88574, -0.0761719, -0.15918, 11.29.2021 15:13:14.871
749, 20.324, 88.6237, 95.257, 0, -0.00195312, 0, 9.88574, -0.0820312, -0.142578, 11.29.2021 15:13:14.879
750, 20.3965, 88.7529, 95.24, 0, -0.00195312, -0.000976562, 9.9082, -0.0390625, -0.193359, 11.29.2021 15:13:14.887
751, 20.3965, 88.7529, 95.24, 0, -0.00195312, 0.000976562, 9.87305, -0.0625, -0.15332, 11.29.2021 15:13:14.895
752, 20.3965, 88.7529, 95.24, -0.000976562, -0.00195312, 0, 9.88965, -0.0498047, -0.160156, 11.29.2021 15:13:14.903
753, 20.3965, 88.7529, 95.24, 0, -0.00195312, 0, 9.89551, -0.0800781, -0.123047, 11.29.2021 15:13:14.911
754, 20.4594, 88.7996, 95.2699, -0.000976562, -0.000976562, 0, 9.88379, -0.0996094, -0.124023, 11.29.2021 15:13:14.919
755, 20.2836, 88.9551, 95.0066, -0.000976562, 0.000976562, -0.000976562, 9.88477, -0.0751953, -0.189453, 11.29.2021 15:13:14.927
756, 20.5467, 88.7595, 95.395, -0.000976562, 0.000976562, -0.000976562, 9.84473, -0.135742, -0.193359, 11.29.2021 15:13:14.935
757, 20.5467, 88.7595, 95.395, 0, 0.000976562, 0, 9.8584, -0.101562, -0.1875, 11.29.2021 15:13:14.943
758, 20.9493, 88.762, 95.799, -0.000976562, -0.000976562, -0.000976562, 9.83691, -0.0830078, -0.186523, 11.29.2021 15:13:14.951
759, 20.9493, 88.762, 95.799, 0, 0.000976562, -0.000976562, 9.87305, -0.0751953, -0.204102, 11.29.2021 15:13:14.959
760, 20.9493, 88.762, 95.799, -0.000976562, 0.000976562, 0, 9.86426, -0.0302734, -0.111328, 11.29.2021 15:13:14.967
761, 21.3555, 88.7646, 96.2065, 0.000976562, -0.000976562, -0.000976562, 9.88379, -0.0458984, -0.0556641, 11.29.2021 15:13:14.975
762, 21.1085, 88.7687, 95.9626, 0, -0.000976562, 0, 9.86328, -0.0527344, -0.158203, 11.29.2021 15:13:14.983
763, 21.2462, 88.969, 95.9775, 0, -0.00195312, 0, 9.89941, -0.0664062, -0.175781, 11.29.2021 15:13:14.991
764, 21.52, 88.7712, 96.3755, 0, -0.00195312, -0.000976562, 9.87305, -0.112305, -0.216797, 11.29.2021 15:13:14.999
765, 21.52, 88.7712, 96.3755, -0.000976562, -0.00195312, 0.000976562, 9.89746, -0.0966797, -0.188477, 11.29.2021 15:13:15.007
766, 21.6579, 88.9719, 96.3915, -0.000976562, 0, 0, 9.85352, -0.102539, -0.230469, 11.29.2021 15:13:15.015
767, 21.9352, 88.7736, 96.792, 0, -0.00195312, 0, 9.8623, -0.09375, -0.285156, 11.29.2021 15:13:15.023
768, 21.9352, 88.7736, 96.792, 0, -0.000976562, -0.000976562, 9.87012, -0.0625, -0.212891, 11.29.2021 15:13:15.031
769, 21.9352, 88.7736, 96.792, 0, 0, -0.000976562, 9.86523, -0.0371094, -0.185547, 11.29.2021 15:13:15.039
770, 21.9352, 88.7736, 96.792, -0.000976562, 0, -0.000976562, 9.89062, -0.0244141, -0.130859, 11.29.2021 15:13:15.047
771, 21.8692, 88.6423, 96.8149, 0.000976562, -0.000976562, -0.000976562, 9.86133, -0.0332031, -0.168945, 11.29.2021 15:13:15.055
772, 21.6885, 88.7776, 96.5484, 0, -0.000976562, -0.00195312, 9.88281, -0.0878906, -0.164062, 11.29.2021 15:13:15.063
773, 21.6885, 88.7776, 96.5484, -0.000976562, -0.000976562, 0, 9.89258, -0.0751953, -0.130859, 11.29.2021 15:13:15.071
774, 21.6885, 88.7776, 96.5484, -0.000976562, -0.000976562, 0, 9.8877, -0.109375, -0.160156, 11.29.2021 15:13:15.079
775, 21.6885, 88.7776, 96.5484, 0, -0.000976562, -0.000976562, 9.8457, -0.119141, -0.248047, 11.29.2021 15:13:15.087
776, 21.6885, 88.7776, 96.5484, 0, -0.000976562, -0.000976562, 9.86719, -0.0898438, -0.263672, 11.29.2021 15:13:15.095
777, 21.6885, 88.7776, 96.5484, 0, -0.000976562, 0, 9.87695, -0.111328, -0.254883, 11.29.2021 15:13:15.103
778, 21.6885, 88.7776, 96.5484, 0, -0.000976562, 0, 9.88867, -0.0429688, -0.279297, 11.29.2021 15:13:15.111
779, 21.9352, 88.7736, 96.792, 0, 0, -0.000976562, 9.89062, -0.0263672, -0.292969, 11.29.2021 15:13:15.119
780, 21.52, 88.7712, 96.3755, -0.000976562, 0.000976562, -0.00195312, 9.87207, -0.0361328, -0.219727, 11.29.2021 15:13:15.127
781, 21.52, 88.7712, 96.3755, 0, 0, -0.000976562, 9.87988, -0.0410156, -0.203125, 11.29.2021 15:13:15.135
782, 21.2462, 88.969, 95.9775, 0, 0, 0, 9.86914, -0.103516, -0.147461, 11.29.2021 15:13:15.143
783, 21.1085, 88.7687, 95.9626, 0, 0, -0.000976562, 9.8877, -0.0878906, -0.15918, 11.29.2021 15:13:15.151
784, 21.178, 88.9152, 95.9427, 0, 0, -0.000976562, 9.875, -0.123047, -0.209961, 11.29.2021 15:13:15.159
785, 21.3555, 88.7646, 96.2065, 0, 0, -0.000976562, 9.85645, -0.105469, -0.209961, 11.29.2021 15:13:15.167
786, 21.3555, 88.7646, 96.2065, 0, -0.00195312, -0.000976562, 9.87402, -0.0517578, -0.248047, 11.29.2021 15:13:15.175
787, 20.9493, 88.762, 95.799, 0, -0.000976562, 0, 9.91113, -0.0546875, -0.227539, 11.29.2021 15:13:15.183
788, 20.9493, 88.762, 95.799, 0, -0.000976562, -0.000976562, 9.84277, -0.0302734, -0.258789, 11.29.2021 15:13:15.191
789, 20.9288, 88.9532, 95.6529, 0, -0.00195312, 0, 9.87988, -0.00488281, -0.206055, 11.29.2021 15:13:15.199
790, 20.794, 88.7554, 95.6391, 0.000976562, -0.00195312, -0.000976562, 9.88867, -0.0390625, -0.264648, 11.29.2021 15:13:15.207
791, 20.3965, 88.7529, 95.24, 0.000976562, -0.00195312, -0.000976562, 9.85352, -0.0810547, -0.242188, 11.29.2021 15:13:15.215
792, 20.137, 88.9472, 94.8564, 0, 0, -0.000976562, 9.89648, -0.0742188, -0.208984, 11.29.2021 15:13:15.223
793, 20.0026, 88.7504, 94.8446, -0.000976562, 0, -0.00195312, 9.85254, -0.0800781, -0.251953, 11.29.2021 15:13:15.231
794, 19.9938, 88.9395, 94.7093, 0, 0, 0, 9.8457, -0.0898438, -0.261719, 11.29.2021 15:13:15.239
795, 19.8607, 88.7438, 94.698, 0, 0, 0, 9.85352, -0.0732422, -0.194336, 11.29.2021 15:13:15.247
796, 19.8607, 88.7438, 94.698, -0.000976562, 0, 0, 9.875, -0.0380859, -0.216797, 11.29.2021 15:13:15.255
797, 19.4752, 88.741, 94.3109, -0.00195312, 0.00195312, -0.00195312, 9.88184, 0.00390625, -0.201172, 11.29.2021 15:13:15.263
798, 19.4752, 88.741, 94.3109, 0, -0.000976562, -0.000976562, 9.86621, -0.0380859, -0.173828, 11.29.2021 15:13:15.271
799, 19.0931, 88.7382, 93.927, 0, -0.000976562, -0.000976562, 9.87793, -0.00878906, -0.161133, 11.29.2021 15:13:15.279
800, 19.0931, 88.7382, 93.927, 0, -0.000976562, -0.000976562, 9.90039, -0.0498047, -0.0888672, 11.29.2021 15:13:15.287
801, 18.8416, 88.7423, 93.6784, 0, 0, -0.000976562, 9.8877, -0.0742188, -0.139648, 11.29.2021 15:13:15.295
802, 18.8416, 88.7423, 93.6784, 0, -0.000976562, 0, 9.86621, -0.114258, -0.186523, 11.29.2021 15:13:15.303
803, 18.8416, 88.7423, 93.6784, 0, 0, 0, 9.87891, -0.115234, -0.15332, 11.29.2021 15:13:15.311
804, 18.6679, 88.8899, 93.4154, 0, -0.000976562, -0.000976562, 9.85352, -0.0683594, -0.18457, 11.29.2021 15:13:15.319
805, 18.5867, 88.7463, 93.4264, 0, -0.000976562, -0.000976562, 9.84863, -0.0566406, -0.178711, 11.29.2021 15:13:15.327
806, 18.5867, 88.7463, 93.4264, 0.000976562, -0.000976562, -0.000976562, 9.8584, -0.0371094, -0.180664, 11.29.2021 15:13:15.335
807, 18.9717, 88.7491, 93.8133, 0, 0, -0.000976562, 9.86816, -0.0429688, -0.168945, 11.29.2021 15:13:15.343
808, 18.7147, 88.7532, 93.5593, 0, 0, 0, 9.86621, -0.00976562, -0.134766, 11.29.2021 15:13:15.351
809, 18.7147, 88.7532, 93.5593, 0, -0.000976562, 0, 9.88086, -0.0361328, -0.152344, 11.29.2021 15:13:15.359
810, 18.4542, 88.7573, 93.3019, -0.000976562, -0.000976562, 0, 9.86426, -0.0859375, -0.151367, 11.29.2021 15:13:15.367
811, 18.8457, 88.7598, 93.6951, -0.000976562, -0.000976562, 0, 9.86523, -0.0771484, -0.220703, 11.29.2021 15:13:15.375
812, 18.6668, 88.9098, 93.4242, 0, -0.00195312, 0, 9.84668, -0.129883, -0.208008, 11.29.2021 15:13:15.383
813, 18.6668, 88.9098, 93.4242, -0.000976562, -0.000976562, 0, 9.8877, -0.0966797, -0.185547, 11.29.2021 15:13:15.391
814, 18.6668, 88.9098, 93.4242, -0.000976562, -0.000976562, 0, 9.87695, -0.0566406, -0.232422, 11.29.2021 15:13:15.399
815, 18.6668, 88.9098, 93.4242, 0, 0, -0.000976562, 9.85547, -0.0830078, -0.251953, 11.29.2021 15:13:15.407
816, 18.9232, 88.7211, 93.8119, -0.000976562, -0.000976562, -0.000976562, 9.84375, -0.0498047, -0.231445, 11.29.2021 15:13:15.415
817, 18.6668, 88.9098, 93.4242, 0, -0.00195312, 0, 9.88867, -0.0146484, -0.22168, 11.29.2021 15:13:15.423
818, 18.6668, 88.9098, 93.4242, 0, -0.00195312, -0.000976562, 9.87305, -0.0400391, -0.160156, 11.29.2021 15:13:15.431
819, 18.6668, 88.9098, 93.4242, -0.000976562, -0.000976562, 0, 9.87598, -0.0400391, -0.165039, 11.29.2021 15:13:15.439
820, 18.5831, 88.7639, 93.4356, -0.000976562, -0.000976562, 0, 9.89941, -0.0615234, -0.158203, 11.29.2021 15:13:15.447
821, 18.4026, 88.9143, 93.162, -0.000976562, 0, -0.000976562, 9.87598, -0.09375, -0.147461, 11.29.2021 15:13:15.455
822, 18.6594, 88.725, 93.5516, -0.000976562, -0.000976562, -0.000976562, 9.89062, -0.112305, -0.160156, 11.29.2021 15:13:15.463
823, 18.6594, 88.725, 93.5516, 0, 0, -0.000976562, 9.84668, -0.0957031, -0.170898, 11.29.2021 15:13:15.471
824, 18.799, 88.9174, 93.5605, 0, -0.000976562, -0.000976562, 9.87207, -0.0292969, -0.209961, 11.29.2021 15:13:15.479
825, 18.799, 88.9174, 93.5605, -0.000976562, -0.000976562, -0.000976562, 9.88965, -0.0585938, -0.186523, 11.29.2021 15:13:15.487
826, 18.8772, 88.8731, 93.6781, -0.000976562, 0, -0.000976562, 9.88965, -0.0634766, -0.172852, 11.29.2021 15:13:15.495
827, 18.7932, 88.7314, 93.6905, 0, 0, 0, 9.88965, -0.0566406, -0.169922, 11.29.2021 15:13:15.503
828, 18.7932, 88.7314, 93.6905, 0, -0.000976562, 0, 9.90039, -0.0771484, -0.144531, 11.29.2021 15:13:15.511
829, 18.9342, 88.9248, 93.6998, 0, -0.000976562, 0, 9.87598, -0.0957031, -0.150391, 11.29.2021 15:13:15.519
830, 19.1982, 88.7339, 94.0971, 0, -0.000976562, 0, 9.87109, -0.0810547, -0.167969, 11.29.2021 15:13:15.527
831, 19.3396, 88.9277, 94.1075, 0.000976562, -0.000976562, 0, 9.86426, -0.135742, -0.181641, 11.29.2021 15:13:15.535
832, 19.3396, 88.9277, 94.1075, -0.000976562, -0.000976562, -0.000976562, 9.87305, -0.0917969, -0.211914, 11.29.2021 15:13:15.543
833, 19.6071, 88.7364, 94.5072, 0, 0, -0.000976562, 9.86328, -0.0751953, -0.208984, 11.29.2021 15:13:15.551
834, 19.7487, 88.9306, 94.5187, 0, 0, -0.000976562, 9.87012, -0.0751953, -0.201172, 11.29.2021 15:13:15.559
835, 19.7487, 88.9306, 94.5187, 0, 0, -0.000976562, 9.87012, -0.0439453, -0.203125, 11.29.2021 15:13:15.567
836, 19.7487, 88.9306, 94.5187, -0.000976562, 0, -0.000976562, 9.86816, -0.0273438, -0.185547, 11.29.2021 15:13:15.575
837, 20.0197, 88.7389, 94.9212, 0, -0.000976562, 0, 9.87598, -0.0400391, -0.162109, 11.29.2021 15:13:15.583
838, 20.0197, 88.7389, 94.9212, 0, -0.00195312, -0.00195312, 9.87793, -0.0527344, -0.148438, 11.29.2021 15:13:15.591
839, 20.0197, 88.7389, 94.9212, -0.000976562, -0.00195312, -0.00195312, 9.90527, -0.0673828, -0.139648, 11.29.2021 15:13:15.599
840, 19.8351, 88.8858, 94.6443, 0, -0.000976562, -0.000976562, 9.83691, -0.0908203, -0.220703, 11.29.2021 15:13:15.607
841, 19.8351, 88.8858, 94.6443, 0, -0.000976562, 0, 9.86719, -0.106445, -0.25293, 11.29.2021 15:13:15.615
842, 20.0197, 88.7389, 94.9212, 0, -0.000976562, 0, 9.86523, -0.107422, -0.243164, 11.29.2021 15:13:15.623
843, 20.0197, 88.7389, 94.9212, -0.000976562, -0.000976562, -0.000976562, 9.84766, -0.0917969, -0.287109, 11.29.2021 15:13:15.631
844, 20.0977, 88.8815, 94.9045, 0, -0.000976562, -0.000976562, 9.89355, -0.0507812, -0.265625, 11.29.2021 15:13:15.639
845, 20.0102, 88.9261, 94.7783, -0.000976562, 0, -0.000976562, 9.87207, -0.0390625, -0.205078, 11.29.2021 15:13:15.647
846, 20.0102, 88.9261, 94.7783, -0.000976562, 0, -0.00195312, 9.87891, -0.0585938, -0.131836, 11.29.2021 15:13:15.655
847, 20.0102, 88.9261, 94.7783, -0.000976562, 0.000976562, -0.000976562, 9.90527, -0.0810547, -0.147461, 11.29.2021 15:13:15.663
848, 20.0102, 88.9261, 94.7783, -0.000976562, 0, -0.000976562, 9.87598, -0.0751953, -0.137695, 11.29.2021 15:13:15.671
849, 20.0102, 88.9261, 94.7783, 0, 0, -0.000976562, 9.86328, -0.113281, -0.198242, 11.29.2021 15:13:15.679
850, 20.2807, 88.735, 95.1784, 0, 0, -0.000976562, 9.84766, -0.105469, -0.162109, 11.29.2021 15:13:15.687
851, 20.3565, 88.8771, 95.1609, 0.000976562, -0.00195312, 0, 9.89355, -0.108398, -0.257812, 11.29.2021 15:13:15.695
852, 20.5379, 88.7311, 95.432, 0, -0.00195312, 0, 9.87012, -0.104492, -0.248047, 11.29.2021 15:13:15.703
853, 20.5379, 88.7311, 95.432, -0.000976562, -0.00195312, 0, 9.88184, -0.0449219, -0.248047, 11.29.2021 15:13:15.711
854, 20.3427, 89.0924, 95.0173, -0.000976562, -0.000976562, -0.000976562, 9.86816, -0.0322266, -0.19043, 11.29.2021 15:13:15.719
855, 20.3839, 88.7247, 95.2731, 0, -0.000976562, -0.000976562, 9.88672, -0.00976562, -0.202148, 11.29.2021 15:13:15.727
856, 20.3839, 88.7247, 95.2731, 0, -0.000976562, -0.000976562, 9.8877, -0.0546875, -0.169922, 11.29.2021 15:13:15.735
857, 20.3839, 88.7247, 95.2731, 0, 0, -0.000976562, 9.87793, -0.0742188, -0.15918, 11.29.2021 15:13:15.743
858, 20.3839, 88.7247, 95.2731, 0.000976562, 0, -0.000976562, 9.84961, -0.112305, -0.168945, 11.29.2021 15:13:15.751
859, 20.3839, 88.7247, 95.2731, -0.000976562, -0.000976562, -0.000976562, 9.87695, -0.114258, -0.107422, 11.29.2021 15:13:15.759
860, 20.3839, 88.7247, 95.2731, -0.000976562, -0.000976562, -0.000976562, 9.8584, -0.12207, -0.226562, 11.29.2021 15:13:15.767
861, 20.4575, 88.8656, 95.2556, -0.000976562, -0.000976562, 0, 9.87305, -0.102539, -0.228516, 11.29.2021 15:13:15.775
862, 20.8627, 88.8684, 95.6628, -0.000976562, -0.000976562, 0, 9.86816, -0.0664062, -0.177734, 11.29.2021 15:13:15.783
863, 20.8627, 88.8684, 95.6628, 0, -0.000976562, -0.000976562, 9.91211, -0.0673828, -0.137695, 11.29.2021 15:13:15.791
864, 20.8627, 88.8684, 95.6628, 0, -0.000976562, -0.000976562, 9.88281, -0.000976562, -0.129883, 11.29.2021 15:13:15.799
865, 20.8627, 88.8684, 95.6628, -0.000976562, -0.000976562, 0, 9.87793, -0.0224609, -0.130859, 11.29.2021 15:13:15.807
866, 20.7912, 88.7271, 95.6817, -0.000976562, -0.000976562, -0.000976562, 9.85645, -0.0263672, -0.157227, 11.29.2021 15:13:15.815
867, 20.883, 88.6894, 95.8117, -0.000976562, 0, -0.000976562, 9.87988, -0.0595703, -0.217773, 11.29.2021 15:13:15.823
868, 20.883, 88.6894, 95.8117, -0.000976562, -0.000976562, 0, 9.86816, -0.0888672, -0.223633, 11.29.2021 15:13:15.831
869, 20.883, 88.6894, 95.8117, 0, -0.000976562, 0, 9.86426, -0.113281, -0.286133, 11.29.2021 15:13:15.839
870, 20.883, 88.6894, 95.8117, 0, -0.000976562, 0, 9.88184, -0.105469, -0.228516, 11.29.2021 15:13:15.847
871, 20.6114, 88.8727, 95.4137, 0, 0, 0, 9.87402, -0.0654297, -0.260742, 11.29.2021 15:13:15.855
872, 20.7912, 88.7271, 95.6817, -0.000976562, -0.000976562, 0, 9.87012, -0.0458984, -0.203125, 11.29.2021 15:13:15.863
873, 20.8627, 88.8684, 95.6628, 0, 0, -0.000976562, 9.86523, -0.00976562, -0.213867, 11.29.2021 15:13:15.871
874, 20.7912, 88.7271, 95.6817, 0.000976562, -0.000976562, 0, 9.85938, -0.0410156, -0.133789, 11.29.2021 15:13:15.879
875, 20.4726, 88.687, 95.4002, 0.000976562, 0, 0, 9.89062, -0.015625, -0.119141, 11.29.2021 15:13:15.887
876, 20.6114, 88.8727, 95.4137, 0.000976562, 0, 0, 9.89355, -0.0957031, -0.0927734, 11.29.2021 15:13:15.895
877, 20.6114, 88.8727, 95.4137, 0, 0, -0.000976562, 9.86816, -0.111328, -0.19043, 11.29.2021 15:13:15.903
878, 20.6114, 88.8727, 95.4137, 0, -0.000976562, 0, 9.88965, -0.108398, -0.193359, 11.29.2021 15:13:15.911
879, 20.6114, 88.8727, 95.4137, -0.000976562, -0.000976562, 0, 9.86816, -0.110352, -0.219727, 11.29.2021 15:13:15.919
880, 20.6114, 88.8727, 95.4137, -0.000976562, 0, -0.000976562, 9.875, -0.0878906, -0.242188, 11.29.2021 15:13:15.927
881, 20.6114, 88.8727, 95.4137, -0.000976562, 0, 0, 9.88672, -0.0166016, -0.230469, 11.29.2021 15:13:15.935
882, 20.6114, 88.8727, 95.4137, -0.000976562, 0, -0.000976562, 9.88184, -0.0605469, -0.267578, 11.29.2021 15:13:15.943
883, 20.6114, 88.8727, 95.4137, 0, 0.000976562, 0, 9.87012, -0.0224609, -0.19043, 11.29.2021 15:13:15.951
884, 20.4726, 88.687, 95.4002, 0, 0, -0.000976562, 9.89844, 0.00488281, -0.225586, 11.29.2021 15:13:15.959
885, 20.2044, 88.87, 95.0048, 0, 0, -0.000976562, 9.85938, -0.0693359, -0.165039, 11.29.2021 15:13:15.967
886, 20.2044, 88.87, 95.0048, -0.000976562, -0.000976562, -0.000976562, 9.88477, -0.0400391, -0.165039, 11.29.2021 15:13:15.975
887, 20.0245, 89.0369, 94.7342, -0.000976562, -0.000976562, 0, 9.89258, -0.0761719, -0.154297, 11.29.2021 15:13:15.983
888, 19.8078, 88.6884, 94.7382, -0.000976562, -0.00195312, -0.000976562, 9.86328, -0.0830078, -0.180664, 11.29.2021 15:13:15.991
889, 19.8078, 88.6884, 94.7382, 0, -0.000976562, -0.000976562, 9.88477, -0.105469, -0.211914, 11.29.2021 15:13:15.999
890, 19.8078, 88.6884, 94.7382, 0, 0, -0.000976562, 9.85742, -0.0527344, -0.231445, 11.29.2021 15:13:16.007
891, 19.5425, 88.8715, 94.3431, 0, -0.000976562, -0.000976562, 9.84961, -0.000976562, -0.270508, 11.29.2021 15:13:16.013
892, 19.403, 88.686, 94.3323, 0, -0.00195312, 0, 9.88184, -0.0332031, -0.241211, 11.29.2021 15:13:16.021
893, 19.141, 88.8688, 93.9396, -0.000976562, -0.000976562, 0, 9.88477, -0.0283203, -0.173828, 11.29.2021 15:13:16.029
894, 19.0018, 88.6834, 93.9298, -0.000976562, -0.000976562, 0, 9.86816, -0.0166016, -0.147461, 11.29.2021 15:13:16.037
895, 19.0018, 88.6834, 93.9298, 0.000976562, -0.000976562, -0.000976562, 9.88281, -0.0654297, -0.194336, 11.29.2021 15:13:16.045
896, 18.5629, 89.0321, 93.2658, 0, 0, -0.000976562, 9.8877, -0.0722656, -0.144531, 11.29.2021 15:13:16.053
897, 18.478, 88.8701, 93.2767, 0.000976562, 0, 0.000976562, 9.88086, -0.104492, -0.176758, 11.29.2021 15:13:16.061
898, 18.478, 88.8701, 93.2767, 0, -0.000976562, -0.000976562, 9.87109, -0.101562, -0.180664, 11.29.2021 15:13:16.069
899, 18.478, 88.8701, 93.2767, -0.000976562, -0.000976562, 0, 9.8916, -0.0371094, -0.178711, 11.29.2021 15:13:16.077
900, 18.478, 88.8701, 93.2767, -0.000976562, -0.00195312, 0, 9.87305, -0.0585938, -0.18457, 11.29.2021 15:13:16.085
901, 18.478, 88.8701, 93.2767, 0, 0, 0, 9.88672, -0.0341797, -0.19043, 11.29.2021 15:13:16.093
902, 18.2961, 89.0369, 92.9999, 0.000976562, -0.000976562, -0.000976562, 9.87598, -0.0419922, -0.117188, 11.29.2021 15:13:16.101
903, 18.2089, 88.8743, 93.01, 0, 0, -0.00195312, 9.88379, -0.0302734, -0.112305, 11.29.2021 15:13:16.109
904, 18.284, 88.8318, 93.1251, 0, 0, -0.000976562, 9.87305, -0.03125, -0.142578, 11.29.2021 15:13:16.117
905, 18.1956, 88.6945, 93.1358, 0, -0.00195312, -0.000976562, 9.88574, -0.0849609, -0.116211, 11.29.2021 15:13:16.125
906, 18.3383, 88.8816, 93.1438, 0, -0.000976562, -0.000976562, 9.89453, -0.0947266, -0.181641, 11.29.2021 15:13:16.133
907, 18.1528, 89.0504, 92.8612, -0.000976562, 0, -0.000976562, 9.85645, -0.0966797, -0.213867, 11.29.2021 15:13:16.141
908, 18.3264, 88.7006, 93.2725, 0, 0, 0, 9.88086, -0.0673828, -0.290039, 11.29.2021 15:13:16.149
909, 18.3264, 88.7006, 93.2725, 0, -0.000976562, -0.00195312, 9.89551, -0.0625, -0.270508, 11.29.2021 15:13:16.157
910, 18.063, 88.8858, 92.871, 0, 0, -0.000976562, 9.86914, -0.0585938, -0.260742, 11.29.2021 15:13:16.165
911, 18.063, 88.8858, 92.871, 0, 0, -0.000976562, 9.88184, -0.0126953, -0.197266, 11.29.2021 15:13:16.173
912, 18.063, 88.8858, 92.871, -0.000976562, 0, 0, 9.91895, -0.0449219, -0.169922, 11.29.2021 15:13:16.181
913, 18.063, 88.8858, 92.871, 0, 0, 0, 9.89551, -0.0644531, -0.149414, 11.29.2021 15:13:16.189
914, 18.063, 88.8858, 92.871, 0.000976562, 0, 0, 9.89453, -0.0605469, -0.18457, 11.29.2021 15:13:16.197
915, 18.063, 88.8858, 92.871, 0.000976562, -0.000976562, 0, 9.88672, -0.0693359, -0.213867, 11.29.2021 15:13:16.205
916, 18.063, 88.8858, 92.871, 0, 0, -0.000976562, 9.875, -0.0966797, -0.207031, 11.29.2021 15:13:16.213
917, 17.919, 88.6981, 92.8636, 0.000976562, -0.00195312, -0.000976562, 9.87793, -0.0986328, -0.22168, 11.29.2021 15:13:16.221
918, 17.9359, 88.8787, 92.7395, -0.000976562, -0.00195312, 0, 9.87402, -0.0625, -0.298828, 11.29.2021 15:13:16.229
919, 17.9359, 88.8787, 92.7395, -0.000976562, -0.000976562, 0.000976562, 9.86035, -0.0712891, -0.234375, 11.29.2021 15:13:16.237
920, 17.9359, 88.8787, 92.7395, 0, 0, 0, 9.88965, -0.0253906, -0.180664, 11.29.2021 15:13:16.245
921, 17.9359, 88.8787, 92.7395, 0, 0, 0, 9.87109, -0.0458984, -0.145508, 11.29.2021 15:13:16.253
922, 17.7935, 88.6919, 92.7325, 0, 0, -0.000976562, 9.87598, -0.0371094, -0.124023, 11.29.2021 15:13:16.261
923, 17.9359, 88.8787, 92.7395, 0, 0, -0.000976562, 9.87695, -0.0712891, -0.0849609, 11.29.2021 15:13:16.269
924, 17.9359, 88.8787, 92.7395, 0, -0.000976562, 0, 9.87012, -0.09375, -0.0810547, 11.29.2021 15:13:16.277
925, 18.1956, 88.6945, 93.1358, -0.00195312, -0.000976562, 0, 9.88672, -0.0976562, -0.0927734, 11.29.2021 15:13:16.285
926, 18.1528, 89.0504, 92.8612, -0.00292969, -0.000976562, 0, 9.87305, -0.104492, -0.166992, 11.29.2021 15:13:16.293
927, 18.4151, 88.8387, 93.2613, -0.00292969, -0.000976562, -0.000976562, 9.88477, -0.120117, -0.198242, 11.29.2021 15:13:16.301
928, 18.5586, 89.0537, 93.2697, -0.00195312, -0.000976562, 0, 9.89453, -0.0566406, -0.172852, 11.29.2021 15:13:16.309
929, 18.8245, 88.8414, 93.6724, -0.00195312, -0.000976562, -0.000976562, 9.91113, -0.0625, -0.194336, 11.29.2021 15:13:16.317
930, 18.8245, 88.8414, 93.6724, 0, -0.000976562, -0.000976562, 9.85547, -0.0302734, -0.254883, 11.29.2021 15:13:16.325
931, 18.9683, 89.0571, 93.6819, 0, 0, 0, 9.88672, -0.0380859, -0.22168, 11.29.2021 15:13:16.333
932, 18.9683, 89.0571, 93.6819, 0, 0, -0.000976562, 9.88965, -0.0390625, -0.209961, 11.29.2021 15:13:16.341
933, 18.9683, 89.0571, 93.6819, 0, -0.000976562, -0.000976562, 9.89941, -0.0605469, -0.194336, 11.29.2021 15:13:16.349
934, 18.9683, 89.0571, 93.6819, -0.00195312, -0.000976562, 0, 9.90137, -0.113281, -0.203125, 11.29.2021 15:13:16.357
935, 18.9683, 89.0571, 93.6819, 0, 0, -0.000976562, 9.85352, -0.0878906, -0.24707, 11.29.2021 15:13:16.365
936, 18.9683, 89.0571, 93.6819, 0, -0.000976562, -0.000976562, 9.88867, -0.0712891, -0.24707, 11.29.2021 15:13:16.373
937, 18.8245, 88.8414, 93.6724, 0.000976562, 0, 0, 9.85645, -0.107422, -0.173828, 11.29.2021 15:13:16.381
938, 19.1546, 88.8872, 93.9644, 0, 0, -0.000976562, 9.89746, -0.03125, -0.157227, 11.29.2021 15:13:16.389
939, 19.0111, 88.6994, 93.9542, -0.00195312, 0, -0.000976562, 9.90625, -0.0214844, -0.152344, 11.29.2021 15:13:16.397
940, 18.8245, 88.8414, 93.6724, 0, 0, -0.000976562, 9.86328, -0.0498047, -0.157227, 11.29.2021 15:13:16.405
941, 18.9683, 89.0571, 93.6819, -0.00195312, -0.000976562, -0.000976562, 9.86426, -0.0166016, -0.0898438, 11.29.2021 15:13:16.413
942, 19.2379, 88.8441, 94.0875, -0.00195312, -0.000976562, -0.000976562, 9.90234, -0.0683594, -0.113281, 11.29.2021 15:13:16.421
943, 19.2379, 88.8441, 94.0875, 0, -0.00195312, 0, 9.89746, -0.100586, -0.150391, 11.29.2021 15:13:16.429
944, 19.2379, 88.8441, 94.0875, 0, -0.000976562, 0, 9.85449, -0.119141, -0.183594, 11.29.2021 15:13:16.437
945, 19.6552, 88.8468, 94.5066, 0, -0.000976562, -0.000976562, 9.87988, -0.0947266, -0.25, 11.29.2021 15:13:16.445
946, 19.6552, 88.8468, 94.5066, 0, 0.000976562, -0.000976562, 9.87012, -0.0957031, -0.21875, 11.29.2021 15:13:16.453
947, 19.6552, 88.8468, 94.5066, -0.00195312, 0, 0, 9.87012, -0.0820312, -0.197266, 11.29.2021 15:13:16.461
948, 19.6552, 88.8468, 94.5066, -0.00195312, -0.000976562, -0.000976562, 9.86816, -0.0214844, -0.161133, 11.29.2021 15:13:16.469
949, 19.6552, 88.8468, 94.5066, -0.00195312, -0.000976562, 0, 9.90723, -0.0546875, -0.158203, 11.29.2021 15:13:16.477
950, 19.7429, 88.8052, 94.6344, -0.00195312, -0.000976562, 0, 9.86426, -0.0683594, -0.113281, 11.29.2021 15:13:16.485
951, 19.8883, 89.0126, 94.6466, 0, -0.000976562, -0.000976562, 9.87109, -0.0283203, -0.157227, 11.29.2021 15:13:16.493
952, 19.8883, 89.0126, 94.6466, -0.00195312, 0, -0.000976562, 9.88379, -0.104492, -0.0927734, 11.29.2021 15:13:16.501
953, 20.1676, 88.8076, 95.0604, -0.00195312, -0.000976562, -0.000976562, 9.86816, -0.120117, -0.217773, 11.29.2021 15:13:16.509
954, 20.3133, 89.0156, 95.0738, -0.000976562, -0.000976562, 0, 9.88477, -0.128906, -0.244141, 11.29.2021 15:13:16.517
955, 20.3133, 89.0156, 95.0738, 0, -0.000976562, -0.000976562, 9.87012, -0.0986328, -0.22168, 11.29.2021 15:13:16.525
956, 20.3133, 89.0156, 95.0738, 0, -0.000976562, -0.000976562, 9.89648, -0.0859375, -0.21875, 11.29.2021 15:13:16.533
957, 20.7856, 88.6715, 95.7722, 0, -0.00195312, 0, 9.86328, -0.0878906, -0.177734, 11.29.2021 15:13:16.541
958, 20.8611, 88.8061, 95.752, 0, -0.00195312, 0.000976562, 9.89844, -0.0429688, -0.208008, 11.29.2021 15:13:16.549
959, 20.8611, 88.8061, 95.752, 0, -0.00195312, 0.000976562, 9.89941, -0.0644531, -0.163086, 11.29.2021 15:13:16.557
960, 21.0057, 89.014, 95.7671, 0, 0, 0, 9.87207, -0.0615234, -0.108398, 11.29.2021 15:13:16.565
961, 21.0057, 89.014, 95.7671, -0.000976562, 0.000976562, -0.000976562, 9.87598, -0.0751953, -0.12793, 11.29.2021 15:13:16.573
962, 21.2918, 88.8086, 96.1841, 0, 0, -0.000976562, 9.86133, -0.112305, -0.166992, 11.29.2021 15:13:16.581
963, 21.4367, 89.0168, 96.2004, 0, -0.000976562, -0.000976562, 9.86816, -0.0986328, -0.216797, 11.29.2021 15:13:16.589
964, 21.6242, 88.853, 96.479, 0, -0.000976562, -0.000976562, 9.87012, -0.112305, -0.224609, 11.29.2021 15:13:16.597
965, 21.6942, 89.0121, 96.4564, 0, -0.000976562, 0, 9.86816, -0.0761719, -0.225586, 11.29.2021 15:13:16.605
966, 21.6942, 89.0121, 96.4564, -0.00195312, -0.000976562, -0.00195312, 9.8916, -0.0634766, -0.258789, 11.29.2021 15:13:16.613
967, 21.6942, 89.0121, 96.4564, -0.000976562, -0.000976562, -0.000976562, 9.87012, -0.0234375, -0.223633, 11.29.2021 15:13:16.621
968, 21.7367, 88.6665, 96.7145, -0.000976562, -0.000976562, -0.000976562, 9.85742, -0.0361328, -0.22168, 11.29.2021 15:13:16.629
969, 21.8056, 88.8006, 96.6913, -0.000976562, -0.000976562, -0.000976562, 9.88281, -0.0478516, -0.155273, 11.29.2021 15:13:16.637
970, 21.521, 89.0044, 96.2796, -0.000976562, -0.000976562, -0.000976562, 9.87109, -0.0546875, -0.165039, 11.29.2021 15:13:16.645
971, 21.521, 89.0044, 96.2796, 0, -0.000976562, -0.000976562, 9.89648, -0.0693359, -0.21582, 11.29.2021 15:13:16.653
972, 21.3789, 88.7981, 96.2634, 0, -0.000976562, 0, 9.8877, -0.0986328, -0.209961, 11.29.2021 15:13:16.661
973, 21.3789, 88.7981, 96.2634, -0.000976562, -0.000976562, 0, 9.84668, -0.109375, -0.192383, 11.29.2021 15:13:16.669
974, 21.5631, 88.6606, 96.5357, -0.000976562, -0.000976562, 0, 9.88477, -0.106445, -0.203125, 11.29.2021 15:13:16.677
975, 21.6322, 88.7941, 96.5133, 0, -0.000976562, 0, 9.86035, -0.0703125, -0.201172, 11.29.2021 15:13:16.685
976, 21.6322, 88.7941, 96.5133, 0, 0, -0.000976562, 9.87305, -0.0605469, -0.212891, 11.29.2021 15:13:16.693
977, 21.3518, 88.9963, 96.1068, 0, 0, -0.000976562, 9.875, -0.0419922, -0.193359, 11.29.2021 15:13:16.701
978, 21.3518, 88.9963, 96.1068, 0, -0.000976562, 0, 9.90723, -0.0771484, -0.132812, 11.29.2021 15:13:16.709
979, 21.3518, 88.9963, 96.1068, -0.000976562, -0.000976562, 0, 9.86621, -0.0556641, -0.128906, 11.29.2021 15:13:16.717
980, 21.3518, 88.9963, 96.1068, 0, 0, 0, 9.91699, -0.09375, -0.143555, 11.29.2021 15:13:16.725
981, 21.6322, 88.7941, 96.5133, -0.000976562, -0.000976562, 0, 9.87891, -0.101562, -0.119141, 11.29.2021 15:13:16.733
982, 21.6322, 88.7941, 96.5133, 0, -0.000976562, 0, 9.86328, -0.0898438, -0.182617, 11.29.2021 15:13:16.741
983, 21.6322, 88.7941, 96.5133, -0.000976562, 0, 0, 9.87793, -0.112305, -0.165039, 11.29.2021 15:13:16.749
984, 21.7729, 88.9995, 96.5301, 0, 0, -0.000976562, 9.86035, -0.09375, -0.21875, 11.29.2021 15:13:16.757
985, 22.2395, 88.6591, 97.2081, -0.000976562, -0.00195312, -0.000976562, 9.8584, -0.09375, -0.21582, 11.29.2021 15:13:16.765
986, 22.3041, 88.7924, 97.1835, -0.000976562, -0.000976562, -0.00195312, 9.88184, -0.0585938, -0.258789, 11.29.2021 15:13:16.773
987, 22.3041, 88.7924, 97.1835, -0.000976562, 0, -0.000976562, 9.87891, -0.0507812, -0.125, 11.29.2021 15:13:16.781
988, 22.3041, 88.7924, 97.1835, -0.000976562, -0.000976562, -0.000976562, 9.91406, -0.03125, -0.15332, 11.29.2021 15:13:16.789
989, 22.1226, 88.9469, 96.9155, -0.000976562, -0.000976562, -0.00195312, 9.87305, -0.0263672, -0.162109, 11.29.2021 15:13:16.797
990, 22.0568, 88.7965, 96.9392, 0, 0, 0, 9.89941, -0.078125, -0.178711, 11.29.2021 15:13:16.805
991, 22.0568, 88.7965, 96.9392, 0, -0.000976562, 0, 9.88281, -0.0722656, -0.197266, 11.29.2021 15:13:16.813
992, 22.0568, 88.7965, 96.9392, 0, -0.000976562, 0, 9.86523, -0.0830078, -0.256836, 11.29.2021 15:13:16.821
993, 22.0568, 88.7965, 96.9392, 0, 0, 0, 9.83887, -0.149414, -0.272461, 11.29.2021 15:13:16.829
994, 22.3041, 88.7924, 97.1835, -0.000976562, 0, -0.000976562, 9.88672, -0.0664062, -0.244141, 11.29.2021 15:13:16.837
995, 21.8817, 88.79, 96.7597, -0.000976562, -0.000976562, -0.000976562, 9.87793, -0.0703125, -0.208984, 11.29.2021 15:13:16.845
996, 21.8817, 88.79, 96.7597, 0, -0.00195312, -0.000976562, 9.875, -0.0283203, -0.164062, 11.29.2021 15:13:16.853
997, 21.8817, 88.79, 96.7597, 0, 0, -0.000976562, 9.87109, -0.00488281, -0.137695, 11.29.2021 15:13:16.861
998, 21.8817, 88.79, 96.7597, -0.000976562, -0.000976562, -0.000976562, 9.90039, -0.0761719, -0.104492, 11.29.2021 15:13:16.869
999, 21.8817, 88.79, 96.7597, -0.000976562, 0, -0.000976562, 9.89746, -0.109375, -0.174805, 11.29.2021 15:13:16.877
1000, 21.7004, 88.9443, 96.4911, -0.000976562, -0.000976562, -0.000976562, 9.87793, -0.0869141, -0.202148, 11.29.2021 15:13:16.885
1001, 21.7004, 88.9443, 96.4911, -0.000976562, -0.000976562, -0.000976562, 9.86133, -0.0966797, -0.207031, 11.29.2021 15:13:16.893
1002, 21.7004, 88.9443, 96.4911, 0, 0, -0.000976562, 9.84863, -0.0869141, -0.204102, 11.29.2021 15:13:16.901
1003, 21.7004, 88.9443, 96.4911, 0, 0, -0.000976562, 9.86328, -0.0722656, -0.206055, 11.29.2021 15:13:16.909
1004, 21.8817, 88.79, 96.7597, 0.000976562, -0.000976562, 0, 9.90137, -0.0390625, -0.198242, 11.29.2021 15:13:16.917
1005, 21.8817, 88.79, 96.7597, 0, -0.000976562, -0.000976562, 9.87305, -0.0537109, -0.193359, 11.29.2021 15:13:16.925
1006, 21.2818, 88.9413, 96.0705, 0, -0.000976562, 0, 9.9209, -0.00683594, -0.157227, 11.29.2021 15:13:16.933
1007, 21.2818, 88.9413, 96.0705, 0, -0.000976562, 0, 9.91016, -0.0654297, -0.132812, 11.29.2021 15:13:16.941
1008, 21.2113, 88.7916, 96.0912, -0.000976562, -0.00195312, -0.000976562, 9.89453, -0.0605469, -0.199219, 11.29.2021 15:13:16.949
1009, 21.2113, 88.7916, 96.0912, 0, -0.00195312, 0, 9.8877, -0.0869141, -0.185547, 11.29.2021 15:13:16.957
1010, 21.2113, 88.7916, 96.0912, 0, -0.000976562, 0, 9.86133, -0.148438, -0.213867, 11.29.2021 15:13:16.965
1011, 21.2818, 88.9413, 96.0705, 0, -0.000976562, -0.000976562, 9.86816, -0.129883, -0.214844, 11.29.2021 15:13:16.973
1012, 21.4628, 88.7876, 96.3395, -0.000976562, 0, -0.000976562, 9.89551, -0.0957031, -0.143555, 11.29.2021 15:13:16.996
1013, 21.8817, 88.79, 96.7597, 0, 0, -0.000976562, 9.88965, -0.0400391, -0.155273, 11.29.2021 15:13:16.997
1014, 21.7004, 88.9443, 96.4911, 0, 0, -0.000976562, 9.91504, -0.0800781, -0.109375, 11.29.2021 15:13:17.005
1015, 21.7004, 88.9443, 96.4911, 0, 0, -0.000976562, 9.87109, -0.0537109, -0.110352, 11.29.2021 15:13:17.013
1016, 21.7729, 88.9995, 96.5301, 0, -0.000976562, 0, 9.89062, -0.0722656, -0.125977, 11.29.2021 15:13:17.021
1017, 22.0568, 88.7965, 96.9392, -0.000976562, -0.000976562, 0.000976562, 9.86328, -0.116211, -0.0595703, 11.29.2021 15:13:17.029
1018, 22.4851, 88.7989, 97.3688, -0.000976562, -0.000976562, 0, 9.87988, -0.0986328, -0.216797, 11.29.2021 15:13:17.037
1019, 22.4851, 88.7989, 97.3688, -0.000976562, -0.000976562, -0.000976562, 9.8623, -0.131836, -0.289062, 11.29.2021 15:13:17.045
1020, 22.4851, 88.7989, 97.3688, 0, 0, -0.000976562, 9.85645, -0.109375, -0.331055, 11.29.2021 15:13:17.053
1021, 22.5486, 88.9498, 97.3435, -0.000976562, -0.00195312, -0.000976562, 9.85742, -0.0849609, -0.258789, 11.29.2021 15:13:17.061
1022, 22.7302, 88.7949, 97.611, 0, -0.000976562, -0.000976562, 9.85742, -0.0478516, -0.28418, 11.29.2021 15:13:17.069
1023, 22.7918, 88.945, 97.585, -0.000976562, -0.000976562, 0, 9.88379, -0.0380859, -0.233398, 11.29.2021 15:13:17.077
1024, 22.5477, 88.7882, 97.424, -0.000976562, 0, 0, 9.8252, -0.0263672, -0.308594, 11.29.2021 15:13:17.085
1025, 22.4719, 88.7424, 97.3804, -0.000976562, -0.000976562, 0, 9.87695, -0.0410156, -0.214844, 11.29.2021 15:13:17.093
1026, 22.1915, 88.9349, 96.9789, 0, -0.000976562, -0.000976562, 9.87793, -0.0917969, -0.207031, 11.29.2021 15:13:17.101
1027, 22.2322, 88.6082, 97.2234, 0, -0.000976562, -0.00195312, 9.89941, -0.110352, -0.212891, 11.29.2021 15:13:17.109
1028, 22.0191, 88.9274, 96.8027, -0.000976562, -0.000976562, 0, 9.87305, -0.130859, -0.246094, 11.29.2021 15:13:17.117
1029, 22.0594, 88.6024, 97.0455, -0.000976562, -0.000976562, 0, 9.86328, -0.104492, -0.240234, 11.29.2021 15:13:17.125
1030, 21.8505, 88.9199, 96.6304, 0, -0.000976562, -0.000976562, 9.86523, -0.0966797, -0.208984, 11.29.2021 15:13:17.133
1031, 22.0249, 88.7687, 96.8885, 0, -0.000976562, -0.000976562, 9.88281, -0.102539, -0.152344, 11.29.2021 15:13:17.141
1032, 21.954, 88.7233, 96.8493, -0.000976562, 0, -0.000976562, 9.89746, -0.0332031, -0.145508, 11.29.2021 15:13:17.149
1033, 21.954, 88.7233, 96.8493, 0, 0, -0.000976562, 9.89746, -0.0605469, -0.120117, 11.29.2021 15:13:17.155
1034, 21.954, 88.7233, 96.8493, 0, -0.000976562, 0, 9.88867, -0.0634766, -0.115234, 11.29.2021 15:13:17.163
1035, 21.954, 88.7233, 96.8493, -0.000976562, -0.000976562, -0.000976562, 9.89258, -0.0380859, -0.158203, 11.29.2021 15:13:17.171
1036, 22.0878, 88.9152, 96.866, 0, 0, 0, 9.85254, -0.110352, -0.0927734, 11.29.2021 15:13:17.179
1037, 22.3591, 88.7256, 97.2556, 0, 0, 0, 9.85742, -0.131836, -0.141602, 11.29.2021 15:13:17.187
1038, 22.3591, 88.7256, 97.2556, 0, 0, -0.000976562, 9.8877, -0.105469, -0.160156, 11.29.2021 15:13:17.195
1039, 22.493, 88.9179, 97.2734, -0.000976562, -0.000976562, 0, 9.86719, -0.0976562, -0.240234, 11.29.2021 15:13:17.203
1040, 22.7677, 88.7279, 97.6653, 0, -0.000976562, 0, 9.88184, -0.0351562, -0.248047, 11.29.2021 15:13:17.211
1041, 22.7677, 88.7279, 97.6653, 0, 0, 0, 9.8623, -0.0234375, -0.251953, 11.29.2021 15:13:17.219
1042, 22.493, 88.9179, 97.2734, 0, -0.000976562, 0, 9.85938, -0.0224609, -0.258789, 11.29.2021 15:13:17.227
1043, 22.4323, 88.7711, 97.2973, 0, -0.000976562, 0, 9.87793, -0.0527344, -0.163086, 11.29.2021 15:13:17.235
1044, 22.4323, 88.7711, 97.2973, 0, -0.000976562, 0, 9.88281, -0.0664062, -0.166016, 11.29.2021 15:13:17.243
1045, 22.1226, 88.7296, 97.0224, 0, -0.000976562, 0, 9.87305, -0.110352, -0.214844, 11.29.2021 15:13:17.251
1046, 22.1226, 88.7296, 97.0224, 0, -0.000976562, 0.000976562, 9.87109, -0.0566406, -0.179688, 11.29.2021 15:13:17.259
1047, 22.1226, 88.7296, 97.0224, 0, 0, 0, 9.88281, -0.104492, -0.171875, 11.29.2021 15:13:17.267
1048, 22.1226, 88.7296, 97.0224, -0.000976562, 0, -0.000976562, 9.87305, -0.0986328, -0.21875, 11.29.2021 15:13:17.275
