Seq, Rot x, Rot y, Rot z, Vel x, Vel y, Vel z, Acc x, Acc y, Acc z, Time(m.d.y h:m:s.ms)
0, 1.78362, 0.575892, 103.891, -0.000976562, -0.000976562, 0, -0.125, 0.308594, -9.69238, 1.13.2022 15:27:17.797
1, 1.78362, 0.575892, 103.891, 0, -0.000976562, 0, -0.130859, 0.322266, -9.74121, 1.13.2022 15:27:17.803
2, 1.78362, 0.575892, 103.891, 0, -0.000976562, 0, -0.0498047, 0.269531, -9.75098, 1.13.2022 15:27:17.811
3, 1.77812, 0.580202, 103.891, -0.000976562, -0.000976562, 0, -0.150391, 0.330078, -9.75977, 1.13.2022 15:27:17.819
4, 1.77812, 0.580202, 103.891, -0.000976562, 0, 0, -0.0927734, 0.300781, -9.75488, 1.13.2022 15:27:17.827
5, 1.77812, 0.580202, 103.891, 0, -0.000976562, 0, -0.078125, 0.288086, -9.72949, 1.13.2022 15:27:17.835
6, 1.77812, 0.580202, 103.891, 0, -0.000976562, 0, -0.130859, 0.308594, -9.76562, 1.13.2022 15:27:17.843
7, 1.78242, 0.585709, 103.891, -0.000976562, -0.000976562, 0, -0.0566406, 0.297852, -9.7334, 1.13.2022 15:27:17.851
8, 1.78242, 0.585709, 103.891, -0.000976562, -0.000976562, 0, -0.116211, 0.276367, -9.74023, 1.13.2022 15:27:17.859
9, 1.78225, 0.585646, 103.882, -0.000976562, 0, 0, -0.121094, 0.288086, -9.74512, 1.13.2022 15:27:17.867
10, 1.77812, 0.580202, 103.891, 0, 0, -0.000976562, -0.0546875, 0.279297, -9.75781, 1.13.2022 15:27:17.875
11, 1.77812, 0.580202, 103.891, 0.000976562, 0, -0.000976562, -0.15332, 0.306641, -9.77734, 1.13.2022 15:27:17.883
12, 1.77261, 0.584513, 103.891, 0.000976562, 0, 0, -0.0830078, 0.306641, -9.72852, 1.13.2022 15:27:17.891
13, 1.77261, 0.584513, 103.891, 0.000976562, 0, 0, -0.0927734, 0.314453, -9.73535, 1.13.2022 15:27:17.899
14, 1.77261, 0.584513, 103.891, 0.000976562, 0, -0.000976562, -0.128906, 0.3125, -9.74219, 1.13.2022 15:27:17.907
15, 1.77261, 0.584513, 103.891, 0, -0.000976562, -0.000976562, -0.0527344, 0.289062, -9.76758, 1.13.2022 15:27:17.915
16, 1.77261, 0.584513, 103.891, 0, -0.000976562, -0.000976562, -0.135742, 0.288086, -9.73047, 1.13.2022 15:27:17.923
17, 1.77261, 0.584513, 103.891, -0.000976562, -0.000976562, 0, -0.0898438, 0.306641, -9.71875, 1.13.2022 15:27:17.931
18, 1.77261, 0.584513, 103.891, 0, -0.000976562, 0, -0.0664062, 0.300781, -9.74805, 1.13.2022 15:27:17.939
19, 1.77261, 0.584513, 103.891, -0.000976562, -0.000976562, 0, -0.173828, 0.306641, -9.71484, 1.13.2022 15:27:17.947
20, 1.77261, 0.584513, 103.891, -0.000976562, 0, 0, -0.0898438, 0.319336, -9.72363, 1.13.2022 15:27:17.955
21, 1.77261, 0.584513, 103.891, 0, 0, 0, -0.107422, 0.308594, -9.76367, 1.13.2022 15:27:17.963
22, 1.77261, 0.584513, 103.891, 0, -0.000976562, 0, -0.124023, 0.332031, -9.75293, 1.13.2022 15:27:17.971
23, 1.77261, 0.584513, 103.891, -0.000976562, -0.000976562, -0.000976562, -0.0488281, 0.290039, -9.79297, 1.13.2022 15:27:17.979
24, 1.77261, 0.584513, 103.891, -0.000976562, -0.000976562, 0, -0.138672, 0.327148, -9.75977, 1.13.2022 15:27:17.987
25, 1.77261, 0.584513, 103.891, 0, 0, 0, -0.118164, 0.313477, -9.70605, 1.13.2022 15:27:17.995
26, 1.77692, 0.59002, 103.891, 0, 0, 0, -0.0830078, 0.27832, -9.73828, 1.13.2022 15:27:18.003
27, 1.77692, 0.59002, 103.891, 0, 0, 0, -0.145508, 0.31543, -9.77246, 1.13.2022 15:27:18.011
28, 1.77692, 0.59002, 103.891, 0, 0, 0, -0.0693359, 0.280273, -9.78418, 1.13.2022 15:27:18.019
29, 1.77675, 0.589956, 103.882, 0, 0, 0.000976562, -0.102539, 0.260742, -9.7627, 1.13.2022 15:27:18.027
30, 1.77675, 0.589956, 103.882, -0.000976562, 0, 0, -0.162109, 0.304688, -9.73438, 1.13.2022 15:27:18.035
31, 1.77675, 0.589956, 103.882, -0.000976562, -0.000976562, -0.000976562, -0.0585938, 0.270508, -9.71777, 1.13.2022 15:27:18.043
32, 1.77675, 0.589956, 103.882, 0, -0.000976562, 0, -0.135742, 0.299805, -9.72754, 1.13.2022 15:27:18.051
33, 1.77124, 0.594267, 103.882, -0.000976562, -0.000976562, 0, -0.119141, 0.294922, -9.72559, 1.13.2022 15:27:18.059
34, 1.77124, 0.594267, 103.882, -0.000976562, -0.000976562, 0, -0.0517578, 0.293945, -9.70117, 1.13.2022 15:27:18.067
35, 1.77124, 0.594267, 103.882, 0, 0, -0.000976562, -0.170898, 0.30957, -9.72266, 1.13.2022 15:27:18.075
36, 1.77124, 0.594267, 103.882, 0, -0.000976562, -0.000976562, -0.0556641, 0.291016, -9.68457, 1.13.2022 15:27:18.083
37, 1.77141, 0.59433, 103.891, 0, -0.000976562, -0.000976562, -0.101562, 0.280273, -9.72461, 1.13.2022 15:27:18.091
38, 1.76591, 0.598641, 103.891, 0, -0.000976562, 0, -0.12793, 0.30957, -9.72559, 1.13.2022 15:27:18.099
39, 1.76591, 0.598641, 103.891, 0, 0, -0.000976562, -0.0527344, 0.261719, -9.73926, 1.13.2022 15:27:18.107
40, 1.76591, 0.598641, 103.891, 0, 0, -0.000976562, -0.170898, 0.275391, -9.71875, 1.13.2022 15:27:18.115
41, 1.76591, 0.598641, 103.891, -0.000976562, 0, 0, -0.119141, 0.291016, -9.7334, 1.13.2022 15:27:18.123
42, 1.76591, 0.598641, 103.891, -0.000976562, -0.000976562, -0.000976562, -0.104492, 0.262695, -9.75098, 1.13.2022 15:27:18.131
43, 1.7604, 0.602951, 103.891, -0.000976562, 0, -0.000976562, -0.140625, 0.307617, -9.73438, 1.13.2022 15:27:18.139
44, 1.7604, 0.602951, 103.891, 0, -0.000976562, 0, -0.0498047, 0.330078, -9.7168, 1.13.2022 15:27:18.147
45, 1.7604, 0.602951, 103.891, 0, -0.000976562, 0, -0.0839844, 0.293945, -9.75684, 1.13.2022 15:27:18.155
46, 1.7604, 0.602951, 103.891, 0, 0, 0, -0.118164, 0.335938, -9.72266, 1.13.2022 15:27:18.163
47, 1.7604, 0.602951, 103.891, 0, -0.000976562, 0, -0.0332031, 0.282227, -9.71582, 1.13.2022 15:27:18.169
48, 1.7604, 0.602951, 103.891, -0.000976562, -0.000976562, 0, -0.142578, 0.302734, -9.74414, 1.13.2022 15:27:18.177
49, 1.7604, 0.602951, 103.891, 0, 0, 0, -0.0976562, 0.300781, -9.75684, 1.13.2022 15:27:18.185
50, 1.7604, 0.602951, 103.891, 0.000976562, 0, -0.000976562, -0.0810547, 0.297852, -9.74023, 1.13.2022 15:27:18.193
51, 1.7604, 0.602951, 103.891, 0, -0.000976562, 0, -0.132812, 0.326172, -9.73926, 1.13.2022 15:27:18.201
52, 1.7604, 0.602951, 103.891, 0, -0.000976562, 0, -0.0908203, 0.288086, -9.74316, 1.13.2022 15:27:18.209
53, 1.7604, 0.602951, 103.891, 0, -0.000976562, 0, -0.126953, 0.298828, -9.76074, 1.13.2022 15:27:18.217
54, 1.7604, 0.602951, 103.891, 0, -0.000976562, 0, -0.121094, 0.314453, -9.73242, 1.13.2022 15:27:18.225
55, 1.7604, 0.602951, 103.891, 0.000976562, -0.000976562, -0.000976562, -0.0712891, 0.28125, -9.73145, 1.13.2022 15:27:18.233
56, 1.7604, 0.602951, 103.891, 0, -0.000976562, 0, -0.146484, 0.318359, -9.70605, 1.13.2022 15:27:18.241
57, 1.75473, 0.6072, 103.882, 0, -0.000976562, 0.000976562, -0.117188, 0.300781, -9.76562, 1.13.2022 15:27:18.249
58, 1.75473, 0.6072, 103.882, 0, 0, 0, -0.0810547, 0.298828, -9.78027, 1.13.2022 15:27:18.257
59, 1.76023, 0.602889, 103.882, -0.000976562, 0, 0, -0.139648, 0.301758, -9.72266, 1.13.2022 15:27:18.265
60, 1.76023, 0.602889, 103.882, -0.00195312, 0, 0, -0.0332031, 0.31543, -9.7666, 1.13.2022 15:27:18.273
61, 1.76023, 0.602889, 103.882, -0.000976562, 0, -0.000976562, -0.119141, 0.288086, -9.74219, 1.13.2022 15:27:18.281
62, 1.76023, 0.602889, 103.882, -0.000976562, -0.000976562, 0, -0.106445, 0.331055, -9.73242, 1.13.2022 15:27:18.289
63, 1.76023, 0.602889, 103.882, 0, -0.000976562, 0, -0.0517578, 0.303711, -9.70996, 1.13.2022 15:27:18.297
64, 1.76454, 0.608396, 103.881, 0, -0.000976562, 0, -0.15918, 0.30957, -9.72266, 1.13.2022 15:27:18.305
65, 1.76454, 0.608396, 103.881, 0.000976562, -0.000976562, 0, -0.0849609, 0.331055, -9.72266, 1.13.2022 15:27:18.313
66, 1.76454, 0.608396, 103.881, 0, -0.000976562, 0, -0.0615234, 0.276367, -9.75098, 1.13.2022 15:27:18.321
67, 1.77005, 0.604085, 103.881, 0.000976562, -0.000976562, -0.000976562, -0.130859, 0.299805, -9.71875, 1.13.2022 15:27:18.329
68, 1.77005, 0.604085, 103.881, 0.000976562, -0.000976562, -0.000976562, -0.0683594, 0.251953, -9.72754, 1.13.2022 15:27:18.337
69, 1.77005, 0.604085, 103.881, -0.000976562, -0.000976562, 0, -0.149414, 0.292969, -9.73535, 1.13.2022 15:27:18.345
70, 1.77005, 0.604085, 103.881, 0, -0.000976562, -0.000976562, -0.142578, 0.270508, -9.71387, 1.13.2022 15:27:18.353
71, 1.77005, 0.604085, 103.881, -0.00195312, -0.000976562, 0, -0.0810547, 0.279297, -9.75488, 1.13.2022 15:27:18.361
72, 1.77005, 0.604085, 103.881, -0.00195312, -0.000976562, -0.000976562, -0.164062, 0.314453, -9.71973, 1.13.2022 15:27:18.369
73, 1.76454, 0.608396, 103.881, -0.000976562, -0.000976562, -0.000976562, -0.078125, 0.292969, -9.74121, 1.13.2022 15:27:18.377
74, 1.76454, 0.608396, 103.881, -0.000976562, -0.000976562, 0, -0.0830078, 0.286133, -9.73828, 1.13.2022 15:27:18.385
75, 1.76454, 0.608396, 103.881, 0, -0.000976562, -0.000976562, -0.128906, 0.333984, -9.74805, 1.13.2022 15:27:18.393
76, 1.76471, 0.608458, 103.891, -0.000976562, -0.000976562, 0, -0.0234375, 0.301758, -9.70801, 1.13.2022 15:27:18.401
77, 1.76454, 0.608396, 103.881, 0, -0.000976562, 0, -0.107422, 0.295898, -9.74219, 1.13.2022 15:27:18.409
78, 1.76454, 0.608396, 103.881, 0, 0, 0, -0.0927734, 0.275391, -9.71777, 1.13.2022 15:27:18.417
79, 1.76023, 0.602889, 103.882, 0.000976562, -0.000976562, 0, -0.0332031, 0.279297, -9.74902, 1.13.2022 15:27:18.425
80, 1.76023, 0.602889, 103.882, 0.000976562, 0, -0.000976562, -0.123047, 0.321289, -9.72754, 1.13.2022 15:27:18.433
81, 1.76023, 0.602889, 103.882, 0.000976562, 0, 0, -0.078125, 0.304688, -9.7168, 1.13.2022 15:27:18.441
82, 1.75592, 0.597383, 103.882, 0.000976562, -0.000976562, 0, -0.0878906, 0.27832, -9.74121, 1.13.2022 15:27:18.449
83, 1.75592, 0.597383, 103.882, 0.000976562, 0, 0, -0.114258, 0.327148, -9.74902, 1.13.2022 15:27:18.457
84, 1.76143, 0.593072, 103.882, 0, -0.000976562, 0, -0.0234375, 0.271484, -9.75684, 1.13.2022 15:27:18.465
85, 1.76143, 0.593072, 103.882, -0.000976562, -0.00195312, 0, -0.104492, 0.291016, -9.75488, 1.13.2022 15:27:18.473
86, 1.75712, 0.587565, 103.882, 0, -0.00195312, 0, -0.078125, 0.304688, -9.74512, 1.13.2022 15:27:18.481
87, 1.75712, 0.587565, 103.882, -0.000976562, -0.000976562, 0, -0.0478516, 0.277344, -9.78906, 1.13.2022 15:27:18.489
88, 1.75712, 0.587565, 103.882, 0, -0.000976562, -0.000976562, -0.157227, 0.324219, -9.72656, 1.13.2022 15:27:18.497
89, 1.75281, 0.582058, 103.882, -0.000976562, 0, -0.000976562, -0.0810547, 0.30957, -9.7334, 1.13.2022 15:27:18.505
90, 1.75832, 0.577747, 103.882, -0.00195312, 0, -0.000976562, -0.0996094, 0.271484, -9.74121, 1.13.2022 15:27:18.513
91, 1.75832, 0.577747, 103.882, -0.00195312, -0.000976562, 0, -0.125977, 0.321289, -9.73438, 1.13.2022 15:27:18.521
92, 1.75832, 0.577747, 103.882, 0, -0.000976562, 0, -0.0615234, 0.30957, -9.74316, 1.13.2022 15:27:18.529
93, 1.75832, 0.577747, 103.882, 0.000976562, -0.000976562, 0, -0.109375, 0.329102, -9.73438, 1.13.2022 15:27:18.537
94, 1.75401, 0.572241, 103.882, 0.00195312, -0.00195312, 0, -0.09375, 0.332031, -9.77441, 1.13.2022 15:27:18.545
95, 1.75401, 0.572241, 103.882, 0.00195312, -0.000976562, -0.000976562, -0.0693359, 0.298828, -9.7666, 1.13.2022 15:27:18.553
96, 1.75951, 0.56793, 103.882, 0, 0, -0.000976562, -0.152344, 0.286133, -9.74023, 1.13.2022 15:27:18.561
97, 1.75951, 0.56793, 103.882, 0.000976562, -0.000976562, 0, -0.0595703, 0.243164, -9.75195, 1.13.2022 15:27:18.569
98, 1.75951, 0.56793, 103.882, 0, -0.000976562, -0.000976562, -0.125977, 0.251953, -9.72656, 1.13.2022 15:27:18.577
99, 1.75951, 0.56793, 103.882, 0, -0.000976562, 0, -0.142578, 0.299805, -9.71875, 1.13.2022 15:27:18.585
100, 1.75951, 0.56793, 103.882, -0.000976562, 0.000976562, 0, -0.046875, 0.28418, -9.6875, 1.13.2022 15:27:18.593
101, 1.75951, 0.56793, 103.882, -0.00195312, 0, 0, -0.146484, 0.327148, -9.66797, 1.13.2022 15:27:18.601
102, 1.75951, 0.56793, 103.882, -0.000976562, -0.00195312, -0.000976562, -0.101562, 0.321289, -9.72754, 1.13.2022 15:27:18.609
103, 1.75951, 0.56793, 103.882, -0.000976562, -0.00195312, 0, -0.0615234, 0.292969, -9.72461, 1.13.2022 15:27:18.617
104, 1.75951, 0.56793, 103.882, -0.000976562, -0.000976562, -0.000976562, -0.150391, 0.301758, -9.77246, 1.13.2022 15:27:18.625
105, 1.75951, 0.56793, 103.882, 0.000976562, -0.000976562, -0.000976562, -0.0566406, 0.285156, -9.72461, 1.13.2022 15:27:18.633
106, 1.75968, 0.567993, 103.892, 0, 0, -0.000976562, -0.0810547, 0.277344, -9.76758, 1.13.2022 15:27:18.641
107, 1.75968, 0.567993, 103.892, 0, 0.00195312, -0.000976562, -0.0917969, 0.282227, -9.70996, 1.13.2022 15:27:18.649
108, 1.75537, 0.562486, 103.892, 0, 0, -0.000976562, -0.0849609, 0.251953, -9.71094, 1.13.2022 15:27:18.657
109, 1.74987, 0.566797, 103.892, 0, -0.00195312, 0, -0.164062, 0.291992, -9.70898, 1.13.2022 15:27:18.665
110, 1.74987, 0.566797, 103.892, -0.000976562, -0.000976562, -0.000976562, -0.106445, 0.308594, -9.71191, 1.13.2022 15:27:18.673
111, 1.74987, 0.566797, 103.892, -0.000976562, -0.000976562, 0, -0.118164, 0.306641, -9.69727, 1.13.2022 15:27:18.681
112, 1.74987, 0.566797, 103.892, -0.000976562, 0, -0.000976562, -0.175781, 0.335938, -9.71191, 1.13.2022 15:27:18.689
113, 1.75418, 0.572303, 103.892, 0, -0.000976562, 0, -0.0615234, 0.313477, -9.7168, 1.13.2022 15:27:18.697
114, 1.75418, 0.572303, 103.892, 0.000976562, -0.00195312, -0.000976562, -0.0859375, 0.300781, -9.75, 1.13.2022 15:27:18.705
115, 1.74867, 0.576614, 103.892, 0.000976562, -0.00195312, 0, -0.0878906, 0.320312, -9.75879, 1.13.2022 15:27:18.713
116, 1.74867, 0.576614, 103.892, 0.00195312, -0.000976562, 0, -0.0332031, 0.279297, -9.75586, 1.13.2022 15:27:18.721
117, 1.74867, 0.576614, 103.892, 0.000976562, -0.000976562, 0, -0.128906, 0.310547, -9.76074, 1.13.2022 15:27:18.729
118, 1.74867, 0.576614, 103.892, 0, -0.000976562, -0.000976562, -0.0761719, 0.314453, -9.72852, 1.13.2022 15:27:18.737
119, 1.74867, 0.576614, 103.892, 0, -0.00195312, -0.000976562, -0.112305, 0.28418, -9.76855, 1.13.2022 15:27:18.745
120, 1.74867, 0.576614, 103.892, -0.000976562, 0, -0.000976562, -0.166992, 0.286133, -9.75586, 1.13.2022 15:27:18.753
121, 1.74867, 0.576614, 103.892, -0.000976562, 0, 0, -0.0732422, 0.271484, -9.72754, 1.13.2022 15:27:18.761
122, 1.74867, 0.576614, 103.892, -0.00292969, -0.000976562, 0, -0.125977, 0.270508, -9.71191, 1.13.2022 15:27:18.769
123, 1.75298, 0.582121, 103.892, -0.00292969, -0.00195312, 0, -0.128906, 0.297852, -9.7373, 1.13.2022 15:27:18.777
124, 1.75298, 0.582121, 103.892, -0.000976562, -0.00195312, -0.000976562, -0.0615234, 0.302734, -9.73633, 1.13.2022 15:27:18.785
125, 1.75298, 0.582121, 103.892, -0.000976562, -0.000976562, -0.000976562, -0.152344, 0.345703, -9.72852, 1.13.2022 15:27:18.793
126, 1.75298, 0.582121, 103.892, -0.000976562, -0.000976562, -0.000976562, -0.0976562, 0.330078, -9.76758, 1.13.2022 15:27:18.801
127, 1.75298, 0.582121, 103.892, 0, 0, -0.000976562, -0.0830078, 0.276367, -9.74805, 1.13.2022 15:27:18.809
128, 1.75729, 0.587627, 103.892, 0, 0.00195312, -0.000976562, -0.152344, 0.319336, -9.74121, 1.13.2022 15:27:18.817
129, 1.75729, 0.587627, 103.892, 0, 0.00195312, -0.000976562, -0.0742188, 0.248047, -9.73926, 1.13.2022 15:27:18.825
130, 1.75729, 0.587627, 103.892, -0.000976562, 0, 0, -0.134766, 0.267578, -9.68164, 1.13.2022 15:27:18.833
131, 1.75729, 0.587627, 103.892, 0, 0, 0, -0.121094, 0.303711, -9.69922, 1.13.2022 15:27:18.841
132, 1.75729, 0.587627, 103.892, 0, 0.00195312, -0.000976562, -0.0566406, 0.291992, -9.71289, 1.13.2022 15:27:18.849
133, 1.75729, 0.587627, 103.892, 0.000976562, -0.000976562, -0.000976562, -0.151367, 0.320312, -9.66992, 1.13.2022 15:27:18.857
134, 1.75729, 0.587627, 103.892, 0.000976562, -0.00195312, 0, -0.0546875, 0.314453, -9.72852, 1.13.2022 15:27:18.865
135, 1.75178, 0.591938, 103.892, 0, -0.00292969, 0, -0.0498047, 0.273438, -9.73926, 1.13.2022 15:27:18.873
136, 1.75178, 0.591938, 103.892, 0, -0.00195312, 0, -0.0957031, 0.28418, -9.75, 1.13.2022 15:27:18.881
137, 1.75178, 0.591938, 103.892, 0, 0, 0, -0.0283203, 0.276367, -9.75098, 1.13.2022 15:27:18.889
138, 1.75178, 0.591938, 103.892, 0, 0, -0.000976562, -0.0927734, 0.28125, -9.74316, 1.13.2022 15:27:18.897
139, 1.75178, 0.591938, 103.892, -0.000976562, -0.000976562, 0, -0.128906, 0.302734, -9.74707, 1.13.2022 15:27:18.905
140, 1.75298, 0.582121, 103.892, -0.00195312, 0, 0, -0.078125, 0.294922, -9.7334, 1.13.2022 15:27:18.913
141, 1.75298, 0.582121, 103.892, -0.000976562, -0.000976562, 0, -0.166016, 0.294922, -9.71777, 1.13.2022 15:27:18.921
142, 1.75298, 0.582121, 103.892, -0.000976562, -0.000976562, -0.000976562, -0.119141, 0.286133, -9.73047, 1.13.2022 15:27:18.929
143, 1.75298, 0.582121, 103.892, -0.000976562, -0.000976562, 0, -0.124023, 0.266602, -9.73145, 1.13.2022 15:27:18.937
144, 1.74748, 0.586431, 103.892, -0.000976562, -0.000976562, -0.000976562, -0.147461, 0.331055, -9.7334, 1.13.2022 15:27:18.945
145, 1.74748, 0.586431, 103.892, 0, -0.00195312, 0.000976562, -0.0830078, 0.30957, -9.72168, 1.13.2022 15:27:18.953
146, 1.74748, 0.586431, 103.892, 0, -0.00195312, 0, -0.133789, 0.322266, -9.76074, 1.13.2022 15:27:18.961
147, 1.75178, 0.591938, 103.892, 0.000976562, -0.00195312, 0, -0.0810547, 0.322266, -9.74902, 1.13.2022 15:27:18.969
148, 1.75178, 0.591938, 103.892, 0, -0.000976562, -0.000976562, -0.0664062, 0.28125, -9.75781, 1.13.2022 15:27:18.977
149, 1.75178, 0.591938, 103.892, 0.000976562, -0.000976562, -0.000976562, -0.140625, 0.28418, -9.76367, 1.13.2022 15:27:18.985
150, 1.75178, 0.591938, 103.892, 0.000976562, -0.000976562, -0.000976562, -0.0859375, 0.282227, -9.76465, 1.13.2022 15:27:18.993
151, 1.74628, 0.596248, 103.892, 0.000976562, -0.000976562, -0.000976562, -0.100586, 0.28418, -9.76855, 1.13.2022 15:27:19.001
152, 1.74628, 0.596248, 103.892, 0, -0.000976562, 0, -0.157227, 0.295898, -9.75391, 1.13.2022 15:27:19.009
153, 1.74628, 0.596248, 103.892, -0.000976562, -0.000976562, 0, -0.0615234, 0.288086, -9.75098, 1.13.2022 15:27:19.017
154, 1.74628, 0.596248, 103.892, -0.000976562, -0.000976562, 0, -0.132812, 0.273438, -9.72168, 1.13.2022 15:27:19.025
155, 1.74628, 0.596248, 103.892, -0.00195312, 0, -0.000976562, -0.116211, 0.270508, -9.7168, 1.13.2022 15:27:19.033
156, 1.74628, 0.596248, 103.892, -0.00195312, -0.000976562, 0, -0.0927734, 0.302734, -9.75, 1.13.2022 15:27:19.041
157, 1.74628, 0.596248, 103.892, -0.000976562, 0, -0.000976562, -0.19043, 0.331055, -9.72168, 1.13.2022 15:27:19.049
158, 1.75059, 0.601755, 103.892, 0, -0.000976562, 0, -0.0927734, 0.306641, -9.7168, 1.13.2022 15:27:19.057
159, 1.74508, 0.606066, 103.892, 0, -0.000976562, 0, -0.0888672, 0.325195, -9.78418, 1.13.2022 15:27:19.065
160, 1.74508, 0.606066, 103.892, -0.000976562, -0.000976562, 0, -0.0976562, 0.3125, -9.75879, 1.13.2022 15:27:19.073
161, 1.74508, 0.606066, 103.892, 0, -0.000976562, -0.000976562, -0.0429688, 0.307617, -9.75977, 1.13.2022 15:27:19.081
162, 1.74508, 0.606066, 103.892, 0, 0.000976562, -0.000976562, -0.178711, 0.299805, -9.72754, 1.13.2022 15:27:19.089
163, 1.74508, 0.606066, 103.892, 0, 0, 0, -0.0996094, 0.328125, -9.72559, 1.13.2022 15:27:19.097
164, 1.74939, 0.611572, 103.891, 0, 0, 0, -0.0634766, 0.305664, -9.67676, 1.13.2022 15:27:19.105
165, 1.7549, 0.607262, 103.891, 0.000976562, 0, 0, -0.162109, 0.295898, -9.74121, 1.13.2022 15:27:19.113
166, 1.7549, 0.607262, 103.891, 0, -0.000976562, 0, -0.0546875, 0.276367, -9.74609, 1.13.2022 15:27:19.121
167, 1.7549, 0.607262, 103.891, 0, -0.00195312, 0, -0.103516, 0.287109, -9.68359, 1.13.2022 15:27:19.129
168, 1.7549, 0.607262, 103.891, 0, -0.000976562, -0.000976562, -0.114258, 0.268555, -9.73145, 1.13.2022 15:27:19.137
169, 1.7549, 0.607262, 103.891, -0.000976562, 0, 0, -0.0566406, 0.272461, -9.69922, 1.13.2022 15:27:19.145
170, 1.7549, 0.607262, 103.891, -0.000976562, -0.000976562, -0.000976562, -0.150391, 0.297852, -9.74219, 1.13.2022 15:27:19.151
171, 1.7549, 0.607262, 103.891, -0.000976562, -0.000976562, 0, -0.107422, 0.289062, -9.75684, 1.13.2022 15:27:19.159
172, 1.7549, 0.607262, 103.891, -0.00292969, 0, 0, -0.0927734, 0.295898, -9.75488, 1.13.2022 15:27:19.167
173, 1.7549, 0.607262, 103.891, -0.00195312, 0, 0, -0.149414, 0.297852, -9.72754, 1.13.2022 15:27:19.175
174, 1.7549, 0.607262, 103.891, -0.00195312, -0.000976562, -0.000976562, -0.0712891, 0.291016, -9.74316, 1.13.2022 15:27:19.183
175, 1.7549, 0.607262, 103.891, -0.000976562, -0.000976562, -0.000976562, -0.102539, 0.283203, -9.73633, 1.13.2022 15:27:19.191
176, 1.7549, 0.607262, 103.891, -0.000976562, -0.000976562, 0, -0.126953, 0.318359, -9.7793, 1.13.2022 15:27:19.199
177, 1.7549, 0.607262, 103.891, -0.000976562, -0.000976562, 0, -0.0253906, 0.296875, -9.72754, 1.13.2022 15:27:19.207
178, 1.7549, 0.607262, 103.891, 0, -0.000976562, 0, -0.134766, 0.352539, -9.71191, 1.13.2022 15:27:19.215
179, 1.7549, 0.607262, 103.891, 0.00195312, 0, 0, -0.0927734, 0.34375, -9.75293, 1.13.2022 15:27:19.223
180, 1.7549, 0.607262, 103.891, 0.000976562, 0, 0, -0.0615234, 0.324219, -9.74512, 1.13.2022 15:27:19.231
181, 1.7549, 0.607262, 103.891, 0.00292969, -0.000976562, -0.000976562, -0.135742, 0.334961, -9.7627, 1.13.2022 15:27:19.239
182, 1.7549, 0.607262, 103.891, 0.00195312, 0, -0.000976562, -0.0576172, 0.243164, -9.74512, 1.13.2022 15:27:19.247
183, 1.7549, 0.607262, 103.891, 0.000976562, 0.000976562, -0.000976562, -0.124023, 0.243164, -9.73926, 1.13.2022 15:27:19.255
184, 1.75059, 0.601755, 103.892, 0.000976562, 0, -0.000976562, -0.147461, 0.276367, -9.72852, 1.13.2022 15:27:19.263
185, 1.75059, 0.601755, 103.892, 0, -0.000976562, 0, -0.046875, 0.269531, -9.68066, 1.13.2022 15:27:19.271
186, 1.75059, 0.601755, 103.892, -0.000976562, -0.000976562, 0.000976562, -0.142578, 0.290039, -9.71875, 1.13.2022 15:27:19.279
187, 1.75059, 0.601755, 103.892, -0.00195312, -0.00195312, 0, -0.0976562, 0.300781, -9.75391, 1.13.2022 15:27:19.287
188, 1.75059, 0.601755, 103.892, -0.00195312, -0.00195312, 0, -0.0996094, 0.299805, -9.73535, 1.13.2022 15:27:19.295
189, 1.75059, 0.601755, 103.892, -0.00195312, -0.000976562, 0, -0.118164, 0.331055, -9.71973, 1.13.2022 15:27:19.303
190, 1.75609, 0.597444, 103.892, -0.000976562, 0, -0.000976562, -0.0712891, 0.310547, -9.7666, 1.13.2022 15:27:19.311
191, 1.75609, 0.597444, 103.892, -0.000976562, 0, 0, -0.119141, 0.324219, -9.7373, 1.13.2022 15:27:19.319
192, 1.75609, 0.597444, 103.892, 0, -0.000976562, 0, -0.161133, 0.352539, -9.71875, 1.13.2022 15:27:19.327
193, 1.75609, 0.597444, 103.892, 0, 0.000976562, 0, -0.0683594, 0.339844, -9.71387, 1.13.2022 15:27:19.335
194, 1.75609, 0.597444, 103.892, 0.00195312, 0, 0, -0.137695, 0.319336, -9.72266, 1.13.2022 15:27:19.343
195, 1.7604, 0.602951, 103.891, 0.000976562, -0.000976562, -0.000976562, -0.0761719, 0.276367, -9.75781, 1.13.2022 15:27:19.351
196, 1.7604, 0.602951, 103.891, 0.000976562, -0.000976562, -0.00195312, -0.0566406, 0.242188, -9.72363, 1.13.2022 15:27:19.359
197, 1.7604, 0.602951, 103.891, 0.000976562, -0.000976562, -0.000976562, -0.147461, 0.271484, -9.74023, 1.13.2022 15:27:19.367
198, 1.7604, 0.602951, 103.891, 0.000976562, 0, 0, -0.0576172, 0.291016, -9.75977, 1.13.2022 15:27:19.375
199, 1.7604, 0.602951, 103.891, -0.000976562, 0, 0, -0.124023, 0.291016, -9.75, 1.13.2022 15:27:19.383
200, 1.75609, 0.597444, 103.892, -0.000976562, 0, 0, -0.126953, 0.277344, -9.76172, 1.13.2022 15:27:19.391
201, 1.75609, 0.597444, 103.892, -0.00195312, 0, 0, -0.0996094, 0.269531, -9.73828, 1.13.2022 15:27:19.399
202, 1.75609, 0.597444, 103.892, -0.00195312, 0, 0, -0.152344, 0.310547, -9.74805, 1.13.2022 15:27:19.407
203, 1.75609, 0.597444, 103.892, -0.00195312, -0.000976562, 0, -0.0947266, 0.306641, -9.72559, 1.13.2022 15:27:19.415
204, 1.7604, 0.602951, 103.891, -0.000976562, 0, 0, -0.111328, 0.314453, -9.73242, 1.13.2022 15:27:19.423
205, 1.7604, 0.602951, 103.891, -0.000976562, 0, -0.000976562, -0.123047, 0.318359, -9.69727, 1.13.2022 15:27:19.431
206, 1.7604, 0.602951, 103.891, -0.000976562, -0.000976562, 0.000976562, -0.0595703, 0.314453, -9.74512, 1.13.2022 15:27:19.439
207, 1.76023, 0.602889, 103.882, 0, 0, 0, -0.113281, 0.320312, -9.69922, 1.13.2022 15:27:19.447
208, 1.76023, 0.602889, 103.882, 0, -0.000976562, -0.000976562, -0.0947266, 0.292969, -9.73828, 1.13.2022 15:27:19.455
209, 1.7604, 0.602951, 103.891, 0.000976562, -0.00195312, -0.000976562, -0.0683594, 0.266602, -9.7207, 1.13.2022 15:27:19.463
210, 1.7604, 0.602951, 103.891, 0.00195312, -0.000976562, -0.00195312, -0.137695, 0.311523, -9.72949, 1.13.2022 15:27:19.471
211, 1.7604, 0.602951, 103.891, 0.00195312, 0, -0.00195312, -0.0761719, 0.288086, -9.72168, 1.13.2022 15:27:19.479
212, 1.7604, 0.602951, 103.891, 0.000976562, 0, -0.000976562, -0.114258, 0.296875, -9.71875, 1.13.2022 15:27:19.487
213, 1.7604, 0.602951, 103.891, 0, -0.000976562, 0, -0.138672, 0.298828, -9.76074, 1.13.2022 15:27:19.495
214, 1.7604, 0.602951, 103.891, 0, -0.000976562, 0, -0.0712891, 0.263672, -9.72559, 1.13.2022 15:27:19.503
215, 1.7604, 0.602951, 103.891, -0.00195312, -0.00195312, -0.000976562, -0.152344, 0.276367, -9.73535, 1.13.2022 15:27:19.511
216, 1.7604, 0.602951, 103.891, -0.000976562, -0.00195312, 0, -0.123047, 0.304688, -9.7207, 1.13.2022 15:27:19.519
217, 1.7604, 0.602951, 103.891, -0.000976562, -0.00195312, 0, -0.0615234, 0.297852, -9.72949, 1.13.2022 15:27:19.527
218, 1.7549, 0.607262, 103.891, -0.000976562, -0.000976562, 0, -0.139648, 0.336914, -9.69629, 1.13.2022 15:27:19.535
219, 1.7549, 0.607262, 103.891, 0, -0.000976562, 0, -0.0712891, 0.324219, -9.73047, 1.13.2022 15:27:19.543
220, 1.7549, 0.607262, 103.891, 0.000976562, 0, 0.000976562, -0.125977, 0.294922, -9.73242, 1.13.2022 15:27:19.551
221, 1.7549, 0.607262, 103.891, 0.000976562, 0, -0.000976562, -0.116211, 0.324219, -9.72559, 1.13.2022 15:27:19.559
222, 1.7549, 0.607262, 103.891, 0.000976562, 0, -0.000976562, -0.0400391, 0.290039, -9.73242, 1.13.2022 15:27:19.567
223, 1.7549, 0.607262, 103.891, 0.000976562, 0, 0, -0.149414, 0.294922, -9.70605, 1.13.2022 15:27:19.575
224, 1.7549, 0.607262, 103.891, 0.000976562, -0.000976562, 0, -0.105469, 0.289062, -9.75977, 1.13.2022 15:27:19.583
225, 1.7549, 0.607262, 103.891, 0.000976562, -0.000976562, 0, -0.0830078, 0.266602, -9.73926, 1.13.2022 15:27:19.591
226, 1.7549, 0.607262, 103.891, 0, -0.000976562, 0, -0.147461, 0.271484, -9.72559, 1.13.2022 15:27:19.599
227, 1.7549, 0.607262, 103.891, -0.000976562, 0, 0, -0.0546875, 0.261719, -9.72754, 1.13.2022 15:27:19.607
228, 1.7549, 0.607262, 103.891, -0.00195312, -0.000976562, 0, -0.111328, 0.285156, -9.70312, 1.13.2022 15:27:19.615
229, 1.7549, 0.607262, 103.891, -0.000976562, 0, 0, -0.0996094, 0.328125, -9.71387, 1.13.2022 15:27:19.623
230, 1.7549, 0.607262, 103.891, -0.00195312, 0, 0, -0.0664062, 0.285156, -9.73145, 1.13.2022 15:27:19.631
231, 1.7549, 0.607262, 103.891, -0.00195312, 0.000976562, 0, -0.147461, 0.329102, -9.72949, 1.13.2022 15:27:19.639
232, 1.7549, 0.607262, 103.891, -0.000976562, 0, 0, -0.0849609, 0.308594, -9.69531, 1.13.2022 15:27:19.647
233, 1.75042, 0.601694, 103.882, -0.000976562, 0, 0, -0.0751953, 0.300781, -9.68848, 1.13.2022 15:27:19.655
234, 1.75592, 0.597383, 103.882, 0, 0, 0, -0.166992, 0.333984, -9.74023, 1.13.2022 15:27:19.663
235, 1.75592, 0.597383, 103.882, 0, 0, 0, -0.0458984, 0.272461, -9.78418, 1.13.2022 15:27:19.671
236, 1.75592, 0.597383, 103.882, 0, 0, 0, -0.102539, 0.283203, -9.74316, 1.13.2022 15:27:19.679
237, 1.75592, 0.597383, 103.882, 0.000976562, 0, 0, -0.123047, 0.306641, -9.71875, 1.13.2022 15:27:19.687
238, 1.75592, 0.597383, 103.882, 0.000976562, 0, 0, -0.0498047, 0.266602, -9.73438, 1.13.2022 15:27:19.695
239, 1.75592, 0.597383, 103.882, 0, 0, 0, -0.12793, 0.301758, -9.71582, 1.13.2022 15:27:19.703
240, 1.75592, 0.597383, 103.882, 0, 0, -0.000976562, -0.0878906, 0.286133, -9.73828, 1.13.2022 15:27:19.711
241, 1.75162, 0.591876, 103.882, 0, 0, 0, -0.0859375, 0.299805, -9.7334, 1.13.2022 15:27:19.719
242, 1.75162, 0.591876, 103.882, -0.000976562, 0, 0, -0.137695, 0.27832, -9.72168, 1.13.2022 15:27:19.727
243, 1.75162, 0.591876, 103.882, -0.00195312, 0, 0, -0.0449219, 0.263672, -9.71387, 1.13.2022 15:27:19.735
244, 1.75162, 0.591876, 103.882, -0.00195312, 0, -0.000976562, -0.100586, 0.277344, -9.76953, 1.13.2022 15:27:19.743
245, 1.75162, 0.591876, 103.882, -0.000976562, 0, 0, -0.121094, 0.326172, -9.71289, 1.13.2022 15:27:19.751
246, 1.74731, 0.586369, 103.882, -0.000976562, -0.000976562, 0, -0.0664062, 0.288086, -9.74316, 1.13.2022 15:27:19.759
247, 1.74731, 0.586369, 103.882, 0, 0, 0, -0.145508, 0.332031, -9.76465, 1.13.2022 15:27:19.767
248, 1.74731, 0.586369, 103.882, 0.000976562, -0.000976562, 0, -0.0839844, 0.320312, -9.76855, 1.13.2022 15:27:19.775
249, 1.74731, 0.586369, 103.882, 0, -0.000976562, 0, -0.0966797, 0.308594, -9.69238, 1.13.2022 15:27:19.783
250, 1.74731, 0.586369, 103.882, 0.00195312, 0, 0, -0.144531, 0.313477, -9.70801, 1.13.2022 15:27:19.791
251, 1.74731, 0.586369, 103.882, 0.00195312, -0.000976562, -0.000976562, -0.0693359, 0.292969, -9.74121, 1.13.2022 15:27:19.799
252, 1.74731, 0.586369, 103.882, 0, -0.00195312, -0.000976562, -0.121094, 0.28125, -9.74512, 1.13.2022 15:27:19.807
253, 1.74731, 0.586369, 103.882, 0, -0.00195312, 0, -0.116211, 0.296875, -9.71387, 1.13.2022 15:27:19.815
254, 1.74731, 0.586369, 103.882, 0, -0.000976562, 0, -0.0693359, 0.259766, -9.75586, 1.13.2022 15:27:19.823
255, 1.74731, 0.586369, 103.882, 0, -0.000976562, -0.000976562, -0.12793, 0.308594, -9.70898, 1.13.2022 15:27:19.831
256, 1.74731, 0.586369, 103.882, 0, -0.00195312, 0, -0.0664062, 0.294922, -9.70801, 1.13.2022 15:27:19.839
257, 1.74731, 0.586369, 103.882, -0.000976562, -0.000976562, -0.000976562, -0.078125, 0.277344, -9.71094, 1.13.2022 15:27:19.847
258, 1.74731, 0.586369, 103.882, -0.000976562, -0.00195312, -0.000976562, -0.123047, 0.318359, -9.71289, 1.13.2022 15:27:19.855
259, 1.74731, 0.586369, 103.882, -0.000976562, -0.000976562, -0.000976562, -0.0253906, 0.301758, -9.71582, 1.13.2022 15:27:19.863
260, 1.74731, 0.586369, 103.882, 0, -0.000976562, -0.000976562, -0.12793, 0.324219, -9.72949, 1.13.2022 15:27:19.871
261, 1.74731, 0.586369, 103.882, -0.000976562, -0.000976562, -0.000976562, -0.130859, 0.3125, -9.73242, 1.13.2022 15:27:19.879
262, 1.75281, 0.582058, 103.882, -0.000976562, 0, -0.000976562, -0.0732422, 0.27832, -9.72461, 1.13.2022 15:27:19.887
263, 1.75281, 0.582058, 103.882, 0.000976562, 0, 0, -0.166016, 0.280273, -9.71582, 1.13.2022 15:27:19.895
264, 1.75281, 0.582058, 103.882, 0.000976562, -0.000976562, 0, -0.0751953, 0.308594, -9.70215, 1.13.2022 15:27:19.903
265, 1.75281, 0.582058, 103.882, 0.000976562, 0, -0.000976562, -0.101562, 0.260742, -9.71094, 1.13.2022 15:27:19.911
266, 1.74748, 0.586431, 103.892, 0.000976562, 0, -0.000976562, -0.125977, 0.291016, -9.75879, 1.13.2022 15:27:19.919
267, 1.74748, 0.586431, 103.892, 0, 0, -0.000976562, -0.0664062, 0.28125, -9.73145, 1.13.2022 15:27:19.927
268, 1.74317, 0.580924, 103.892, 0, -0.000976562, 0, -0.142578, 0.27832, -9.7334, 1.13.2022 15:27:19.935
269, 1.74748, 0.586431, 103.892, -0.000976562, -0.000976562, 0, -0.130859, 0.301758, -9.71875, 1.13.2022 15:27:19.943
270, 1.74748, 0.586431, 103.892, -0.000976562, -0.000976562, 0, -0.0830078, 0.275391, -9.71484, 1.13.2022 15:27:19.951
271, 1.74748, 0.586431, 103.892, -0.00195312, 0, 0, -0.164062, 0.31543, -9.75488, 1.13.2022 15:27:19.959
272, 1.74731, 0.586369, 103.882, -0.000976562, -0.000976562, 0, -0.0664062, 0.319336, -9.73047, 1.13.2022 15:27:19.967
273, 1.74731, 0.586369, 103.882, 0.000976562, -0.000976562, 0, -0.102539, 0.289062, -9.75684, 1.13.2022 15:27:19.975
274, 1.7418, 0.59068, 103.882, -0.000976562, -0.000976562, 0, -0.135742, 0.327148, -9.75781, 1.13.2022 15:27:19.983
275, 1.7418, 0.59068, 103.882, -0.000976562, 0, 0, -0.0546875, 0.290039, -9.73438, 1.13.2022 15:27:19.991
276, 1.7418, 0.59068, 103.882, -0.000976562, -0.000976562, 0, -0.145508, 0.307617, -9.74902, 1.13.2022 15:27:19.999
277, 1.74611, 0.596187, 103.882, 0, -0.000976562, 0, -0.119141, 0.321289, -9.73438, 1.13.2022 15:27:20.007
278, 1.74611, 0.596187, 103.882, 0.000976562, 0, 0, -0.0683594, 0.311523, -9.7334, 1.13.2022 15:27:20.015
279, 1.74611, 0.596187, 103.882, 0, -0.000976562, 0, -0.128906, 0.31543, -9.75586, 1.13.2022 15:27:20.023
280, 1.74611, 0.596187, 103.882, 0, -0.000976562, 0, -0.0859375, 0.295898, -9.77148, 1.13.2022 15:27:20.031
281, 1.74611, 0.596187, 103.882, -0.000976562, 0, -0.000976562, -0.114258, 0.271484, -9.7334, 1.13.2022 15:27:20.039
282, 1.74611, 0.596187, 103.882, 0, 0, -0.000976562, -0.128906, 0.314453, -9.74414, 1.13.2022 15:27:20.047
283, 1.75162, 0.591876, 103.882, -0.000976562, -0.000976562, 0, -0.0732422, 0.256836, -9.73926, 1.13.2022 15:27:20.055
284, 1.75592, 0.597383, 103.882, -0.00195312, -0.000976562, 0, -0.130859, 0.295898, -9.74219, 1.13.2022 15:27:20.063
285, 1.75592, 0.597383, 103.882, -0.000976562, -0.000976562, 0, -0.0908203, 0.3125, -9.74219, 1.13.2022 15:27:20.071
286, 1.75592, 0.597383, 103.882, -0.00195312, 0, 0, -0.0693359, 0.296875, -9.78613, 1.13.2022 15:27:20.079
287, 1.75592, 0.597383, 103.882, -0.000976562, 0, 0, -0.160156, 0.327148, -9.76953, 1.13.2022 15:27:20.087
288, 1.75592, 0.597383, 103.882, 0, -0.000976562, 0, -0.046875, 0.318359, -9.69824, 1.13.2022 15:27:20.095
289, 1.75592, 0.597383, 103.882, -0.00195312, 0, 0, -0.125977, 0.30957, -9.73438, 1.13.2022 15:27:20.103
290, 1.75592, 0.597383, 103.882, -0.000976562, 0, 0, -0.139648, 0.304688, -9.71387, 1.13.2022 15:27:20.111
291, 1.75592, 0.597383, 103.882, 0, 0, 0, -0.0380859, 0.302734, -9.74805, 1.13.2022 15:27:20.119
292, 1.76023, 0.602889, 103.882, 0, -0.000976562, -0.000976562, -0.142578, 0.3125, -9.73438, 1.13.2022 15:27:20.125
293, 1.76023, 0.602889, 103.882, -0.000976562, 0, -0.000976562, -0.0742188, 0.297852, -9.74805, 1.13.2022 15:27:20.133
294, 1.76574, 0.598578, 103.882, 0, -0.000976562, 0, -0.0849609, 0.277344, -9.70801, 1.13.2022 15:27:20.141
295, 1.76574, 0.598578, 103.882, 0, -0.00195312, -0.000976562, -0.145508, 0.291016, -9.75879, 1.13.2022 15:27:20.149
296, 1.76574, 0.598578, 103.882, -0.000976562, -0.000976562, 0, -0.0410156, 0.28418, -9.76953, 1.13.2022 15:27:20.157
297, 1.76574, 0.598578, 103.882, -0.000976562, -0.000976562, 0, -0.126953, 0.279297, -9.77344, 1.13.2022 15:27:20.167
298, 1.76574, 0.598578, 103.882, 0, -0.000976562, 0, -0.119141, 0.300781, -9.76074, 1.13.2022 15:27:20.173
299, 1.76574, 0.598578, 103.882, 0, -0.000976562, -0.000976562, -0.0488281, 0.272461, -9.7041, 1.13.2022 15:27:20.181
300, 1.76574, 0.598578, 103.882, -0.000976562, -0.000976562, -0.000976562, -0.128906, 0.30957, -9.74414, 1.13.2022 15:27:20.189
301, 1.76574, 0.598578, 103.882, -0.000976562, -0.000976562, 0, -0.106445, 0.301758, -9.71875, 1.13.2022 15:27:20.197
302, 1.76574, 0.598578, 103.882, -0.000976562, 0, -0.000976562, -0.0800781, 0.290039, -9.72168, 1.13.2022 15:27:20.205
303, 1.76143, 0.593072, 103.882, -0.000976562, 0, -0.000976562, -0.147461, 0.353516, -9.74707, 1.13.2022 15:27:20.213
304, 1.76143, 0.593072, 103.882, 0, -0.000976562, -0.000976562, -0.0449219, 0.288086, -9.74805, 1.13.2022 15:27:20.221
305, 1.76143, 0.593072, 103.882, 0.000976562, -0.000976562, 0, -0.125977, 0.299805, -9.71191, 1.13.2022 15:27:20.229
306, 1.76143, 0.593072, 103.882, 0.000976562, 0, -0.000976562, -0.114258, 0.316406, -9.73047, 1.13.2022 15:27:20.237
307, 1.76143, 0.593072, 103.882, 0, 0, 0, -0.0634766, 0.285156, -9.72461, 1.13.2022 15:27:20.245
308, 1.76143, 0.593072, 103.882, 0, 0, -0.000976562, -0.157227, 0.297852, -9.74219, 1.13.2022 15:27:20.253
309, 1.76143, 0.593072, 103.882, 0, 0, 0, -0.0849609, 0.288086, -9.73145, 1.13.2022 15:27:20.261
310, 1.7616, 0.593134, 103.892, 0, -0.000976562, -0.000976562, -0.102539, 0.290039, -9.73145, 1.13.2022 15:27:20.269
311, 1.7616, 0.593134, 103.892, -0.000976562, -0.000976562, -0.000976562, -0.125977, 0.288086, -9.73535, 1.13.2022 15:27:20.277
312, 1.7616, 0.593134, 103.892, -0.000976562, -0.000976562, -0.000976562, -0.0488281, 0.293945, -9.70312, 1.13.2022 15:27:20.285
313, 1.7616, 0.593134, 103.892, 0, -0.000976562, 0, -0.0849609, 0.292969, -9.73145, 1.13.2022 15:27:20.293
314, 1.7616, 0.593134, 103.892, 0, -0.000976562, 0.000976562, -0.0917969, 0.313477, -9.71191, 1.13.2022 15:27:20.301
315, 1.76143, 0.593072, 103.882, 0, 0, 0, -0.0527344, 0.295898, -9.75098, 1.13.2022 15:27:20.309
316, 1.76143, 0.593072, 103.882, 0, 0, -0.000976562, -0.140625, 0.319336, -9.72754, 1.13.2022 15:27:20.317
317, 1.75729, 0.587627, 103.892, -0.000976562, -0.000976562, 0, -0.0693359, 0.300781, -9.76172, 1.13.2022 15:27:20.325
318, 1.7628, 0.583317, 103.892, -0.000976562, -0.000976562, -0.000976562, -0.0830078, 0.302734, -9.73145, 1.13.2022 15:27:20.333
319, 1.7628, 0.583317, 103.892, 0, -0.00195312, 0, -0.157227, 0.321289, -9.73438, 1.13.2022 15:27:20.341
320, 1.7628, 0.583317, 103.892, 0, -0.000976562, -0.000976562, -0.0732422, 0.282227, -9.70605, 1.13.2022 15:27:20.349
321, 1.7628, 0.583317, 103.892, 0.000976562, -0.000976562, 0, -0.104492, 0.290039, -9.70996, 1.13.2022 15:27:20.357
322, 1.7628, 0.583317, 103.892, 0, -0.000976562, -0.000976562, -0.107422, 0.286133, -9.75684, 1.13.2022 15:27:20.365
323, 1.7628, 0.583317, 103.892, 0, -0.000976562, 0, -0.0644531, 0.288086, -9.75098, 1.13.2022 15:27:20.373
324, 1.7628, 0.583317, 103.892, -0.000976562, 0, 0, -0.154297, 0.329102, -9.72656, 1.13.2022 15:27:20.381
325, 1.7628, 0.583317, 103.892, -0.000976562, -0.000976562, 0, -0.0625, 0.297852, -9.75781, 1.13.2022 15:27:20.389
326, 1.7628, 0.583317, 103.892, -0.000976562, 0, -0.000976562, -0.0976562, 0.300781, -9.75195, 1.13.2022 15:27:20.397
327, 1.7628, 0.583317, 103.892, 0, 0, -0.000976562, -0.130859, 0.271484, -9.72656, 1.13.2022 15:27:20.405
328, 1.7628, 0.583317, 103.892, 0, -0.000976562, -0.000976562, -0.0566406, 0.292969, -9.73145, 1.13.2022 15:27:20.413
329, 1.7628, 0.583317, 103.892, 0, -0.000976562, 0, -0.149414, 0.304688, -9.72754, 1.13.2022 15:27:20.421
330, 1.7628, 0.583317, 103.892, -0.000976562, -0.000976562, 0, -0.124023, 0.297852, -9.73047, 1.13.2022 15:27:20.429
331, 1.7628, 0.583317, 103.892, -0.000976562, -0.000976562, 0, -0.0908203, 0.279297, -9.75977, 1.13.2022 15:27:20.437
332, 1.7628, 0.583317, 103.892, 0, -0.000976562, 0, -0.147461, 0.302734, -9.74219, 1.13.2022 15:27:20.445
333, 1.7628, 0.583317, 103.892, 0, -0.000976562, -0.000976562, -0.046875, 0.303711, -9.70312, 1.13.2022 15:27:20.453
334, 1.7628, 0.583317, 103.892, 0, -0.000976562, -0.000976562, -0.102539, 0.302734, -9.72852, 1.13.2022 15:27:20.461
335, 1.7628, 0.583317, 103.892, 0, -0.000976562, 0, -0.135742, 0.307617, -9.7373, 1.13.2022 15:27:20.469
336, 1.7628, 0.583317, 103.892, -0.000976562, 0, 0, -0.0712891, 0.266602, -9.73438, 1.13.2022 15:27:20.477
337, 1.7628, 0.583317, 103.892, 0, -0.000976562, 0, -0.12793, 0.313477, -9.71094, 1.13.2022 15:27:20.485
338, 1.7628, 0.583317, 103.892, 0, -0.000976562, 0, -0.114258, 0.327148, -9.76562, 1.13.2022 15:27:20.493
339, 1.7628, 0.583317, 103.892, 0, -0.000976562, 0, -0.0742188, 0.310547, -9.76172, 1.13.2022 15:27:20.501
340, 1.75729, 0.587627, 103.892, 0, -0.000976562, 0, -0.176758, 0.339844, -9.76367, 1.13.2022 15:27:20.509
341, 1.75729, 0.587627, 103.892, -0.000976562, -0.000976562, -0.000976562, -0.0517578, 0.319336, -9.73828, 1.13.2022 15:27:20.517
342, 1.7671, 0.588823, 103.892, -0.000976562, 0, 0, -0.0947266, 0.304688, -9.72168, 1.13.2022 15:27:20.525
343, 1.7671, 0.588823, 103.892, 0, 0, 0, -0.119141, 0.300781, -9.75391, 1.13.2022 15:27:20.533
344, 1.7671, 0.588823, 103.892, -0.000976562, -0.000976562, 0, -0.0732422, 0.297852, -9.73633, 1.13.2022 15:27:20.541
345, 1.76693, 0.588761, 103.882, -0.000976562, -0.000976562, 0, -0.133789, 0.314453, -9.74609, 1.13.2022 15:27:20.549
346, 1.7671, 0.588823, 103.892, -0.000976562, 0, -0.000976562, -0.0927734, 0.305664, -9.75391, 1.13.2022 15:27:20.557
347, 1.7671, 0.588823, 103.892, 0, 0, -0.000976562, -0.0478516, 0.289062, -9.76758, 1.13.2022 15:27:20.565
348, 1.7671, 0.588823, 103.892, 0, 0, -0.000976562, -0.161133, 0.303711, -9.6875, 1.13.2022 15:27:20.573
349, 1.7671, 0.588823, 103.892, 0, -0.000976562, -0.000976562, -0.0634766, 0.258789, -9.72559, 1.13.2022 15:27:20.581
350, 1.77261, 0.584513, 103.891, 0, -0.000976562, -0.000976562, -0.0830078, 0.279297, -9.74805, 1.13.2022 15:27:20.589
351, 1.7671, 0.588823, 103.892, 0, -0.000976562, -0.000976562, -0.123047, 0.307617, -9.72754, 1.13.2022 15:27:20.597
352, 1.77261, 0.584513, 103.891, -0.000976562, 0, 0, -0.0322266, 0.296875, -9.71289, 1.13.2022 15:27:20.605
353, 1.77261, 0.584513, 103.891, -0.000976562, -0.000976562, 0, -0.160156, 0.31543, -9.75781, 1.13.2022 15:27:20.613
354, 1.77261, 0.584513, 103.891, -0.000976562, -0.000976562, 0, -0.0996094, 0.306641, -9.71387, 1.13.2022 15:27:20.621
355, 1.77261, 0.584513, 103.891, -0.000976562, 0, 0, -0.0976562, 0.265625, -9.76758, 1.13.2022 15:27:20.629
356, 1.77261, 0.584513, 103.891, -0.000976562, 0, 0, -0.166992, 0.30957, -9.74121, 1.13.2022 15:27:20.637
357, 1.77261, 0.584513, 103.891, -0.000976562, -0.000976562, -0.000976562, -0.0380859, 0.285156, -9.73438, 1.13.2022 15:27:20.645
358, 1.77261, 0.584513, 103.891, -0.000976562, 0, 0, -0.0810547, 0.274414, -9.74121, 1.13.2022 15:27:20.653
359, 1.77261, 0.584513, 103.891, 0, 0, 0, -0.134766, 0.301758, -9.70605, 1.13.2022 15:27:20.661
360, 1.77261, 0.584513, 103.891, 0, -0.000976562, 0, -0.0712891, 0.270508, -9.71289, 1.13.2022 15:27:20.669
361, 1.7671, 0.588823, 103.892, -0.000976562, 0, 0, -0.161133, 0.316406, -9.69824, 1.13.2022 15:27:20.677
362, 1.7671, 0.588823, 103.892, -0.000976562, -0.000976562, 0, -0.114258, 0.323242, -9.72266, 1.13.2022 15:27:20.685
363, 1.7671, 0.588823, 103.892, 0, -0.000976562, 0, -0.0898438, 0.302734, -9.72852, 1.13.2022 15:27:20.693
364, 1.7671, 0.588823, 103.892, 0, -0.000976562, -0.000976562, -0.139648, 0.319336, -9.72461, 1.13.2022 15:27:20.701
365, 1.7671, 0.588823, 103.892, 0, -0.000976562, -0.000976562, -0.0351562, 0.294922, -9.73145, 1.13.2022 15:27:20.709
366, 1.7671, 0.588823, 103.892, 0, 0, 0, -0.134766, 0.316406, -9.71777, 1.13.2022 15:27:20.717
367, 1.7671, 0.588823, 103.892, 0.000976562, -0.000976562, 0, -0.114258, 0.3125, -9.76074, 1.13.2022 15:27:20.725
368, 1.7671, 0.588823, 103.892, 0, -0.000976562, 0, -0.0673828, 0.287109, -9.7666, 1.13.2022 15:27:20.733
369, 1.7671, 0.588823, 103.892, 0, -0.000976562, -0.000976562, -0.149414, 0.303711, -9.69727, 1.13.2022 15:27:20.741
370, 1.7671, 0.588823, 103.892, -0.000976562, 0, -0.000976562, -0.078125, 0.30957, -9.7334, 1.13.2022 15:27:20.749
371, 1.7671, 0.588823, 103.892, -0.000976562, -0.000976562, -0.000976562, -0.0996094, 0.286133, -9.74805, 1.13.2022 15:27:20.757
372, 1.77141, 0.59433, 103.891, -0.000976562, -0.000976562, 0, -0.148438, 0.303711, -9.7627, 1.13.2022 15:27:20.765
373, 1.77141, 0.59433, 103.891, 0, 0, 0, -0.0546875, 0.28418, -9.76758, 1.13.2022 15:27:20.773
374, 1.77141, 0.59433, 103.891, 0, -0.000976562, 0, -0.124023, 0.282227, -9.75879, 1.13.2022 15:27:20.781
375, 1.77141, 0.59433, 103.891, 0, 0, 0, -0.117188, 0.305664, -9.75586, 1.13.2022 15:27:20.789
376, 1.77141, 0.59433, 103.891, 0, 0, -0.000976562, -0.0566406, 0.273438, -9.73438, 1.13.2022 15:27:20.797
377, 1.77141, 0.59433, 103.891, 0, -0.000976562, 0, -0.107422, 0.323242, -9.77734, 1.13.2022 15:27:20.805
378, 1.77141, 0.59433, 103.891, 0, -0.00195312, 0, -0.0615234, 0.293945, -9.70312, 1.13.2022 15:27:20.813
379, 1.7616, 0.593134, 103.892, -0.000976562, -0.000976562, 0, -0.0732422, 0.270508, -9.71973, 1.13.2022 15:27:20.821
380, 1.7616, 0.593134, 103.892, 0, -0.000976562, 0, -0.152344, 0.292969, -9.74414, 1.13.2022 15:27:20.829
381, 1.7616, 0.593134, 103.892, -0.000976562, 0, -0.000976562, -0.0625, 0.28125, -9.7627, 1.13.2022 15:27:20.837
382, 1.7616, 0.593134, 103.892, -0.000976562, 0, -0.000976562, -0.125977, 0.297852, -9.72852, 1.13.2022 15:27:20.845
383, 1.7616, 0.593134, 103.892, -0.000976562, 0, 0, -0.0996094, 0.301758, -9.72363, 1.13.2022 15:27:20.853
384, 1.7616, 0.593134, 103.892, -0.000976562, 0, 0, -0.0712891, 0.286133, -9.75488, 1.13.2022 15:27:20.861
385, 1.75729, 0.587627, 103.892, 0, 0, 0, -0.148438, 0.330078, -9.77148, 1.13.2022 15:27:20.869
386, 1.75729, 0.587627, 103.892, -0.000976562, 0, 0, -0.109375, 0.292969, -9.72852, 1.13.2022 15:27:20.877
387, 1.75729, 0.587627, 103.892, -0.000976562, -0.000976562, 0, -0.0839844, 0.295898, -9.75684, 1.13.2022 15:27:20.885
388, 1.75729, 0.587627, 103.892, -0.000976562, -0.000976562, 0, -0.117188, 0.330078, -9.78613, 1.13.2022 15:27:20.893
389, 1.75712, 0.587565, 103.882, 0, -0.000976562, 0, -0.0273438, 0.282227, -9.7041, 1.13.2022 15:27:20.901
390, 1.75712, 0.587565, 103.882, 0, 0, 0, -0.124023, 0.274414, -9.74316, 1.13.2022 15:27:20.909
391, 1.76262, 0.583254, 103.882, -0.000976562, 0, 0, -0.124023, 0.300781, -9.74414, 1.13.2022 15:27:20.917
392, 1.76262, 0.583254, 103.882, 0, -0.000976562, 0, -0.0791016, 0.272461, -9.76758, 1.13.2022 15:27:20.925
393, 1.75712, 0.587565, 103.882, 0, -0.000976562, 0, -0.130859, 0.30957, -9.72754, 1.13.2022 15:27:20.933
394, 1.75712, 0.587565, 103.882, 0, 0, -0.000976562, -0.0761719, 0.294922, -9.72656, 1.13.2022 15:27:20.941
395, 1.75712, 0.587565, 103.882, -0.000976562, -0.000976562, 0, -0.0976562, 0.279297, -9.74805, 1.13.2022 15:27:20.949
396, 1.75712, 0.587565, 103.882, -0.000976562, 0, 0, -0.119141, 0.294922, -9.72559, 1.13.2022 15:27:20.957
397, 1.75281, 0.582058, 103.882, 0, -0.000976562, 0, -0.0615234, 0.273438, -9.71289, 1.13.2022 15:27:20.965
398, 1.75281, 0.582058, 103.882, 0, -0.000976562, 0, -0.137695, 0.314453, -9.74121, 1.13.2022 15:27:20.973
399, 1.75281, 0.582058, 103.882, 0, -0.000976562, -0.000976562, -0.0927734, 0.30957, -9.74707, 1.13.2022 15:27:20.981
400, 1.75281, 0.582058, 103.882, 0, -0.000976562, 0, -0.0810547, 0.300781, -9.74512, 1.13.2022 15:27:20.989
401, 1.75281, 0.582058, 103.882, -0.000976562, -0.000976562, 0, -0.162109, 0.319336, -9.73145, 1.13.2022 15:27:20.997
402, 1.75281, 0.582058, 103.882, -0.000976562, -0.000976562, -0.000976562, -0.0849609, 0.294922, -9.70996, 1.13.2022 15:27:21.005
403, 1.75281, 0.582058, 103.882, 0, 0, 0, -0.100586, 0.291016, -9.75977, 1.13.2022 15:27:21.013
404, 1.75281, 0.582058, 103.882, 0, -0.000976562, -0.000976562, -0.133789, 0.279297, -9.75879, 1.13.2022 15:27:21.021
405, 1.75281, 0.582058, 103.882, 0, -0.000976562, -0.000976562, -0.0595703, 0.276367, -9.74414, 1.13.2022 15:27:21.029
406, 1.75281, 0.582058, 103.882, 0, -0.000976562, -0.000976562, -0.125977, 0.306641, -9.71094, 1.13.2022 15:27:21.037
407, 1.74731, 0.586369, 103.882, 0, -0.00195312, 0.000976562, -0.0878906, 0.319336, -9.73047, 1.13.2022 15:27:21.045
408, 1.74731, 0.586369, 103.882, 0, -0.000976562, 0, -0.0742188, 0.289062, -9.76465, 1.13.2022 15:27:21.053
409, 1.74731, 0.586369, 103.882, 0, -0.000976562, 0, -0.157227, 0.304688, -9.7207, 1.13.2022 15:27:21.061
410, 1.74731, 0.586369, 103.882, -0.000976562, -0.000976562, 0, -0.0664062, 0.299805, -9.74316, 1.13.2022 15:27:21.069
411, 1.74731, 0.586369, 103.882, -0.000976562, -0.00195312, -0.000976562, -0.109375, 0.283203, -9.73828, 1.13.2022 15:27:21.077
412, 1.75162, 0.591876, 103.882, 0, -0.00195312, 0, -0.130859, 0.302734, -9.72559, 1.13.2022 15:27:21.085
413, 1.75162, 0.591876, 103.882, 0.000976562, -0.00195312, 0, -0.0351562, 0.258789, -9.71191, 1.13.2022 15:27:21.093
414, 1.75162, 0.591876, 103.882, 0, -0.000976562, -0.000976562, -0.140625, 0.291016, -9.7373, 1.13.2022 15:27:21.101
415, 1.75162, 0.591876, 103.882, -0.000976562, -0.000976562, 0, -0.0976562, 0.3125, -9.75391, 1.13.2022 15:27:21.107
416, 1.75162, 0.591876, 103.882, 0, -0.000976562, 0, -0.0703125, 0.320312, -9.70703, 1.13.2022 15:27:21.115
417, 1.75162, 0.591876, 103.882, 0, -0.000976562, -0.000976562, -0.157227, 0.338867, -9.75, 1.13.2022 15:27:21.123
418, 1.75162, 0.591876, 103.882, -0.000976562, -0.000976562, -0.000976562, -0.0341797, 0.272461, -9.77539, 1.13.2022 15:27:21.131
419, 1.75162, 0.591876, 103.882, -0.000976562, -0.000976562, -0.000976562, -0.0976562, 0.290039, -9.7334, 1.13.2022 15:27:21.139
420, 1.75162, 0.591876, 103.882, 0, 0, 0.000976562, -0.114258, 0.307617, -9.74902, 1.13.2022 15:27:21.147
421, 1.74731, 0.586369, 103.882, 0, 0, 0.000976562, -0.0732422, 0.307617, -9.73535, 1.13.2022 15:27:21.155
422, 1.74731, 0.586369, 103.882, 0, 0, -0.000976562, -0.150391, 0.283203, -9.7373, 1.13.2022 15:27:21.163
423, 1.74731, 0.586369, 103.882, -0.000976562, -0.00195312, 0, -0.105469, 0.310547, -9.76074, 1.13.2022 15:27:21.171
424, 1.75162, 0.591876, 103.882, -0.000976562, -0.00195312, 0, -0.078125, 0.285156, -9.71973, 1.13.2022 15:27:21.179
425, 1.75162, 0.591876, 103.882, 0, -0.000976562, 0, -0.143555, 0.303711, -9.77246, 1.13.2022 15:27:21.187
426, 1.75162, 0.591876, 103.882, -0.000976562, -0.000976562, 0.000976562, -0.0595703, 0.292969, -9.74805, 1.13.2022 15:27:21.195
427, 1.75162, 0.591876, 103.882, -0.00195312, 0, -0.000976562, -0.104492, 0.28125, -9.74316, 1.13.2022 15:27:21.203
428, 1.75162, 0.591876, 103.882, -0.000976562, -0.000976562, 0, -0.125, 0.320312, -9.69629, 1.13.2022 15:27:21.211
429, 1.75712, 0.587565, 103.882, -0.000976562, -0.000976562, 0, -0.0712891, 0.271484, -9.74414, 1.13.2022 15:27:21.219
430, 1.75712, 0.587565, 103.882, 0, -0.000976562, 0, -0.140625, 0.329102, -9.75098, 1.13.2022 15:27:21.227
431, 1.75712, 0.587565, 103.882, 0, 0, -0.000976562, -0.0947266, 0.296875, -9.70996, 1.13.2022 15:27:21.235
432, 1.75712, 0.587565, 103.882, 0, 0, -0.000976562, -0.0859375, 0.291016, -9.75684, 1.13.2022 15:27:21.243
433, 1.75712, 0.587565, 103.882, 0, 0, -0.000976562, -0.135742, 0.323242, -9.71973, 1.13.2022 15:27:21.251
434, 1.75712, 0.587565, 103.882, 0, -0.000976562, 0, -0.0546875, 0.27832, -9.73242, 1.13.2022 15:27:21.259
435, 1.75712, 0.587565, 103.882, -0.000976562, -0.000976562, -0.000976562, -0.0966797, 0.285156, -9.71484, 1.13.2022 15:27:21.267
436, 1.75712, 0.587565, 103.882, -0.000976562, -0.000976562, 0, -0.0976562, 0.314453, -9.74707, 1.13.2022 15:27:21.275
437, 1.75712, 0.587565, 103.882, 0, 0, 0, -0.0830078, 0.285156, -9.72461, 1.13.2022 15:27:21.283
438, 1.75712, 0.587565, 103.882, 0, 0, -0.000976562, -0.162109, 0.31543, -9.75098, 1.13.2022 15:27:21.291
439, 1.75712, 0.587565, 103.882, 0, -0.00195312, -0.000976562, -0.0908203, 0.28418, -9.74805, 1.13.2022 15:27:21.299
440, 1.75712, 0.587565, 103.882, 0, -0.000976562, 0, -0.0751953, 0.275391, -9.71094, 1.13.2022 15:27:21.307
441, 1.75712, 0.587565, 103.882, -0.000976562, -0.000976562, 0.000976562, -0.124023, 0.326172, -9.73633, 1.13.2022 15:27:21.315
442, 1.75712, 0.587565, 103.882, -0.000976562, -0.00195312, 0, -0.0361328, 0.28418, -9.77246, 1.13.2022 15:27:21.323
443, 1.75712, 0.587565, 103.882, 0, -0.00195312, 0, -0.116211, 0.294922, -9.72559, 1.13.2022 15:27:21.331
444, 1.75712, 0.587565, 103.882, -0.00195312, -0.000976562, -0.000976562, -0.111328, 0.30957, -9.73926, 1.13.2022 15:27:21.339
445, 1.75712, 0.587565, 103.882, 0, -0.000976562, -0.000976562, -0.0683594, 0.288086, -9.72461, 1.13.2022 15:27:21.347
446, 1.75712, 0.587565, 103.882, 0, 0, -0.000976562, -0.152344, 0.30957, -9.73438, 1.13.2022 15:27:21.355
447, 1.75712, 0.587565, 103.882, -0.000976562, -0.000976562, 0, -0.0732422, 0.324219, -9.73047, 1.13.2022 15:27:21.363
448, 1.75712, 0.587565, 103.882, -0.000976562, -0.000976562, 0.000976562, -0.0996094, 0.321289, -9.7207, 1.13.2022 15:27:21.371
449, 1.75712, 0.587565, 103.882, 0, -0.000976562, -0.000976562, -0.123047, 0.328125, -9.7041, 1.13.2022 15:27:21.379
450, 1.75712, 0.587565, 103.882, 0, -0.000976562, 0, -0.0615234, 0.290039, -9.73145, 1.13.2022 15:27:21.387
451, 1.76262, 0.583254, 103.882, -0.000976562, -0.000976562, 0, -0.134766, 0.328125, -9.70117, 1.13.2022 15:27:21.395
452, 1.76262, 0.583254, 103.882, -0.000976562, -0.000976562, -0.000976562, -0.0878906, 0.302734, -9.73047, 1.13.2022 15:27:21.403
453, 1.76262, 0.583254, 103.882, -0.000976562, -0.000976562, 0, -0.0498047, 0.271484, -9.7373, 1.13.2022 15:27:21.411
454, 1.76262, 0.583254, 103.882, 0, 0, -0.000976562, -0.12793, 0.325195, -9.69629, 1.13.2022 15:27:21.419
455, 1.76262, 0.583254, 103.882, 0, 0, 0, -0.0800781, 0.27832, -9.71777, 1.13.2022 15:27:21.427
456, 1.76813, 0.578943, 103.882, -0.000976562, 0, 0, -0.0859375, 0.269531, -9.7627, 1.13.2022 15:27:21.435
457, 1.76813, 0.578943, 103.882, -0.000976562, -0.000976562, 0, -0.114258, 0.286133, -9.73828, 1.13.2022 15:27:21.443
458, 1.76813, 0.578943, 103.882, 0, -0.000976562, 0, -0.0400391, 0.283203, -9.74609, 1.13.2022 15:27:21.451
459, 1.76813, 0.578943, 103.882, 0, -0.000976562, 0, -0.128906, 0.329102, -9.74609, 1.13.2022 15:27:21.459
460, 1.76813, 0.578943, 103.882, 0, 0, 0, -0.119141, 0.322266, -9.73926, 1.13.2022 15:27:21.467
461, 1.76813, 0.578943, 103.882, 0, 0, -0.000976562, -0.0966797, 0.270508, -9.70117, 1.13.2022 15:27:21.475
462, 1.76813, 0.578943, 103.882, 0, -0.000976562, 0, -0.168945, 0.322266, -9.73633, 1.13.2022 15:27:21.483
463, 1.76813, 0.578943, 103.882, -0.000976562, -0.000976562, 0, -0.0595703, 0.31543, -9.76367, 1.13.2022 15:27:21.491
464, 1.76813, 0.578943, 103.882, 0, -0.000976562, 0, -0.104492, 0.288086, -9.72852, 1.13.2022 15:27:21.499
465, 1.76813, 0.578943, 103.882, 0, 0, 0, -0.130859, 0.308594, -9.76074, 1.13.2022 15:27:21.507
466, 1.76813, 0.578943, 103.882, -0.000976562, -0.000976562, 0.000976562, -0.0673828, 0.298828, -9.76953, 1.13.2022 15:27:21.515
467, 1.76813, 0.578943, 103.882, 0, -0.000976562, -0.000976562, -0.145508, 0.319336, -9.74609, 1.13.2022 15:27:21.523
468, 1.76813, 0.578943, 103.882, 0, -0.000976562, -0.000976562, -0.124023, 0.289062, -9.75391, 1.13.2022 15:27:21.531
469, 1.76813, 0.578943, 103.882, 0, 0, 0, -0.0810547, 0.270508, -9.77246, 1.13.2022 15:27:21.539
470, 1.76813, 0.578943, 103.882, 0, 0, 0, -0.147461, 0.326172, -9.73145, 1.13.2022 15:27:21.547
471, 1.76813, 0.578943, 103.882, 0, -0.000976562, -0.000976562, -0.0693359, 0.276367, -9.73633, 1.13.2022 15:27:21.555
472, 1.76813, 0.578943, 103.882, -0.000976562, -0.000976562, -0.000976562, -0.103516, 0.298828, -9.78516, 1.13.2022 15:27:21.563
473, 1.77244, 0.58445, 103.882, 0, 0, -0.000976562, -0.125977, 0.331055, -9.71777, 1.13.2022 15:27:21.571
474, 1.77244, 0.58445, 103.882, 0, 0, 0, -0.0742188, 0.288086, -9.74805, 1.13.2022 15:27:21.579
475, 1.76693, 0.588761, 103.882, -0.000976562, -0.000976562, 0, -0.135742, 0.307617, -9.74902, 1.13.2022 15:27:21.587
476, 1.76693, 0.588761, 103.882, 0, -0.00195312, -0.000976562, -0.0810547, 0.321289, -9.73047, 1.13.2022 15:27:21.595
477, 1.76693, 0.588761, 103.882, -0.000976562, -0.000976562, 0, -0.0761719, 0.306641, -9.72656, 1.13.2022 15:27:21.603
478, 1.76693, 0.588761, 103.882, 0, 0, -0.000976562, -0.121094, 0.302734, -9.75391, 1.13.2022 15:27:21.611
479, 1.77244, 0.58445, 103.882, -0.000976562, 0, 0, -0.0458984, 0.303711, -9.77148, 1.13.2022 15:27:21.619
480, 1.77244, 0.58445, 103.882, -0.000976562, 0, 0, -0.0927734, 0.276367, -9.72949, 1.13.2022 15:27:21.627
481, 1.77244, 0.58445, 103.882, -0.000976562, 0, 0, -0.117188, 0.332031, -9.76758, 1.13.2022 15:27:21.635
482, 1.77244, 0.58445, 103.882, 0, 0, 0, -0.0585938, 0.311523, -9.81641, 1.13.2022 15:27:21.643
483, 1.77244, 0.58445, 103.882, -0.000976562, -0.000976562, 0, -0.157227, 0.332031, -9.74316, 1.13.2022 15:27:21.651
484, 1.77244, 0.58445, 103.882, -0.000976562, -0.000976562, -0.000976562, -0.107422, 0.301758, -9.78223, 1.13.2022 15:27:21.659
485, 1.77244, 0.58445, 103.882, 0, 0, -0.000976562, -0.0849609, 0.297852, -9.72852, 1.13.2022 15:27:21.667
486, 1.77244, 0.58445, 103.882, 0.000976562, 0, 0, -0.132812, 0.306641, -9.71582, 1.13.2022 15:27:21.675
487, 1.77794, 0.580139, 103.882, 0, 0, -0.00195312, -0.0605469, 0.280273, -9.79102, 1.13.2022 15:27:21.683
488, 1.77794, 0.580139, 103.882, 0, 0, -0.000976562, -0.0908203, 0.286133, -9.74512, 1.13.2022 15:27:21.691
489, 1.77794, 0.580139, 103.882, 0, -0.000976562, 0, -0.114258, 0.305664, -9.74902, 1.13.2022 15:27:21.699
490, 1.77794, 0.580139, 103.882, -0.000976562, -0.000976562, 0, -0.0488281, 0.275391, -9.7041, 1.13.2022 15:27:21.707
491, 1.77794, 0.580139, 103.882, 0, -0.000976562, -0.000976562, -0.149414, 0.34082, -9.7168, 1.13.2022 15:27:21.715
492, 1.77794, 0.580139, 103.882, 0, 0, -0.000976562, -0.0996094, 0.327148, -9.75391, 1.13.2022 15:27:21.723
493, 1.77794, 0.580139, 103.882, -0.000976562, -0.000976562, 0, -0.104492, 0.297852, -9.74219, 1.13.2022 15:27:21.731
494, 1.77794, 0.580139, 103.882, -0.000976562, -0.000976562, 0, -0.150391, 0.310547, -9.75293, 1.13.2022 15:27:21.739
495, 1.77794, 0.580139, 103.882, 0, -0.000976562, -0.000976562, -0.0566406, 0.295898, -9.74316, 1.13.2022 15:27:21.747
496, 1.77794, 0.580139, 103.882, 0, -0.000976562, 0, -0.109375, 0.269531, -9.74316, 1.13.2022 15:27:21.755
497, 1.77794, 0.580139, 103.882, 0, -0.000976562, -0.000976562, -0.107422, 0.329102, -9.76074, 1.13.2022 15:27:21.763
498, 1.78225, 0.585646, 103.882, 0, -0.000976562, 0, -0.0742188, 0.304688, -9.74512, 1.13.2022 15:27:21.771
499, 1.78225, 0.585646, 103.882, -0.000976562, -0.000976562, 0, -0.15918, 0.292969, -9.73242, 1.13.2022 15:27:21.779
500, 1.78225, 0.585646, 103.882, 0, -0.000976562, 0.000976562, -0.0830078, 0.291016, -9.74512, 1.13.2022 15:27:21.787
501, 1.78225, 0.585646, 103.882, 0, -0.000976562, 0, -0.0810547, 0.308594, -9.77051, 1.13.2022 15:27:21.795
502, 1.78225, 0.585646, 103.882, 0, -0.000976562, 0, -0.112305, 0.332031, -9.75293, 1.13.2022 15:27:21.803
503, 1.78225, 0.585646, 103.882, 0, 0, -0.000976562, -0.03125, 0.289062, -9.75586, 1.13.2022 15:27:21.811
504, 1.78225, 0.585646, 103.882, -0.000976562, 0, 0.000976562, -0.121094, 0.283203, -9.72363, 1.13.2022 15:27:21.819
505, 1.78225, 0.585646, 103.882, 0, 0, 0, -0.121094, 0.3125, -9.7373, 1.13.2022 15:27:21.827
506, 1.78225, 0.585646, 103.882, -0.000976562, 0, 0, -0.0625, 0.293945, -9.75781, 1.13.2022 15:27:21.835
507, 1.78225, 0.585646, 103.882, -0.000976562, -0.000976562, -0.000976562, -0.168945, 0.310547, -9.74316, 1.13.2022 15:27:21.843
508, 1.78225, 0.585646, 103.882, 0, 0, -0.000976562, -0.0625, 0.295898, -9.76465, 1.13.2022 15:27:21.851
509, 1.78225, 0.585646, 103.882, -0.000976562, 0, 0, -0.0947266, 0.28125, -9.7334, 1.13.2022 15:27:21.859
510, 1.78225, 0.585646, 103.882, 0, -0.000976562, 0, -0.125, 0.316406, -9.70117, 1.13.2022 15:27:21.867
511, 1.78225, 0.585646, 103.882, 0, -0.000976562, -0.000976562, -0.0380859, 0.27832, -9.74414, 1.13.2022 15:27:21.875
512, 1.77794, 0.580139, 103.882, -0.000976562, -0.000976562, 0, -0.130859, 0.30957, -9.72266, 1.13.2022 15:27:21.883
513, 1.77794, 0.580139, 103.882, 0, -0.000976562, 0, -0.100586, 0.296875, -9.78711, 1.13.2022 15:27:21.891
514, 1.77794, 0.580139, 103.882, -0.000976562, -0.000976562, -0.000976562, -0.0810547, 0.276367, -9.74805, 1.13.2022 15:27:21.899
515, 1.77794, 0.580139, 103.882, 0, -0.000976562, 0, -0.152344, 0.316406, -9.72949, 1.13.2022 15:27:21.907
516, 1.77794, 0.580139, 103.882, 0, 0, 0, -0.0546875, 0.288086, -9.73438, 1.13.2022 15:27:21.915
517, 1.77794, 0.580139, 103.882, 0, 0, 0, -0.0976562, 0.319336, -9.72754, 1.13.2022 15:27:21.923
518, 1.77794, 0.580139, 103.882, 0, 0.000976562, 0, -0.15625, 0.287109, -9.70215, 1.13.2022 15:27:21.931
519, 1.77794, 0.580139, 103.882, 0, -0.000976562, 0, -0.0576172, 0.289062, -9.77441, 1.13.2022 15:27:21.939
520, 1.77794, 0.580139, 103.882, 0, -0.000976562, 0, -0.138672, 0.300781, -9.76074, 1.13.2022 15:27:21.947
521, 1.77794, 0.580139, 103.882, -0.000976562, 0, 0, -0.105469, 0.3125, -9.76074, 1.13.2022 15:27:21.955
522, 1.77794, 0.580139, 103.882, -0.000976562, 0, -0.000976562, -0.0615234, 0.288086, -9.72656, 1.13.2022 15:27:21.963
523, 1.77794, 0.580139, 103.882, 0, -0.000976562, 0, -0.147461, 0.287109, -9.70898, 1.13.2022 15:27:21.971
524, 1.77244, 0.58445, 103.882, 0.000976562, -0.000976562, 0, -0.0527344, 0.291016, -9.7627, 1.13.2022 15:27:21.979
525, 1.77244, 0.58445, 103.882, 0.000976562, -0.000976562, 0, -0.0957031, 0.274414, -9.75488, 1.13.2022 15:27:21.987
526, 1.77244, 0.58445, 103.882, 0, -0.000976562, -0.000976562, -0.135742, 0.34082, -9.73145, 1.13.2022 15:27:21.995
527, 1.76813, 0.578943, 103.882, 0, -0.000976562, -0.000976562, -0.0527344, 0.259766, -9.75586, 1.13.2022 15:27:22.003
528, 1.76813, 0.578943, 103.882, 0, -0.000976562, -0.000976562, -0.134766, 0.280273, -9.70508, 1.13.2022 15:27:22.011
529, 1.76813, 0.578943, 103.882, 0, -0.000976562, -0.000976562, -0.102539, 0.307617, -9.73242, 1.13.2022 15:27:22.019
530, 1.76262, 0.583254, 103.882, -0.000976562, 0, 0, -0.0634766, 0.268555, -9.72559, 1.13.2022 15:27:22.027
531, 1.76262, 0.583254, 103.882, -0.000976562, -0.000976562, 0, -0.139648, 0.304688, -9.71094, 1.13.2022 15:27:22.035
532, 1.76262, 0.583254, 103.882, 0, 0, -0.000976562, -0.0498047, 0.290039, -9.71973, 1.13.2022 15:27:22.043
533, 1.76262, 0.583254, 103.882, 0, -0.000976562, -0.000976562, -0.0878906, 0.288086, -9.74316, 1.13.2022 15:27:22.049
534, 1.75832, 0.577747, 103.882, 0, 0, 0, -0.130859, 0.321289, -9.72266, 1.13.2022 15:27:22.057
535, 1.75832, 0.577747, 103.882, 0, -0.000976562, -0.000976562, -0.0712891, 0.293945, -9.75977, 1.13.2022 15:27:22.065
536, 1.75832, 0.577747, 103.882, -0.000976562, -0.000976562, -0.000976562, -0.147461, 0.319336, -9.73145, 1.13.2022 15:27:22.073
537, 1.75832, 0.577747, 103.882, -0.000976562, -0.000976562, 0, -0.116211, 0.314453, -9.72559, 1.13.2022 15:27:22.081
538, 1.75832, 0.577747, 103.882, 0, 0, -0.000976562, -0.0380859, 0.290039, -9.72461, 1.13.2022 15:27:22.089
539, 1.75832, 0.577747, 103.882, 0.000976562, -0.000976562, -0.000976562, -0.116211, 0.321289, -9.73242, 1.13.2022 15:27:22.097
540, 1.75849, 0.57781, 103.892, -0.000976562, -0.000976562, -0.000976562, -0.0449219, 0.287109, -9.71094, 1.13.2022 15:27:22.105
541, 1.75849, 0.57781, 103.892, 0, -0.000976562, -0.000976562, -0.0810547, 0.276367, -9.73633, 1.13.2022 15:27:22.113
542, 1.75849, 0.57781, 103.892, 0, -0.000976562, 0.000976562, -0.0976562, 0.297852, -9.73828, 1.13.2022 15:27:22.121
543, 1.75849, 0.57781, 103.892, 0, 0, 0, -0.0664062, 0.264648, -9.73926, 1.13.2022 15:27:22.129
544, 1.75418, 0.572303, 103.892, 0.000976562, -0.000976562, -0.000976562, -0.121094, 0.294922, -9.7207, 1.13.2022 15:27:22.137
545, 1.75418, 0.572303, 103.892, 0, 0, -0.000976562, -0.078125, 0.291016, -9.74805, 1.13.2022 15:27:22.145
546, 1.75418, 0.572303, 103.892, 0, -0.000976562, 0, -0.0976562, 0.269531, -9.75488, 1.13.2022 15:27:22.153
547, 1.75418, 0.572303, 103.892, -0.000976562, -0.000976562, -0.000976562, -0.147461, 0.304688, -9.7373, 1.13.2022 15:27:22.161
548, 1.74987, 0.566797, 103.892, -0.00195312, -0.000976562, 0, -0.0234375, 0.268555, -9.72559, 1.13.2022 15:27:22.169
549, 1.74987, 0.566797, 103.892, -0.000976562, -0.000976562, -0.000976562, -0.0839844, 0.310547, -9.76367, 1.13.2022 15:27:22.177
550, 1.74987, 0.566797, 103.892, 0.000976562, 0, -0.000976562, -0.123047, 0.305664, -9.68066, 1.13.2022 15:27:22.185
551, 1.74987, 0.566797, 103.892, 0, -0.000976562, -0.000976562, -0.0546875, 0.266602, -9.74609, 1.13.2022 15:27:22.193
552, 1.74556, 0.56129, 103.893, -0.000976562, -0.000976562, 0, -0.130859, 0.325195, -9.76074, 1.13.2022 15:27:22.201
553, 1.74556, 0.56129, 103.893, -0.000976562, -0.000976562, -0.000976562, -0.0820312, 0.314453, -9.80664, 1.13.2022 15:27:22.209
554, 1.74556, 0.56129, 103.893, -0.00195312, -0.000976562, 0, -0.0908203, 0.310547, -9.75879, 1.13.2022 15:27:22.217
555, 1.74556, 0.56129, 103.893, -0.000976562, -0.000976562, 0, -0.134766, 0.296875, -9.71582, 1.13.2022 15:27:22.225
556, 1.75106, 0.55698, 103.892, 0, -0.000976562, 0, -0.0664062, 0.292969, -9.75, 1.13.2022 15:27:22.233
557, 1.75106, 0.55698, 103.892, 0, 0, 0, -0.132812, 0.319336, -9.73926, 1.13.2022 15:27:22.241
558, 1.75106, 0.55698, 103.892, 0, 0, 0, -0.109375, 0.296875, -9.71387, 1.13.2022 15:27:22.249
559, 1.75106, 0.55698, 103.892, 0, -0.000976562, 0, -0.0449219, 0.294922, -9.73633, 1.13.2022 15:27:22.257
560, 1.75106, 0.55698, 103.892, 0.000976562, -0.000976562, 0, -0.144531, 0.349609, -9.72168, 1.13.2022 15:27:22.265
561, 1.75089, 0.556916, 103.883, 0, -0.000976562, 0, -0.0664062, 0.30957, -9.72363, 1.13.2022 15:27:22.273
562, 1.75089, 0.556916, 103.883, 0, 0, 0, -0.0732422, 0.290039, -9.7334, 1.13.2022 15:27:22.281
563, 1.75089, 0.556916, 103.883, 0, 0, -0.000976562, -0.135742, 0.307617, -9.7373, 1.13.2022 15:27:22.289
564, 1.75089, 0.556916, 103.883, 0, 0, 0, -0.0693359, 0.277344, -9.7627, 1.13.2022 15:27:22.297
565, 1.75089, 0.556916, 103.883, 0, -0.000976562, 0, -0.0976562, 0.30957, -9.73242, 1.13.2022 15:27:22.305
566, 1.7564, 0.552605, 103.883, 0, 0, 0, -0.0878906, 0.297852, -9.7334, 1.13.2022 15:27:22.313
567, 1.7564, 0.552605, 103.883, 0, 0, 0, -0.0732422, 0.285156, -9.72168, 1.13.2022 15:27:22.321
568, 1.7564, 0.552605, 103.883, 0, 0, 0, -0.138672, 0.308594, -9.77441, 1.13.2022 15:27:22.329
569, 1.7564, 0.552605, 103.883, 0, 0, 0, -0.0527344, 0.292969, -9.74609, 1.13.2022 15:27:22.337
570, 1.7564, 0.552605, 103.883, 0, -0.000976562, 0, -0.0712891, 0.304688, -9.72363, 1.13.2022 15:27:22.345
571, 1.7564, 0.552605, 103.883, 0, -0.000976562, 0, -0.124023, 0.27832, -9.73145, 1.13.2022 15:27:22.353
572, 1.7564, 0.552605, 103.883, 0, -0.000976562, 0, -0.0332031, 0.297852, -9.73926, 1.13.2022 15:27:22.361
573, 1.7564, 0.552605, 103.883, 0.000976562, -0.000976562, 0, -0.135742, 0.300781, -9.74219, 1.13.2022 15:27:22.369
574, 1.7564, 0.552605, 103.883, 0, -0.000976562, -0.000976562, -0.107422, 0.305664, -9.74512, 1.13.2022 15:27:22.377
575, 1.7564, 0.552605, 103.883, 0, -0.000976562, 0, -0.0761719, 0.286133, -9.74805, 1.13.2022 15:27:22.385
576, 1.7564, 0.552605, 103.883, 0, -0.000976562, 0, -0.163086, 0.306641, -9.69629, 1.13.2022 15:27:22.393
577, 1.7564, 0.552605, 103.883, -0.000976562, -0.000976562, -0.000976562, -0.0732422, 0.307617, -9.73535, 1.13.2022 15:27:22.401
578, 1.7564, 0.552605, 103.883, -0.000976562, -0.000976562, -0.000976562, -0.0947266, 0.30957, -9.73047, 1.13.2022 15:27:22.409
579, 1.7619, 0.548295, 103.883, -0.000976562, -0.000976562, 0, -0.104492, 0.333984, -9.74414, 1.13.2022 15:27:22.417
580, 1.7619, 0.548295, 103.883, -0.000976562, -0.000976562, 0, -0.0546875, 0.274414, -9.74609, 1.13.2022 15:27:22.425
581, 1.7619, 0.548295, 103.883, 0, -0.000976562, -0.000976562, -0.135742, 0.316406, -9.72754, 1.13.2022 15:27:22.433
582, 1.7619, 0.548295, 103.883, -0.000976562, -0.00195312, 0, -0.0927734, 0.288086, -9.71973, 1.13.2022 15:27:22.441
583, 1.7619, 0.548295, 103.883, -0.000976562, -0.000976562, 0, -0.0732422, 0.268555, -9.7207, 1.13.2022 15:27:22.449
584, 1.76621, 0.553801, 103.883, -0.000976562, -0.000976562, 0, -0.176758, 0.31543, -9.7666, 1.13.2022 15:27:22.457
585, 1.76621, 0.553801, 103.883, 0, -0.000976562, 0, -0.0644531, 0.303711, -9.76855, 1.13.2022 15:27:22.465
586, 1.76621, 0.553801, 103.883, 0, -0.000976562, 0, -0.120117, 0.282227, -9.78809, 1.13.2022 15:27:22.473
587, 1.76621, 0.553801, 103.883, 0, -0.000976562, 0, -0.142578, 0.286133, -9.73047, 1.13.2022 15:27:22.481
588, 1.76071, 0.558112, 103.883, 0, -0.00195312, 0, -0.0400391, 0.271484, -9.7373, 1.13.2022 15:27:22.489
589, 1.76071, 0.558112, 103.883, 0, -0.000976562, -0.000976562, -0.129883, 0.313477, -9.69727, 1.13.2022 15:27:22.497
590, 1.76071, 0.558112, 103.883, -0.000976562, -0.000976562, -0.000976562, -0.0859375, 0.302734, -9.75, 1.13.2022 15:27:22.505
591, 1.76071, 0.558112, 103.883, -0.000976562, -0.000976562, 0, -0.0712891, 0.308594, -9.7666, 1.13.2022 15:27:22.513
592, 1.76071, 0.558112, 103.883, 0, -0.000976562, 0, -0.147461, 0.316406, -9.71094, 1.13.2022 15:27:22.521
593, 1.76502, 0.563619, 103.882, 0, -0.000976562, -0.000976562, -0.078125, 0.300781, -9.74805, 1.13.2022 15:27:22.529
594, 1.76502, 0.563619, 103.882, 0, 0, -0.000976562, -0.114258, 0.302734, -9.74414, 1.13.2022 15:27:22.537
595, 1.76502, 0.563619, 103.882, -0.000976562, -0.000976562, -0.000976562, -0.104492, 0.307617, -9.74902, 1.13.2022 15:27:22.545
596, 1.76502, 0.563619, 103.882, 0, 0.000976562, 0, -0.0341797, 0.285156, -9.78418, 1.13.2022 15:27:22.553
597, 1.76502, 0.563619, 103.882, 0.000976562, -0.000976562, 0, -0.150391, 0.31543, -9.76465, 1.13.2022 15:27:22.561
598, 1.76502, 0.563619, 103.882, -0.000976562, 0, 0, -0.0947266, 0.313477, -9.70898, 1.13.2022 15:27:22.569
599, 1.76502, 0.563619, 103.882, -0.000976562, -0.000976562, 0, -0.0800781, 0.296875, -9.71484, 1.13.2022 15:27:22.577
600, 1.76502, 0.563619, 103.882, 0, -0.000976562, 0, -0.137695, 0.288086, -9.72852, 1.13.2022 15:27:22.585
601, 1.76502, 0.563619, 103.882, 0, -0.000976562, -0.000976562, -0.0712891, 0.288086, -9.71973, 1.13.2022 15:27:22.593
602, 1.76502, 0.563619, 103.882, 0, 0, -0.000976562, -0.135742, 0.293945, -9.77051, 1.13.2022 15:27:22.601
603, 1.75951, 0.56793, 103.882, 0, -0.000976562, 0, -0.118164, 0.306641, -9.70703, 1.13.2022 15:27:22.609
604, 1.76382, 0.573436, 103.882, 0, -0.000976562, 0.000976562, -0.0712891, 0.288086, -9.73633, 1.13.2022 15:27:22.617
605, 1.76382, 0.573436, 103.882, 0, -0.000976562, 0, -0.168945, 0.314453, -9.74121, 1.13.2022 15:27:22.625
606, 1.76382, 0.573436, 103.882, -0.000976562, -0.000976562, 0, -0.0947266, 0.292969, -9.74023, 1.13.2022 15:27:22.633
607, 1.76382, 0.573436, 103.882, 0, -0.000976562, 0, -0.0908203, 0.264648, -9.74121, 1.13.2022 15:27:22.641
608, 1.76382, 0.573436, 103.882, -0.000976562, -0.000976562, 0, -0.124023, 0.314453, -9.73438, 1.13.2022 15:27:22.649
609, 1.76382, 0.573436, 103.882, -0.000976562, 0, 0, -0.0380859, 0.287109, -9.77734, 1.13.2022 15:27:22.657
610, 1.76382, 0.573436, 103.882, -0.000976562, -0.000976562, 0, -0.119141, 0.291016, -9.75879, 1.13.2022 15:27:22.665
611, 1.76382, 0.573436, 103.882, -0.000976562, -0.000976562, 0, -0.124023, 0.30957, -9.73926, 1.13.2022 15:27:22.673
612, 1.76262, 0.583254, 103.882, 0, -0.000976562, 0, -0.0761719, 0.306641, -9.73047, 1.13.2022 15:27:22.681
613, 1.76262, 0.583254, 103.882, -0.000976562, -0.000976562, 0, -0.132812, 0.299805, -9.72754, 1.13.2022 15:27:22.689
614, 1.76262, 0.583254, 103.882, 0, -0.000976562, 0.000976562, -0.0751953, 0.301758, -9.71973, 1.13.2022 15:27:22.697
615, 1.76262, 0.583254, 103.882, -0.000976562, -0.000976562, 0, -0.0878906, 0.311523, -9.71191, 1.13.2022 15:27:22.705
616, 1.76262, 0.583254, 103.882, 0, -0.000976562, 0, -0.125977, 0.305664, -9.75586, 1.13.2022 15:27:22.713
617, 1.76262, 0.583254, 103.882, 0, -0.000976562, 0.000976562, -0.0585938, 0.289062, -9.69141, 1.13.2022 15:27:22.721
618, 1.76262, 0.583254, 103.882, 0.000976562, -0.000976562, 0, -0.130859, 0.280273, -9.72363, 1.13.2022 15:27:22.729
619, 1.76262, 0.583254, 103.882, -0.000976562, 0, 0, -0.0927734, 0.289062, -9.75195, 1.13.2022 15:27:22.737
620, 1.76262, 0.583254, 103.882, 0, 0, -0.000976562, -0.0517578, 0.298828, -9.70996, 1.13.2022 15:27:22.745
621, 1.76262, 0.583254, 103.882, 0, -0.000976562, 0, -0.147461, 0.318359, -9.71777, 1.13.2022 15:27:22.753
622, 1.76262, 0.583254, 103.882, 0, 0, 0, -0.0849609, 0.290039, -9.72852, 1.13.2022 15:27:22.761
623, 1.76262, 0.583254, 103.882, 0, -0.000976562, 0, -0.0996094, 0.294922, -9.72656, 1.13.2022 15:27:22.769
624, 1.76262, 0.583254, 103.882, 0, -0.000976562, 0, -0.12793, 0.307617, -9.73047, 1.13.2022 15:27:22.777
625, 1.76262, 0.583254, 103.882, 0, -0.000976562, 0, -0.0478516, 0.288086, -9.75098, 1.13.2022 15:27:22.785
626, 1.76262, 0.583254, 103.882, -0.000976562, -0.00195312, 0, -0.112305, 0.292969, -9.74707, 1.13.2022 15:27:22.793
627, 1.76262, 0.583254, 103.882, 0, 0, 0, -0.117188, 0.303711, -9.78027, 1.13.2022 15:27:22.801
628, 1.76262, 0.583254, 103.882, 0, 0, 0, -0.0957031, 0.256836, -9.74414, 1.13.2022 15:27:22.809
629, 1.76262, 0.583254, 103.882, -0.000976562, -0.000976562, -0.000976562, -0.155273, 0.319336, -9.74609, 1.13.2022 15:27:22.817
630, 1.76262, 0.583254, 103.882, 0, 0, -0.00292969, -0.0878906, 0.299805, -9.71484, 1.13.2022 15:27:22.825
631, 1.76262, 0.583254, 103.882, -0.000976562, 0, -0.000976562, -0.0878906, 0.297852, -9.73535, 1.13.2022 15:27:22.833
632, 1.76262, 0.583254, 103.882, -0.000976562, 0, -0.000976562, -0.137695, 0.333984, -9.74609, 1.13.2022 15:27:22.841
633, 1.76262, 0.583254, 103.882, 0, 0, 0, -0.0263672, 0.28125, -9.75879, 1.13.2022 15:27:22.849
634, 1.76262, 0.583254, 103.882, 0, 0, -0.000976562, -0.143555, 0.303711, -9.77441, 1.13.2022 15:27:22.857
635, 1.76262, 0.583254, 103.882, 0.000976562, 0, -0.000976562, -0.106445, 0.310547, -9.68066, 1.13.2022 15:27:22.865
636, 1.75832, 0.577747, 103.882, 0, -0.000976562, -0.000976562, -0.0595703, 0.293945, -9.77148, 1.13.2022 15:27:22.873
637, 1.76262, 0.583254, 103.882, 0, 0, 0, -0.162109, 0.324219, -9.72949, 1.13.2022 15:27:22.881
638, 1.76262, 0.583254, 103.882, 0, -0.000976562, 0, -0.0830078, 0.264648, -9.75098, 1.13.2022 15:27:22.889
639, 1.76262, 0.583254, 103.882, 0, -0.000976562, -0.000976562, -0.125977, 0.300781, -9.74414, 1.13.2022 15:27:22.897
640, 1.76262, 0.583254, 103.882, 0, 0, 0, -0.117188, 0.322266, -9.75098, 1.13.2022 15:27:22.905
641, 1.76262, 0.583254, 103.882, 0, 0, -0.000976562, -0.0742188, 0.288086, -9.74805, 1.13.2022 15:27:22.913
642, 1.76262, 0.583254, 103.882, 0, -0.000976562, -0.000976562, -0.15918, 0.306641, -9.71289, 1.13.2022 15:27:22.921
643, 1.75729, 0.587627, 103.892, 0, -0.00195312, -0.00195312, -0.0947266, 0.301758, -9.72363, 1.13.2022 15:27:22.929
644, 1.75729, 0.587627, 103.892, -0.000976562, -0.000976562, -0.000976562, -0.0898438, 0.277344, -9.70508, 1.13.2022 15:27:22.937
645, 1.75729, 0.587627, 103.892, -0.000976562, 0, -0.000976562, -0.138672, 0.298828, -9.76367, 1.13.2022 15:27:22.945
646, 1.75729, 0.587627, 103.892, 0, -0.000976562, 0, -0.0791016, 0.270508, -9.78418, 1.13.2022 15:27:22.953
647, 1.7616, 0.593134, 103.892, 0, -0.000976562, -0.000976562, -0.0859375, 0.264648, -9.74805, 1.13.2022 15:27:22.961
648, 1.7616, 0.593134, 103.892, -0.000976562, -0.000976562, 0, -0.125977, 0.300781, -9.74707, 1.13.2022 15:27:22.969
649, 1.7616, 0.593134, 103.892, 0, 0, 0, -0.0644531, 0.291016, -9.74121, 1.13.2022 15:27:22.977
650, 1.7616, 0.593134, 103.892, 0, -0.000976562, 0, -0.128906, 0.313477, -9.76758, 1.13.2022 15:27:22.985
651, 1.75609, 0.597444, 103.892, 0, -0.000976562, 0, -0.0810547, 0.301758, -9.77637, 1.13.2022 15:27:22.993
652, 1.75178, 0.591938, 103.892, -0.000976562, 0, -0.000976562, -0.0732422, 0.306641, -9.72363, 1.13.2022 15:27:23.001
653, 1.75609, 0.597444, 103.892, -0.000976562, -0.000976562, 0, -0.15625, 0.323242, -9.70117, 1.13.2022 15:27:23.009
654, 1.75609, 0.597444, 103.892, 0, -0.000976562, 0, -0.0615234, 0.304688, -9.72656, 1.13.2022 15:27:23.017
655, 1.75609, 0.597444, 103.892, -0.000976562, 0, 0, -0.108398, 0.287109, -9.70215, 1.13.2022 15:27:23.023
656, 1.75609, 0.597444, 103.892, 0, -0.000976562, 0, -0.113281, 0.335938, -9.71777, 1.13.2022 15:27:23.031
657, 1.75609, 0.597444, 103.892, 0, -0.000976562, 0, -0.046875, 0.301758, -9.72656, 1.13.2022 15:27:23.039
658, 1.75592, 0.597383, 103.882, 0.000976562, -0.00195312, 0, -0.144531, 0.301758, -9.71387, 1.13.2022 15:27:23.047
659, 1.75592, 0.597383, 103.882, 0.000976562, -0.000976562, 0, -0.0869141, 0.300781, -9.68848, 1.13.2022 15:27:23.055
660, 1.76143, 0.593072, 103.882, 0, -0.000976562, 0, -0.0605469, 0.269531, -9.6875, 1.13.2022 15:27:23.063
661, 1.76143, 0.593072, 103.882, -0.000976562, -0.000976562, 0, -0.132812, 0.299805, -9.73535, 1.13.2022 15:27:23.071
662, 1.76143, 0.593072, 103.882, 0, -0.000976562, 0, -0.0732422, 0.266602, -9.7207, 1.13.2022 15:27:23.079
663, 1.76143, 0.593072, 103.882, 0, -0.000976562, 0, -0.0957031, 0.286133, -9.75488, 1.13.2022 15:27:23.087
664, 1.76143, 0.593072, 103.882, -0.000976562, 0, -0.000976562, -0.12207, 0.338867, -9.75977, 1.13.2022 15:27:23.095
665, 1.75712, 0.587565, 103.882, -0.000976562, 0, -0.000976562, -0.046875, 0.285156, -9.71777, 1.13.2022 15:27:23.103
666, 1.75712, 0.587565, 103.882, -0.000976562, 0, -0.000976562, -0.150391, 0.308594, -9.7627, 1.13.2022 15:27:23.111
667, 1.75712, 0.587565, 103.882, 0, -0.000976562, -0.000976562, -0.0878906, 0.291016, -9.75488, 1.13.2022 15:27:23.119
668, 1.75712, 0.587565, 103.882, -0.000976562, -0.000976562, -0.000976562, -0.0908203, 0.291016, -9.75, 1.13.2022 15:27:23.127
669, 1.75712, 0.587565, 103.882, 0.000976562, -0.000976562, 0, -0.150391, 0.305664, -9.75586, 1.13.2022 15:27:23.135
670, 1.75712, 0.587565, 103.882, 0.000976562, -0.000976562, -0.000976562, -0.0615234, 0.279297, -9.74609, 1.13.2022 15:27:23.143
671, 1.75712, 0.587565, 103.882, 0, -0.000976562, 0, -0.128906, 0.28418, -9.75195, 1.13.2022 15:27:23.151
672, 1.75712, 0.587565, 103.882, -0.000976562, -0.000976562, 0, -0.117188, 0.31543, -9.75391, 1.13.2022 15:27:23.159
673, 1.75712, 0.587565, 103.882, -0.000976562, 0, 0, -0.0527344, 0.277344, -9.76562, 1.13.2022 15:27:23.167
674, 1.75712, 0.587565, 103.882, -0.000976562, 0, -0.000976562, -0.132812, 0.311523, -9.71777, 1.13.2022 15:27:23.175
675, 1.75712, 0.587565, 103.882, 0, 0, -0.000976562, -0.0644531, 0.299805, -9.74316, 1.13.2022 15:27:23.183
676, 1.75712, 0.587565, 103.882, 0.000976562, 0, -0.000976562, -0.0878906, 0.283203, -9.7334, 1.13.2022 15:27:23.191
677, 1.75712, 0.587565, 103.882, 0, -0.000976562, 0, -0.133789, 0.303711, -9.76562, 1.13.2022 15:27:23.199
678, 1.75712, 0.587565, 103.882, 0, -0.000976562, -0.000976562, -0.0332031, 0.286133, -9.75781, 1.13.2022 15:27:23.207
679, 1.75281, 0.582058, 103.882, -0.000976562, 0, -0.000976562, -0.12793, 0.299805, -9.71582, 1.13.2022 15:27:23.215
680, 1.75281, 0.582058, 103.882, 0, -0.00195312, 0, -0.111328, 0.306641, -9.71875, 1.13.2022 15:27:23.223
681, 1.75281, 0.582058, 103.882, 0, -0.000976562, 0, -0.0761719, 0.282227, -9.77148, 1.13.2022 15:27:23.231
682, 1.75281, 0.582058, 103.882, 0, -0.000976562, 0, -0.149414, 0.301758, -9.70605, 1.13.2022 15:27:23.239
683, 1.75281, 0.582058, 103.882, 0, -0.000976562, -0.000976562, -0.0878906, 0.294922, -9.7168, 1.13.2022 15:27:23.247
684, 1.75281, 0.582058, 103.882, 0, 0, 0, -0.0761719, 0.264648, -9.74414, 1.13.2022 15:27:23.255
685, 1.75281, 0.582058, 103.882, 0, -0.000976562, 0, -0.147461, 0.293945, -9.75391, 1.13.2022 15:27:23.263
686, 1.75281, 0.582058, 103.882, 0, 0, 0, -0.0546875, 0.264648, -9.75391, 1.13.2022 15:27:23.271
687, 1.75281, 0.582058, 103.882, -0.000976562, 0, -0.000976562, -0.106445, 0.291992, -9.71191, 1.13.2022 15:27:23.279
688, 1.75281, 0.582058, 103.882, -0.000976562, -0.000976562, -0.000976562, -0.109375, 0.321289, -9.73047, 1.13.2022 15:27:23.287
689, 1.7485, 0.576552, 103.882, 0, -0.000976562, -0.000976562, -0.0693359, 0.295898, -9.75781, 1.13.2022 15:27:23.295
690, 1.743, 0.580862, 103.882, -0.000976562, -0.00195312, -0.000976562, -0.162109, 0.303711, -9.75586, 1.13.2022 15:27:23.303
691, 1.74317, 0.580924, 103.892, 0, -0.000976562, -0.000976562, -0.0683594, 0.326172, -9.74023, 1.13.2022 15:27:23.311
692, 1.74317, 0.580924, 103.892, 0, -0.000976562, -0.000976562, -0.111328, 0.291992, -9.7168, 1.13.2022 15:27:23.319
693, 1.74748, 0.586431, 103.892, -0.000976562, 0, -0.000976562, -0.125977, 0.304688, -9.71094, 1.13.2022 15:27:23.327
694, 1.74748, 0.586431, 103.892, 0, -0.000976562, 0, -0.0761719, 0.286133, -9.74316, 1.13.2022 15:27:23.335
695, 1.74748, 0.586431, 103.892, 0, -0.000976562, 0, -0.133789, 0.286133, -9.74902, 1.13.2022 15:27:23.343
696, 1.74748, 0.586431, 103.892, 0.000976562, -0.000976562, 0, -0.109375, 0.300781, -9.75879, 1.13.2022 15:27:23.351
697, 1.74748, 0.586431, 103.892, 0, 0, 0, -0.0859375, 0.295898, -9.74316, 1.13.2022 15:27:23.359
698, 1.74748, 0.586431, 103.892, 0, 0.000976562, 0, -0.147461, 0.325195, -9.75977, 1.13.2022 15:27:23.367
699, 1.74748, 0.586431, 103.892, 0, -0.000976562, -0.000976562, -0.0595703, 0.3125, -9.76172, 1.13.2022 15:27:23.375
700, 1.74748, 0.586431, 103.892, 0.000976562, -0.000976562, 0, -0.111328, 0.311523, -9.70898, 1.13.2022 15:27:23.383
701, 1.74748, 0.586431, 103.892, 0, -0.000976562, -0.000976562, -0.115234, 0.308594, -9.68066, 1.13.2022 15:27:23.391
702, 1.74748, 0.586431, 103.892, -0.000976562, 0, -0.000976562, -0.0351562, 0.295898, -9.74609, 1.13.2022 15:27:23.399
703, 1.74748, 0.586431, 103.892, -0.000976562, 0, 0, -0.12207, 0.310547, -9.77246, 1.13.2022 15:27:23.407
704, 1.75298, 0.582121, 103.892, -0.000976562, 0, 0, -0.0927734, 0.308594, -9.77051, 1.13.2022 15:27:23.415
705, 1.75298, 0.582121, 103.892, 0, 0, 0, -0.0800781, 0.273438, -9.71094, 1.13.2022 15:27:23.423
706, 1.75298, 0.582121, 103.892, -0.000976562, -0.000976562, -0.000976562, -0.15918, 0.304688, -9.71777, 1.13.2022 15:27:23.431
707, 1.75298, 0.582121, 103.892, -0.000976562, -0.000976562, 0, -0.0566406, 0.285156, -9.72461, 1.13.2022 15:27:23.439
708, 1.75729, 0.587627, 103.892, 0, -0.000976562, -0.000976562, -0.106445, 0.313477, -9.71094, 1.13.2022 15:27:23.447
709, 1.75729, 0.587627, 103.892, 0, 0, -0.000976562, -0.139648, 0.311523, -9.70898, 1.13.2022 15:27:23.455
710, 1.75729, 0.587627, 103.892, 0, -0.000976562, -0.000976562, -0.0683594, 0.275391, -9.69629, 1.13.2022 15:27:23.463
711, 1.75729, 0.587627, 103.892, -0.000976562, -0.00195312, -0.000976562, -0.160156, 0.310547, -9.75293, 1.13.2022 15:27:23.471
712, 1.75729, 0.587627, 103.892, -0.000976562, -0.000976562, 0, -0.0986328, 0.295898, -9.68848, 1.13.2022 15:27:23.479
713, 1.75729, 0.587627, 103.892, 0, -0.000976562, 0, -0.0712891, 0.264648, -9.7373, 1.13.2022 15:27:23.487
714, 1.75729, 0.587627, 103.892, -0.000976562, 0, 0, -0.135742, 0.338867, -9.75781, 1.13.2022 15:27:23.495
715, 1.75729, 0.587627, 103.892, -0.000976562, 0, 0, -0.0429688, 0.297852, -9.75781, 1.13.2022 15:27:23.503
716, 1.75729, 0.587627, 103.892, -0.000976562, -0.000976562, 0, -0.102539, 0.292969, -9.73047, 1.13.2022 15:27:23.511
717, 1.75729, 0.587627, 103.892, -0.000976562, -0.000976562, 0, -0.104492, 0.299805, -9.71875, 1.13.2022 15:27:23.519
718, 1.7628, 0.583317, 103.892, -0.000976562, 0, -0.000976562, -0.0410156, 0.291016, -9.76758, 1.13.2022 15:27:23.527
719, 1.7628, 0.583317, 103.892, 0, -0.000976562, 0, -0.12793, 0.324219, -9.73242, 1.13.2022 15:27:23.535
720, 1.7628, 0.583317, 103.892, -0.000976562, -0.000976562, 0, -0.0830078, 0.297852, -9.72363, 1.13.2022 15:27:23.543
721, 1.76262, 0.583254, 103.882, 0, -0.000976562, 0, -0.0693359, 0.289062, -9.77441, 1.13.2022 15:27:23.551
722, 1.76262, 0.583254, 103.882, -0.000976562, -0.000976562, 0, -0.155273, 0.317383, -9.75977, 1.13.2022 15:27:23.559
723, 1.76262, 0.583254, 103.882, 0, 0, 0, -0.0449219, 0.285156, -9.71582, 1.13.2022 15:27:23.567
724, 1.76262, 0.583254, 103.882, -0.000976562, -0.000976562, -0.000976562, -0.104492, 0.302734, -9.75195, 1.13.2022 15:27:23.575
725, 1.76262, 0.583254, 103.882, -0.000976562, -0.000976562, -0.000976562, -0.135742, 0.302734, -9.75391, 1.13.2022 15:27:23.583
726, 1.76813, 0.578943, 103.882, -0.000976562, -0.000976562, -0.000976562, -0.0429688, 0.28125, -9.75391, 1.13.2022 15:27:23.591
727, 1.76813, 0.578943, 103.882, 0, -0.000976562, 0, -0.134766, 0.333008, -9.71484, 1.13.2022 15:27:23.599
728, 1.76813, 0.578943, 103.882, -0.000976562, -0.000976562, 0, -0.0566406, 0.294922, -9.71484, 1.13.2022 15:27:23.607
729, 1.76813, 0.578943, 103.882, 0, -0.000976562, 0, -0.0878906, 0.294922, -9.70996, 1.13.2022 15:27:23.615
730, 1.76813, 0.578943, 103.882, 0, -0.000976562, 0, -0.152344, 0.305664, -9.74609, 1.13.2022 15:27:23.623
731, 1.76813, 0.578943, 103.882, -0.000976562, 0, -0.000976562, -0.0498047, 0.299805, -9.72168, 1.13.2022 15:27:23.631
732, 1.76813, 0.578943, 103.882, -0.000976562, 0, -0.000976562, -0.111328, 0.294922, -9.73047, 1.13.2022 15:27:23.639
733, 1.77363, 0.574632, 103.882, -0.000976562, -0.000976562, 0, -0.104492, 0.319336, -9.73926, 1.13.2022 15:27:23.647
734, 1.76932, 0.569125, 103.882, -0.000976562, -0.000976562, 0, -0.0664062, 0.279297, -9.75586, 1.13.2022 15:27:23.655
735, 1.76932, 0.569125, 103.882, -0.000976562, -0.000976562, -0.000976562, -0.132812, 0.297852, -9.73535, 1.13.2022 15:27:23.663
736, 1.76932, 0.569125, 103.882, 0, -0.000976562, 0, -0.0517578, 0.316406, -9.71484, 1.13.2022 15:27:23.671
737, 1.76932, 0.569125, 103.882, 0, 0, 0, -0.102539, 0.293945, -9.75488, 1.13.2022 15:27:23.679
738, 1.76932, 0.569125, 103.882, 0, 0, 0, -0.134766, 0.285156, -9.70215, 1.13.2022 15:27:23.687
739, 1.76932, 0.569125, 103.882, 0, -0.000976562, -0.000976562, -0.0332031, 0.285156, -9.72754, 1.13.2022 15:27:23.695
740, 1.76932, 0.569125, 103.882, -0.000976562, -0.000976562, 0, -0.164062, 0.286133, -9.72754, 1.13.2022 15:27:23.703
741, 1.76932, 0.569125, 103.882, 0, -0.000976562, -0.000976562, -0.116211, 0.30957, -9.7373, 1.13.2022 15:27:23.711
742, 1.76932, 0.569125, 103.882, 0, 0, -0.000976562, -0.0566406, 0.283203, -9.73145, 1.13.2022 15:27:23.719
743, 1.76932, 0.569125, 103.882, 0, -0.000976562, 0, -0.144531, 0.299805, -9.7207, 1.13.2022 15:27:23.727
744, 1.76932, 0.569125, 103.882, 0, -0.000976562, 0, -0.0664062, 0.292969, -9.7334, 1.13.2022 15:27:23.735
745, 1.76932, 0.569125, 103.882, -0.000976562, 0, 0, -0.116211, 0.30957, -9.73535, 1.13.2022 15:27:23.743
746, 1.76932, 0.569125, 103.882, -0.000976562, 0, 0, -0.130859, 0.304688, -9.74219, 1.13.2022 15:27:23.751
747, 1.76932, 0.569125, 103.882, -0.000976562, -0.000976562, 0, -0.0498047, 0.283203, -9.73242, 1.13.2022 15:27:23.759
748, 1.76932, 0.569125, 103.882, -0.000976562, -0.000976562, 0, -0.111328, 0.298828, -9.70508, 1.13.2022 15:27:23.767
749, 1.76932, 0.569125, 103.882, 0, -0.000976562, -0.000976562, -0.0966797, 0.295898, -9.67871, 1.13.2022 15:27:23.775
750, 1.76382, 0.573436, 103.882, 0.000976562, -0.000976562, -0.000976562, -0.0693359, 0.28418, -9.74805, 1.13.2022 15:27:23.783
751, 1.76382, 0.573436, 103.882, -0.000976562, -0.00195312, -0.000976562, -0.15625, 0.321289, -9.71484, 1.13.2022 15:27:23.791
752, 1.76382, 0.573436, 103.882, 0, -0.000976562, -0.000976562, -0.0742188, 0.314453, -9.74707, 1.13.2022 15:27:23.799
753, 1.76382, 0.573436, 103.882, 0, -0.000976562, 0, -0.116211, 0.313477, -9.71094, 1.13.2022 15:27:23.807
754, 1.76382, 0.573436, 103.882, 0, -0.000976562, 0, -0.119141, 0.317383, -9.75391, 1.13.2022 15:27:23.815
755, 1.76382, 0.573436, 103.882, -0.000976562, 0, 0.000976562, -0.0498047, 0.294922, -9.72949, 1.13.2022 15:27:23.823
756, 1.76382, 0.573436, 103.882, 0, -0.000976562, 0, -0.142578, 0.30957, -9.74414, 1.13.2022 15:27:23.831
757, 1.76382, 0.573436, 103.882, 0, -0.00195312, 0, -0.0996094, 0.301758, -9.72363, 1.13.2022 15:27:23.839
758, 1.76382, 0.573436, 103.882, 0, -0.000976562, -0.000976562, -0.0830078, 0.276367, -9.72656, 1.13.2022 15:27:23.847
759, 1.76382, 0.573436, 103.882, 0, -0.000976562, 0, -0.175781, 0.328125, -9.72168, 1.13.2022 15:27:23.855
760, 1.76382, 0.573436, 103.882, 0, -0.000976562, -0.000976562, -0.0751953, 0.285156, -9.71777, 1.13.2022 15:27:23.863
761, 1.76813, 0.578943, 103.882, 0, 0, 0, -0.105469, 0.298828, -9.76855, 1.13.2022 15:27:23.871
762, 1.76813, 0.578943, 103.882, 0, -0.000976562, 0, -0.124023, 0.314453, -9.74609, 1.13.2022 15:27:23.879
763, 1.76813, 0.578943, 103.882, 0.000976562, 0, 0, -0.0722656, 0.28418, -9.77441, 1.13.2022 15:27:23.887
764, 1.76813, 0.578943, 103.882, 0.000976562, 0, 0, -0.141602, 0.316406, -9.78418, 1.13.2022 15:27:23.895
765, 1.76813, 0.578943, 103.882, 0, 0, 0.000976562, -0.0712891, 0.307617, -9.76172, 1.13.2022 15:27:23.903
766, 1.76813, 0.578943, 103.882, 0.000976562, 0, -0.000976562, -0.0947266, 0.302734, -9.73828, 1.13.2022 15:27:23.911
767, 1.76262, 0.583254, 103.882, 0.000976562, -0.000976562, -0.000976562, -0.147461, 0.318359, -9.71484, 1.13.2022 15:27:23.919
768, 1.76262, 0.583254, 103.882, -0.000976562, 0, -0.000976562, -0.0576172, 0.28418, -9.75781, 1.13.2022 15:27:23.927
769, 1.76262, 0.583254, 103.882, 0, 0, -0.000976562, -0.106445, 0.280273, -9.70801, 1.13.2022 15:27:23.935
770, 1.76262, 0.583254, 103.882, 0, 0, -0.000976562, -0.0966797, 0.310547, -9.68848, 1.13.2022 15:27:23.943
771, 1.76262, 0.583254, 103.882, 0, -0.000976562, -0.000976562, -0.0429688, 0.290039, -9.73633, 1.13.2022 15:27:23.951
772, 1.76262, 0.583254, 103.882, 0, -0.000976562, 0, -0.141602, 0.304688, -9.80566, 1.13.2022 15:27:23.959
773, 1.76262, 0.583254, 103.882, 0, 0, 0, -0.0800781, 0.294922, -9.71191, 1.13.2022 15:27:23.967
774, 1.76262, 0.583254, 103.882, 0, -0.000976562, 0, -0.0664062, 0.292969, -9.72168, 1.13.2022 15:27:23.975
775, 1.76262, 0.583254, 103.882, -0.000976562, 0, -0.000976562, -0.135742, 0.28125, -9.72559, 1.13.2022 15:27:23.983
776, 1.76262, 0.583254, 103.882, 0, 0, 0, -0.046875, 0.28125, -9.73242, 1.13.2022 15:27:23.991
777, 1.76262, 0.583254, 103.882, 0, -0.000976562, 0, -0.125, 0.298828, -9.6875, 1.13.2022 15:27:23.999
778, 1.76262, 0.583254, 103.882, 0.000976562, 0, 0, -0.0927734, 0.296875, -9.72168, 1.13.2022 15:27:24.005
779, 1.75832, 0.577747, 103.882, 0, 0, -0.000976562, -0.046875, 0.268555, -9.72754, 1.13.2022 15:27:24.013
780, 1.75832, 0.577747, 103.882, 0, 0, 0, -0.168945, 0.319336, -9.72656, 1.13.2022 15:27:24.021
781, 1.75832, 0.577747, 103.882, 0, 0, 0, -0.133789, 0.289062, -9.76074, 1.13.2022 15:27:24.029
782, 1.75832, 0.577747, 103.882, -0.00195312, 0, 0, -0.0927734, 0.302734, -9.73047, 1.13.2022 15:27:24.037
783, 1.75832, 0.577747, 103.882, 0, -0.000976562, 0, -0.142578, 0.326172, -9.72461, 1.13.2022 15:27:24.045
784, 1.75832, 0.577747, 103.882, 0, -0.000976562, -0.000976562, -0.0273438, 0.293945, -9.7041, 1.13.2022 15:27:24.053
785, 1.75832, 0.577747, 103.882, 0, 0, -0.000976562, -0.104492, 0.292969, -9.72656, 1.13.2022 15:27:24.061
786, 1.75832, 0.577747, 103.882, 0, -0.000976562, -0.000976562, -0.106445, 0.321289, -9.72266, 1.13.2022 15:27:24.069
787, 1.75832, 0.577747, 103.882, -0.00195312, 0, -0.000976562, -0.0527344, 0.298828, -9.77832, 1.13.2022 15:27:24.077
788, 1.75832, 0.577747, 103.882, 0, -0.000976562, -0.000976562, -0.15625, 0.306641, -9.80078, 1.13.2022 15:27:24.085
789, 1.75849, 0.57781, 103.892, 0, -0.000976562, -0.000976562, -0.0830078, 0.306641, -9.72852, 1.13.2022 15:27:24.093
790, 1.75849, 0.57781, 103.892, 0, -0.000976562, 0, -0.109375, 0.276367, -9.74316, 1.13.2022 15:27:24.101
791, 1.75849, 0.57781, 103.892, 0, 0, 0, -0.12793, 0.306641, -9.7207, 1.13.2022 15:27:24.109
792, 1.75832, 0.577747, 103.882, -0.00195312, -0.000976562, 0, -0.0712891, 0.28125, -9.73633, 1.13.2022 15:27:24.117
793, 1.75832, 0.577747, 103.882, 0, -0.000976562, 0, -0.142578, 0.302734, -9.74414, 1.13.2022 15:27:24.125
794, 1.75832, 0.577747, 103.882, 0, 0, -0.000976562, -0.107422, 0.328125, -9.77734, 1.13.2022 15:27:24.133
795, 1.75849, 0.57781, 103.892, 0, 0, -0.00195312, -0.0712891, 0.28418, -9.7627, 1.13.2022 15:27:24.141
796, 1.75849, 0.57781, 103.892, 0, 0, -0.000976562, -0.150391, 0.287109, -9.76855, 1.13.2022 15:27:24.149
797, 1.7628, 0.583317, 103.892, 0, -0.000976562, -0.000976562, -0.0712891, 0.290039, -9.72168, 1.13.2022 15:27:24.157
798, 1.7628, 0.583317, 103.892, 0, -0.000976562, 0, -0.116211, 0.302734, -9.73047, 1.13.2022 15:27:24.165
799, 1.7628, 0.583317, 103.892, 0, -0.000976562, -0.000976562, -0.104492, 0.299805, -9.7168, 1.13.2022 15:27:24.173
800, 1.7628, 0.583317, 103.892, 0, -0.000976562, 0, -0.0527344, 0.28125, -9.74609, 1.13.2022 15:27:24.181
801, 1.7628, 0.583317, 103.892, 0, -0.000976562, -0.000976562, -0.128906, 0.303711, -9.76074, 1.13.2022 15:27:24.189
802, 1.7628, 0.583317, 103.892, -0.00195312, -0.000976562, -0.000976562, -0.12207, 0.317383, -9.76562, 1.13.2022 15:27:24.197
803, 1.7628, 0.583317, 103.892, 0, -0.000976562, -0.000976562, -0.0898438, 0.306641, -9.72168, 1.13.2022 15:27:24.205
804, 1.7628, 0.583317, 103.892, 0, -0.000976562, 0, -0.137695, 0.30957, -9.74121, 1.13.2022 15:27:24.213
805, 1.7628, 0.583317, 103.892, 0, 0, -0.000976562, -0.0332031, 0.285156, -9.73438, 1.13.2022 15:27:24.221
806, 1.7628, 0.583317, 103.892, -0.00195312, 0, 0, -0.0927734, 0.286133, -9.75684, 1.13.2022 15:27:24.229
807, 1.7628, 0.583317, 103.892, 0, -0.000976562, 0, -0.117188, 0.325195, -9.76758, 1.13.2022 15:27:24.237
808, 1.7628, 0.583317, 103.892, -0.00195312, -0.000976562, 0, -0.0527344, 0.282227, -9.78125, 1.13.2022 15:27:24.245
809, 1.7628, 0.583317, 103.892, -0.000976562, -0.000976562, -0.000976562, -0.150391, 0.291016, -9.74902, 1.13.2022 15:27:24.253
810, 1.7628, 0.583317, 103.892, -0.000976562, 0, -0.000976562, -0.111328, 0.313477, -9.7041, 1.13.2022 15:27:24.261
811, 1.7628, 0.583317, 103.892, 0, 0, -0.000976562, -0.0712891, 0.263672, -9.71777, 1.13.2022 15:27:24.269
812, 1.7628, 0.583317, 103.892, 0, -0.000976562, -0.000976562, -0.137695, 0.317383, -9.73926, 1.13.2022 15:27:24.277
813, 1.7628, 0.583317, 103.892, 0, -0.000976562, 0, -0.0791016, 0.289062, -9.75781, 1.13.2022 15:27:24.285
814, 1.7628, 0.583317, 103.892, -0.000976562, -0.000976562, 0, -0.0996094, 0.302734, -9.74023, 1.13.2022 15:27:24.293
815, 1.7628, 0.583317, 103.892, 0, 0, 0, -0.111328, 0.333984, -9.74414, 1.13.2022 15:27:24.301
816, 1.7628, 0.583317, 103.892, 0, 0, -0.000976562, -0.0283203, 0.300781, -9.76465, 1.13.2022 15:27:24.309
817, 1.7628, 0.583317, 103.892, 0.000976562, -0.000976562, 0, -0.128906, 0.327148, -9.74414, 1.13.2022 15:27:24.317
818, 1.7628, 0.583317, 103.892, 0, 0, -0.000976562, -0.132812, 0.306641, -9.70605, 1.13.2022 15:27:24.325
819, 1.7628, 0.583317, 103.892, 0.000976562, 0, -0.000976562, -0.106445, 0.290039, -9.71191, 1.13.2022 15:27:24.333
820, 1.7628, 0.583317, 103.892, 0, -0.000976562, 0, -0.15918, 0.307617, -9.74121, 1.13.2022 15:27:24.341
821, 1.7628, 0.583317, 103.892, 0, 0, 0, -0.0527344, 0.303711, -9.76465, 1.13.2022 15:27:24.349
822, 1.7628, 0.583317, 103.892, -0.000976562, 0, 0, -0.0957031, 0.308594, -9.77734, 1.13.2022 15:27:24.357
823, 1.7628, 0.583317, 103.892, -0.000976562, -0.000976562, -0.000976562, -0.12793, 0.297852, -9.73535, 1.13.2022 15:27:24.365
824, 1.7683, 0.579006, 103.892, 0, 0, -0.000976562, -0.0615234, 0.276367, -9.72754, 1.13.2022 15:27:24.373
825, 1.77261, 0.584513, 103.891, 0, 0, -0.000976562, -0.149414, 0.326172, -9.73828, 1.13.2022 15:27:24.381
826, 1.77261, 0.584513, 103.891, 0.000976562, -0.000976562, 0, -0.109375, 0.305664, -9.75195, 1.13.2022 15:27:24.389
827, 1.7671, 0.588823, 103.892, 0.000976562, -0.000976562, 0, -0.0878906, 0.273438, -9.73438, 1.13.2022 15:27:24.397
828, 1.7671, 0.588823, 103.892, 0, 0, -0.000976562, -0.149414, 0.3125, -9.73633, 1.13.2022 15:27:24.405
829, 1.7671, 0.588823, 103.892, 0, -0.000976562, -0.000976562, -0.0615234, 0.273438, -9.71777, 1.13.2022 15:27:24.413
830, 1.7671, 0.588823, 103.892, 0.000976562, -0.000976562, -0.000976562, -0.109375, 0.319336, -9.74902, 1.13.2022 15:27:24.421
831, 1.7671, 0.588823, 103.892, 0, -0.000976562, -0.000976562, -0.124023, 0.322266, -9.75586, 1.13.2022 15:27:24.429
832, 1.7671, 0.588823, 103.892, -0.000976562, -0.000976562, -0.000976562, -0.0761719, 0.300781, -9.75195, 1.13.2022 15:27:24.437
833, 1.7671, 0.588823, 103.892, 0, -0.000976562, -0.000976562, -0.150391, 0.317383, -9.75977, 1.13.2022 15:27:24.445
834, 1.77141, 0.59433, 103.891, -0.000976562, -0.000976562, 0, -0.104492, 0.331055, -9.73438, 1.13.2022 15:27:24.453
835, 1.77141, 0.59433, 103.891, -0.000976562, -0.000976562, 0, -0.0751953, 0.310547, -9.67676, 1.13.2022 15:27:24.461
836, 1.77141, 0.59433, 103.891, 0, -0.000976562, 0, -0.121094, 0.333984, -9.73438, 1.13.2022 15:27:24.469
837, 1.77141, 0.59433, 103.891, -0.000976562, -0.000976562, 0, -0.0791016, 0.300781, -9.7666, 1.13.2022 15:27:24.477
838, 1.78123, 0.595526, 103.891, 0, -0.000976562, 0, -0.116211, 0.305664, -9.69238, 1.13.2022 15:27:24.485
839, 1.78123, 0.595526, 103.891, 0, -0.000976562, 0, -0.106445, 0.31543, -9.68066, 1.13.2022 15:27:24.493
840, 1.78123, 0.595526, 103.891, 0, -0.000976562, 0, -0.0566406, 0.283203, -9.72754, 1.13.2022 15:27:24.501
841, 1.78123, 0.595526, 103.891, -0.000976562, -0.000976562, -0.000976562, -0.15918, 0.307617, -9.74609, 1.13.2022 15:27:24.509
842, 1.78554, 0.601033, 103.891, -0.000976562, -0.000976562, -0.000976562, -0.0976562, 0.316406, -9.73535, 1.13.2022 15:27:24.517
843, 1.78554, 0.601033, 103.891, 0, -0.000976562, 0, -0.0927734, 0.314453, -9.73535, 1.13.2022 15:27:24.525
844, 1.78554, 0.601033, 103.891, -0.000976562, 0, 0, -0.147461, 0.31543, -9.75781, 1.13.2022 15:27:24.533
845, 1.78554, 0.601033, 103.891, 0, 0, -0.000976562, -0.0664062, 0.264648, -9.74219, 1.13.2022 15:27:24.541
846, 1.78554, 0.601033, 103.891, 0, 0.000976562, 0, -0.119141, 0.302734, -9.73242, 1.13.2022 15:27:24.549
847, 1.79104, 0.596723, 103.891, 0, -0.000976562, 0, -0.125977, 0.311523, -9.71777, 1.13.2022 15:27:24.557
848, 1.79104, 0.596723, 103.891, -0.000976562, -0.000976562, -0.000976562, -0.0478516, 0.297852, -9.73633, 1.13.2022 15:27:24.565
849, 1.79104, 0.596723, 103.891, 0, 0, -0.000976562, -0.150391, 0.308594, -9.7793, 1.13.2022 15:27:24.573
850, 1.79104, 0.596723, 103.891, 0, 0, -0.000976562, -0.0976562, 0.304688, -9.72559, 1.13.2022 15:27:24.581
851, 1.79535, 0.602229, 103.891, 0, -0.000976562, 0, -0.103516, 0.310547, -9.69043, 1.13.2022 15:27:24.589
852, 1.79535, 0.602229, 103.891, -0.000976562, -0.000976562, 0, -0.161133, 0.298828, -9.69434, 1.13.2022 15:27:24.597
853, 1.79535, 0.602229, 103.891, 0, -0.000976562, 0, -0.0527344, 0.283203, -9.74414, 1.13.2022 15:27:24.605
854, 1.79535, 0.602229, 103.891, -0.000976562, -0.000976562, -0.000976562, -0.134766, 0.300781, -9.68555, 1.13.2022 15:27:24.613
855, 1.78985, 0.60654, 103.891, 0, -0.000976562, -0.000976562, -0.107422, 0.297852, -9.74023, 1.13.2022 15:27:24.621
856, 1.78985, 0.60654, 103.891, 0, -0.000976562, 0, -0.0683594, 0.273438, -9.72266, 1.13.2022 15:27:24.629
857, 1.78985, 0.60654, 103.891, 0, -0.00195312, 0, -0.15625, 0.328125, -9.7168, 1.13.2022 15:27:24.637
858, 1.78985, 0.60654, 103.891, 0, -0.00195312, 0, -0.0546875, 0.302734, -9.75293, 1.13.2022 15:27:24.645
859, 1.78985, 0.60654, 103.891, -0.000976562, -0.000976562, -0.000976562, -0.0957031, 0.305664, -9.77539, 1.13.2022 15:27:24.653
860, 1.78985, 0.60654, 103.891, 0, -0.000976562, -0.000976562, -0.128906, 0.329102, -9.75586, 1.13.2022 15:27:24.661
861, 1.79416, 0.612047, 103.89, 0, -0.000976562, -0.000976562, -0.0957031, 0.286133, -9.75977, 1.13.2022 15:27:24.669
862, 1.79416, 0.612047, 103.89, -0.000976562, -0.000976562, 0, -0.137695, 0.30957, -9.73438, 1.13.2022 15:27:24.677
863, 1.79416, 0.612047, 103.89, -0.000976562, -0.000976562, -0.000976562, -0.0996094, 0.297852, -9.72363, 1.13.2022 15:27:24.685
864, 1.79416, 0.612047, 103.89, 0, -0.000976562, 0, -0.0566406, 0.313477, -9.71973, 1.13.2022 15:27:24.693
865, 1.79416, 0.612047, 103.89, 0, -0.00195312, 0.000976562, -0.133789, 0.310547, -9.76758, 1.13.2022 15:27:24.701
866, 1.79416, 0.612047, 103.89, 0.000976562, -0.000976562, 0, -0.0507812, 0.298828, -9.76953, 1.13.2022 15:27:24.709
867, 1.79416, 0.612047, 103.89, 0.000976562, -0.000976562, 0, -0.103516, 0.311523, -9.78711, 1.13.2022 15:27:24.717
868, 1.79416, 0.612047, 103.89, 0, -0.000976562, 0, -0.135742, 0.307617, -9.73438, 1.13.2022 15:27:24.725
869, 1.79416, 0.612047, 103.89, 0, -0.000976562, 0, -0.0644531, 0.28125, -9.75293, 1.13.2022 15:27:24.733
870, 1.78985, 0.60654, 103.891, 0, 0, -0.000976562, -0.135742, 0.310547, -9.74902, 1.13.2022 15:27:24.741
871, 1.78985, 0.60654, 103.891, 0, -0.000976562, -0.000976562, -0.107422, 0.295898, -9.76367, 1.13.2022 15:27:24.749
872, 1.78985, 0.60654, 103.891, -0.000976562, 0, -0.000976562, -0.0810547, 0.298828, -9.7666, 1.13.2022 15:27:24.757
873, 1.78985, 0.60654, 103.891, 0, -0.000976562, 0, -0.178711, 0.300781, -9.75586, 1.13.2022 15:27:24.765
874, 1.78985, 0.60654, 103.891, 0.000976562, -0.000976562, 0, -0.0800781, 0.282227, -9.70801, 1.13.2022 15:27:24.773
875, 1.78985, 0.60654, 103.891, 0, -0.000976562, -0.000976562, -0.132812, 0.268555, -9.72852, 1.13.2022 15:27:24.781
876, 1.78985, 0.60654, 103.891, 0, -0.000976562, -0.000976562, -0.128906, 0.297852, -9.74023, 1.13.2022 15:27:24.789
877, 1.78434, 0.61085, 103.891, 0.000976562, -0.000976562, -0.000976562, -0.0527344, 0.297852, -9.74805, 1.13.2022 15:27:24.797
878, 1.78434, 0.61085, 103.891, 0, -0.000976562, 0, -0.137695, 0.30957, -9.72949, 1.13.2022 15:27:24.805
879, 1.78434, 0.61085, 103.891, -0.000976562, -0.000976562, 0, -0.0742188, 0.295898, -9.74512, 1.13.2022 15:27:24.813
880, 1.78434, 0.61085, 103.891, 0.000976562, 0, 0, -0.0878906, 0.279297, -9.74805, 1.13.2022 15:27:24.821
881, 1.78434, 0.61085, 103.891, 0.000976562, -0.000976562, -0.000976562, -0.164062, 0.319336, -9.73828, 1.13.2022 15:27:24.829
882, 1.77884, 0.615161, 103.891, 0.000976562, -0.000976562, 0, -0.0615234, 0.290039, -9.72461, 1.13.2022 15:27:24.837
883, 1.77884, 0.615161, 103.891, 0.000976562, 0, 0, -0.132812, 0.290039, -9.71191, 1.13.2022 15:27:24.845
884, 1.77453, 0.609654, 103.891, 0.000976562, -0.000976562, 0, -0.109375, 0.326172, -9.72266, 1.13.2022 15:27:24.853
885, 1.77453, 0.609654, 103.891, 0.000976562, 0, 0.000976562, -0.0458984, 0.279297, -9.76562, 1.13.2022 15:27:24.861
886, 1.77436, 0.609592, 103.881, 0, -0.000976562, 0, -0.128906, 0.305664, -9.76074, 1.13.2022 15:27:24.869
887, 1.77436, 0.609592, 103.881, 0, 0, 0, -0.107422, 0.304688, -9.74023, 1.13.2022 15:27:24.877
888, 1.77436, 0.609592, 103.881, 0, -0.000976562, 0, -0.0976562, 0.279297, -9.75488, 1.13.2022 15:27:24.885
889, 1.77436, 0.609592, 103.881, -0.000976562, 0, 0, -0.15918, 0.321289, -9.72949, 1.13.2022 15:27:24.893
890, 1.77436, 0.609592, 103.881, 0, -0.000976562, 0, -0.0429688, 0.304688, -9.73438, 1.13.2022 15:27:24.901
891, 1.77436, 0.609592, 103.881, 0, 0, 0, -0.113281, 0.298828, -9.70215, 1.13.2022 15:27:24.909
892, 1.77436, 0.609592, 103.881, 0, 0, -0.000976562, -0.0898438, 0.287109, -9.69824, 1.13.2022 15:27:24.917
893, 1.77005, 0.604085, 103.881, 0, 0, 0, -0.0644531, 0.292969, -9.74316, 1.13.2022 15:27:24.925
894, 1.77005, 0.604085, 103.881, 0, -0.000976562, 0.000976562, -0.152344, 0.314453, -9.73438, 1.13.2022 15:27:24.933
895, 1.77005, 0.604085, 103.881, 0, 0, 0.000976562, -0.0917969, 0.306641, -9.70508, 1.13.2022 15:27:24.941
896, 1.77005, 0.604085, 103.881, 0, 0, 0, -0.0761719, 0.28125, -9.73828, 1.13.2022 15:27:24.949
897, 1.77005, 0.604085, 103.881, 0, -0.000976562, -0.000976562, -0.149414, 0.326172, -9.72949, 1.13.2022 15:27:24.957
898, 1.77005, 0.604085, 103.881, -0.000976562, 0, -0.000976562, -0.0419922, 0.275391, -9.7207, 1.13.2022 15:27:24.963
899, 1.77005, 0.604085, 103.881, -0.000976562, -0.000976562, -0.000976562, -0.117188, 0.303711, -9.76562, 1.13.2022 15:27:24.971
900, 1.77005, 0.604085, 103.881, -0.000976562, 0, 0, -0.101562, 0.318359, -9.71387, 1.13.2022 15:27:24.979
901, 1.77005, 0.604085, 103.881, 0, 0, -0.000976562, -0.0517578, 0.301758, -9.70801, 1.13.2022 15:27:24.987
902, 1.76574, 0.598578, 103.882, 0, -0.000976562, 0, -0.154297, 0.316406, -9.73145, 1.13.2022 15:27:24.995
903, 1.76574, 0.598578, 103.882, -0.000976562, -0.000976562, -0.000976562, -0.100586, 0.307617, -9.75391, 1.13.2022 15:27:25.003
904, 1.77124, 0.594267, 103.882, 0, -0.00195312, -0.00195312, -0.0888672, 0.305664, -9.77539, 1.13.2022 15:27:25.011
905, 1.77555, 0.599774, 103.881, -0.000976562, -0.000976562, -0.000976562, -0.138672, 0.332031, -9.76465, 1.13.2022 15:27:25.019
906, 1.77555, 0.599774, 103.881, -0.00195312, -0.000976562, 0, -0.03125, 0.298828, -9.76465, 1.13.2022 15:27:25.027
907, 1.77555, 0.599774, 103.881, -0.000976562, -0.000976562, -0.000976562, -0.140625, 0.28125, -9.7373, 1.13.2022 15:27:25.035
908, 1.77555, 0.599774, 103.881, -0.000976562, -0.000976562, -0.000976562, -0.117188, 0.305664, -9.77246, 1.13.2022 15:27:25.043
909, 1.77555, 0.599774, 103.881, -0.00195312, 0, 0, -0.0644531, 0.300781, -9.75293, 1.13.2022 15:27:25.051
910, 1.77555, 0.599774, 103.881, -0.00195312, -0.000976562, -0.000976562, -0.150391, 0.302734, -9.74121, 1.13.2022 15:27:25.059
911, 1.77572, 0.599837, 103.891, -0.00195312, -0.000976562, -0.000976562, -0.0566406, 0.288086, -9.74609, 1.13.2022 15:27:25.067
912, 1.78123, 0.595526, 103.891, -0.000976562, 0, -0.000976562, -0.0878906, 0.283203, -9.73145, 1.13.2022 15:27:25.075
913, 1.78123, 0.595526, 103.891, -0.000976562, 0, -0.000976562, -0.116211, 0.285156, -9.71484, 1.13.2022 15:27:25.083
914, 1.77692, 0.59002, 103.891, 0.000976562, -0.000976562, -0.000976562, -0.0517578, 0.275391, -9.71289, 1.13.2022 15:27:25.091
915, 1.77692, 0.59002, 103.891, -0.000976562, 0, -0.000976562, -0.131836, 0.291992, -9.77051, 1.13.2022 15:27:25.099
916, 1.77692, 0.59002, 103.891, 0.000976562, 0, -0.000976562, -0.0849609, 0.313477, -9.70898, 1.13.2022 15:27:25.107
917, 1.77692, 0.59002, 103.891, -0.000976562, 0, 0, -0.0498047, 0.292969, -9.72461, 1.13.2022 15:27:25.115
918, 1.77261, 0.584513, 103.891, -0.000976562, 0, -0.000976562, -0.147461, 0.301758, -9.71777, 1.13.2022 15:27:25.123
919, 1.77261, 0.584513, 103.891, -0.000976562, 0, 0, -0.0546875, 0.295898, -9.76953, 1.13.2022 15:27:25.131
920, 1.77261, 0.584513, 103.891, -0.000976562, -0.000976562, -0.000976562, -0.100586, 0.287109, -9.7666, 1.13.2022 15:27:25.139
921, 1.77261, 0.584513, 103.891, -0.00195312, 0, -0.000976562, -0.157227, 0.3125, -9.75098, 1.13.2022 15:27:25.147
922, 1.77261, 0.584513, 103.891, -0.000976562, -0.000976562, 0, -0.0566406, 0.283203, -9.74609, 1.13.2022 15:27:25.155
923, 1.7683, 0.579006, 103.892, -0.000976562, -0.000976562, -0.000976562, -0.130859, 0.321289, -9.7207, 1.13.2022 15:27:25.163
924, 1.7683, 0.579006, 103.892, -0.000976562, -0.00195312, 0, -0.0966797, 0.316406, -9.70703, 1.13.2022 15:27:25.171
925, 1.7683, 0.579006, 103.892, -0.00195312, 0, 0, -0.0732422, 0.290039, -9.73145, 1.13.2022 15:27:25.179
926, 1.7683, 0.579006, 103.892, -0.00195312, 0, 0, -0.134766, 0.303711, -9.70215, 1.13.2022 15:27:25.187
927, 1.7683, 0.579006, 103.892, 0.000976562, -0.000976562, 0, -0.0800781, 0.292969, -9.72461, 1.13.2022 15:27:25.195
928, 1.7683, 0.579006, 103.892, -0.00195312, -0.000976562, -0.000976562, -0.114258, 0.286133, -9.74023, 1.13.2022 15:27:25.203
929, 1.7683, 0.579006, 103.892, -0.00195312, -0.000976562, 0, -0.142578, 0.301758, -9.7041, 1.13.2022 15:27:25.211
930, 1.7683, 0.579006, 103.892, -0.000976562, -0.000976562, 0, -0.0371094, 0.308594, -9.68945, 1.13.2022 15:27:25.219
931, 1.7683, 0.579006, 103.892, -0.000976562, -0.000976562, 0.000976562, -0.132812, 0.311523, -9.72559, 1.13.2022 15:27:25.227
932, 1.7683, 0.579006, 103.892, -0.00195312, -0.000976562, 0, -0.0830078, 0.30957, -9.73535, 1.13.2022 15:27:25.235
933, 1.7683, 0.579006, 103.892, -0.00195312, -0.000976562, 0, -0.0849609, 0.267578, -9.69629, 1.13.2022 15:27:25.243
934, 1.7683, 0.579006, 103.892, -0.000976562, -0.000976562, 0.000976562, -0.149414, 0.331055, -9.71973, 1.13.2022 15:27:25.251
935, 1.77261, 0.584513, 103.891, -0.00195312, 0, 0, -0.0566406, 0.288086, -9.72266, 1.13.2022 15:27:25.259
936, 1.7683, 0.579006, 103.892, -0.000976562, -0.000976562, -0.000976562, -0.0830078, 0.295898, -9.74023, 1.13.2022 15:27:25.267
937, 1.7683, 0.579006, 103.892, 0, 0, -0.000976562, -0.109375, 0.296875, -9.71387, 1.13.2022 15:27:25.275
938, 1.7683, 0.579006, 103.892, 0, -0.000976562, 0, -0.0664062, 0.273438, -9.72949, 1.13.2022 15:27:25.283
939, 1.7683, 0.579006, 103.892, 0, 0, 0, -0.132812, 0.326172, -9.71777, 1.13.2022 15:27:25.291
940, 1.7683, 0.579006, 103.892, -0.000976562, 0, -0.000976562, -0.111328, 0.306641, -9.71582, 1.13.2022 15:27:25.299
941, 1.7683, 0.579006, 103.892, 0, 0, 0, -0.0800781, 0.314453, -9.72168, 1.13.2022 15:27:25.307
942, 1.76813, 0.578943, 103.882, 0.000976562, -0.000976562, 0.000976562, -0.142578, 0.314453, -9.74609, 1.13.2022 15:27:25.315
943, 1.76813, 0.578943, 103.882, 0.000976562, 0, 0, -0.0263672, 0.297852, -9.73926, 1.13.2022 15:27:25.323
944, 1.76813, 0.578943, 103.882, -0.000976562, -0.000976562, 0, -0.114258, 0.266602, -9.72656, 1.13.2022 15:27:25.331
945, 1.77363, 0.574632, 103.882, 0, -0.000976562, 0, -0.107422, 0.331055, -9.74121, 1.13.2022 15:27:25.339
946, 1.77363, 0.574632, 103.882, 0, 0, 0, -0.0810547, 0.266602, -9.72754, 1.13.2022 15:27:25.347
947, 1.77363, 0.574632, 103.882, 0, -0.000976562, 0, -0.171875, 0.325195, -9.76465, 1.13.2022 15:27:25.355
948, 1.77363, 0.574632, 103.882, 0, 0, -0.000976562, -0.125977, 0.297852, -9.7207, 1.13.2022 15:27:25.363
949, 1.76813, 0.578943, 103.882, -0.000976562, -0.000976562, -0.000976562, -0.0664062, 0.285156, -9.72266, 1.13.2022 15:27:25.371
950, 1.76813, 0.578943, 103.882, -0.00195312, -0.000976562, 0, -0.140625, 0.302734, -9.72559, 1.13.2022 15:27:25.379
951, 1.76813, 0.578943, 103.882, -0.000976562, -0.000976562, 0, -0.0761719, 0.285156, -9.72461, 1.13.2022 15:27:25.387
952, 1.76813, 0.578943, 103.882, 0, -0.000976562, -0.000976562, -0.121094, 0.307617, -9.73926, 1.13.2022 15:27:25.395
953, 1.77244, 0.58445, 103.882, 0, -0.000976562, 0, -0.12207, 0.305664, -9.76074, 1.13.2022 15:27:25.403
954, 1.77244, 0.58445, 103.882, 0, 0, 0, -0.0566406, 0.276367, -9.72949, 1.13.2022 15:27:25.411
955, 1.77244, 0.58445, 103.882, 0, -0.000976562, 0, -0.1875, 0.290039, -9.71289, 1.13.2022 15:27:25.419
956, 1.77244, 0.58445, 103.882, 0, 0, -0.000976562, -0.0849609, 0.311523, -9.71191, 1.13.2022 15:27:25.427
957, 1.77244, 0.58445, 103.882, -0.000976562, 0, -0.000976562, -0.0830078, 0.30957, -9.74707, 1.13.2022 15:27:25.435
958, 1.76693, 0.588761, 103.882, -0.00195312, -0.000976562, -0.000976562, -0.15918, 0.30957, -9.71777, 1.13.2022 15:27:25.443
959, 1.76693, 0.588761, 103.882, 0, -0.000976562, 0, -0.0566406, 0.291992, -9.71777, 1.13.2022 15:27:25.451
960, 1.76693, 0.588761, 103.882, 0, 0, 0, -0.125977, 0.286133, -9.73047, 1.13.2022 15:27:25.459
961, 1.76693, 0.588761, 103.882, -0.000976562, -0.000976562, 0, -0.0996094, 0.287109, -9.69824, 1.13.2022 15:27:25.467
962, 1.77124, 0.594267, 103.882, 0, -0.000976562, -0.000976562, -0.0449219, 0.288086, -9.74414, 1.13.2022 15:27:25.475
963, 1.77124, 0.594267, 103.882, 0, -0.000976562, -0.000976562, -0.146484, 0.303711, -9.7041, 1.13.2022 15:27:25.483
964, 1.77124, 0.594267, 103.882, -0.000976562, -0.00195312, -0.000976562, -0.0878906, 0.300781, -9.75684, 1.13.2022 15:27:25.491
965, 1.77124, 0.594267, 103.882, -0.000976562, -0.000976562, 0, -0.102539, 0.28418, -9.74805, 1.13.2022 15:27:25.499
966, 1.76574, 0.598578, 103.882, -0.000976562, -0.000976562, -0.000976562, -0.128906, 0.302734, -9.75586, 1.13.2022 15:27:25.507
967, 1.76574, 0.598578, 103.882, -0.000976562, -0.000976562, 0.000976562, -0.0478516, 0.274414, -9.74609, 1.13.2022 15:27:25.515
968, 1.76574, 0.598578, 103.882, -0.000976562, -0.000976562, -0.000976562, -0.114258, 0.302734, -9.74023, 1.13.2022 15:27:25.523
969, 1.76574, 0.598578, 103.882, 0, -0.000976562, -0.000976562, -0.104492, 0.316406, -9.70898, 1.13.2022 15:27:25.531
970, 1.76574, 0.598578, 103.882, 0, -0.000976562, 0, -0.0898438, 0.280273, -9.71973, 1.13.2022 15:27:25.539
971, 1.76574, 0.598578, 103.882, 0, -0.000976562, -0.000976562, -0.140625, 0.319336, -9.72754, 1.13.2022 15:27:25.547
972, 1.76574, 0.598578, 103.882, 0, -0.000976562, -0.000976562, -0.0683594, 0.301758, -9.71484, 1.13.2022 15:27:25.555
973, 1.76591, 0.598641, 103.891, -0.000976562, 0, -0.000976562, -0.0878906, 0.303711, -9.76172, 1.13.2022 15:27:25.563
974, 1.7616, 0.593134, 103.892, -0.000976562, -0.000976562, -0.000976562, -0.130859, 0.292969, -9.74707, 1.13.2022 15:27:25.571
975, 1.7616, 0.593134, 103.892, 0, -0.00195312, -0.000976562, -0.0332031, 0.299805, -9.72461, 1.13.2022 15:27:25.579
976, 1.7616, 0.593134, 103.892, -0.000976562, -0.00195312, 0, -0.106445, 0.307617, -9.73242, 1.13.2022 15:27:25.587
977, 1.7616, 0.593134, 103.892, 0, 0, 0, -0.106445, 0.316406, -9.70703, 1.13.2022 15:27:25.595
978, 1.7616, 0.593134, 103.892, 0, -0.000976562, 0, -0.0693359, 0.286133, -9.75781, 1.13.2022 15:27:25.603
979, 1.7616, 0.593134, 103.892, -0.000976562, -0.000976562, 0.000976562, -0.145508, 0.345703, -9.75, 1.13.2022 15:27:25.611
980, 1.76143, 0.593072, 103.882, 0, -0.000976562, 0, -0.0478516, 0.314453, -9.74316, 1.13.2022 15:27:25.619
981, 1.76693, 0.588761, 103.882, 0, -0.000976562, -0.000976562, -0.104492, 0.300781, -9.74512, 1.13.2022 15:27:25.627
982, 1.7671, 0.588823, 103.892, 0, 0, -0.000976562, -0.123047, 0.294922, -9.70703, 1.13.2022 15:27:25.635
983, 1.7671, 0.588823, 103.892, 0, 0, -0.000976562, -0.0400391, 0.322266, -9.74805, 1.13.2022 15:27:25.643
984, 1.7671, 0.588823, 103.892, 0, -0.000976562, 0, -0.162109, 0.304688, -9.72949, 1.13.2022 15:27:25.651
985, 1.7671, 0.588823, 103.892, 0, -0.000976562, 0, -0.115234, 0.325195, -9.77441, 1.13.2022 15:27:25.659
986, 1.77261, 0.584513, 103.891, 0.000976562, -0.000976562, 0, -0.0830078, 0.254883, -9.7373, 1.13.2022 15:27:25.667
987, 1.77244, 0.58445, 103.882, 0.000976562, 0, 0, -0.162109, 0.300781, -9.74902, 1.13.2022 15:27:25.675
988, 1.77244, 0.58445, 103.882, 0, 0, 0, -0.0664062, 0.267578, -9.75586, 1.13.2022 15:27:25.683
989, 1.77244, 0.58445, 103.882, 0, 0, -0.000976562, -0.110352, 0.265625, -9.77637, 1.13.2022 15:27:25.691
990, 1.7671, 0.588823, 103.892, 0, 0, -0.000976562, -0.106445, 0.326172, -9.72559, 1.13.2022 15:27:25.699
991, 1.7671, 0.588823, 103.892, 0, 0, -0.000976562, -0.0615234, 0.297852, -9.74121, 1.13.2022 15:27:25.707
992, 1.7671, 0.588823, 103.892, 0, 0, 0, -0.12793, 0.338867, -9.73438, 1.13.2022 15:27:25.715
993, 1.77261, 0.584513, 103.891, -0.000976562, -0.000976562, 0, -0.0830078, 0.345703, -9.74414, 1.13.2022 15:27:25.723
994, 1.77261, 0.584513, 103.891, 0, -0.000976562, 0, -0.0859375, 0.283203, -9.7334, 1.13.2022 15:27:25.731
995, 1.77261, 0.584513, 103.891, -0.000976562, -0.000976562, -0.000976562, -0.154297, 0.316406, -9.70605, 1.13.2022 15:27:25.739
996, 1.77261, 0.584513, 103.891, 0, -0.000976562, 0, -0.0498047, 0.320312, -9.76172, 1.13.2022 15:27:25.747
997, 1.77261, 0.584513, 103.891, -0.000976562, 0, 0, -0.09375, 0.296875, -9.77344, 1.13.2022 15:27:25.755
998, 1.77261, 0.584513, 103.891, 0, -0.000976562, 0, -0.125977, 0.316406, -9.7207, 1.13.2022 15:27:25.763
999, 1.77261, 0.584513, 103.891, 0, -0.000976562, -0.000976562, -0.0380859, 0.289062, -9.76758, 1.13.2022 15:27:25.771
1000, 1.77261, 0.584513, 103.891, 0, -0.000976562, -0.000976562, -0.134766, 0.314453, -9.71582, 1.13.2022 15:27:25.779
1001, 1.77812, 0.580202, 103.891, 0, 0, 0, -0.0810547, 0.291016, -9.74512, 1.13.2022 15:27:25.787
1002, 1.77812, 0.580202, 103.891, 0, -0.000976562, 0, -0.0908203, 0.276367, -9.75293, 1.13.2022 15:27:25.795
1003, 1.77812, 0.580202, 103.891, 0, -0.000976562, 0, -0.119141, 0.310547, -9.75391, 1.13.2022 15:27:25.803
1004, 1.77794, 0.580139, 103.882, 0, -0.000976562, 0, -0.0332031, 0.266602, -9.74902, 1.13.2022 15:27:25.811
1005, 1.77794, 0.580139, 103.882, 0, -0.000976562, -0.000976562, -0.116211, 0.297852, -9.7373, 1.13.2022 15:27:25.819
1006, 1.77794, 0.580139, 103.882, 0, 0, 0, -0.121094, 0.317383, -9.73926, 1.13.2022 15:27:25.827
1007, 1.77363, 0.574632, 103.882, 0, -0.000976562, -0.000976562, -0.0527344, 0.28125, -9.74414, 1.13.2022 15:27:25.835
1008, 1.77381, 0.574696, 103.892, 0, -0.00195312, -0.000976562, -0.166016, 0.325195, -9.69336, 1.13.2022 15:27:25.843
1009, 1.77381, 0.574696, 103.892, -0.000976562, -0.00195312, 0, -0.0732422, 0.3125, -9.73828, 1.13.2022 15:27:25.851
1010, 1.77381, 0.574696, 103.892, -0.000976562, 0, 0, -0.0878906, 0.283203, -9.7334, 1.13.2022 15:27:25.859
1011, 1.77363, 0.574632, 103.882, 0, 0, 0, -0.125977, 0.285156, -9.71875, 1.13.2022 15:27:25.867
1012, 1.77363, 0.574632, 103.882, -0.000976562, -0.000976562, -0.000976562, -0.0517578, 0.288086, -9.73145, 1.13.2022 15:27:25.875
1013, 1.77381, 0.574696, 103.892, 0, 0, -0.000976562, -0.136719, 0.308594, -9.68457, 1.13.2022 15:27:25.883
1014, 1.77381, 0.574696, 103.892, -0.000976562, -0.000976562, -0.000976562, -0.129883, 0.320312, -9.7041, 1.13.2022 15:27:25.891
1015, 1.77381, 0.574696, 103.892, 0.000976562, -0.000976562, 0, -0.0449219, 0.279297, -9.74902, 1.13.2022 15:27:25.899
1016, 1.77381, 0.574696, 103.892, -0.000976562, 0, 0, -0.142578, 0.324219, -9.74121, 1.13.2022 15:27:25.907
1017, 1.77363, 0.574632, 103.882, 0, 0, 0.000976562, -0.0917969, 0.294922, -9.71191, 1.13.2022 15:27:25.915
1018, 1.77363, 0.574632, 103.882, -0.000976562, 0, 0, -0.0927734, 0.276367, -9.75781, 1.13.2022 15:27:25.923
1019, 1.77363, 0.574632, 103.882, -0.00195312, 0, 0, -0.116211, 0.301758, -9.7041, 1.13.2022 15:27:25.929
1020, 1.77363, 0.574632, 103.882, -0.000976562, 0, 0, -0.0517578, 0.285156, -9.72949, 1.13.2022 15:27:25.937
1021, 1.77363, 0.574632, 103.882, -0.000976562, 0, 0, -0.137695, 0.288086, -9.74219, 1.13.2022 15:27:25.945
1022, 1.77363, 0.574632, 103.882, 0, -0.000976562, -0.000976562, -0.121094, 0.299805, -9.72852, 1.13.2022 15:27:25.953
1023, 1.77363, 0.574632, 103.882, 0, -0.000976562, -0.000976562, -0.0673828, 0.293945, -9.78613, 1.13.2022 15:27:25.961
1024, 1.77363, 0.574632, 103.882, -0.000976562, -0.000976562, 0, -0.133789, 0.292969, -9.74902, 1.13.2022 15:27:25.969
1025, 1.77363, 0.574632, 103.882, 0, -0.000976562, -0.000976562, -0.0664062, 0.307617, -9.75, 1.13.2022 15:27:25.977
1026, 1.77363, 0.574632, 103.882, 0, -0.000976562, 0, -0.0712891, 0.319336, -9.72852, 1.13.2022 15:27:25.985
1027, 1.77363, 0.574632, 103.882, 0, 0, 0, -0.123047, 0.303711, -9.70703, 1.13.2022 15:27:25.993
1028, 1.77363, 0.574632, 103.882, -0.000976562, -0.000976562, 0, -0.0429688, 0.288086, -9.74609, 1.13.2022 15:27:26.001
1029, 1.77363, 0.574632, 103.882, 0, 0, 0, -0.155273, 0.289062, -9.75391, 1.13.2022 15:27:26.009
1030, 1.77363, 0.574632, 103.882, 0, -0.000976562, 0, -0.0917969, 0.321289, -9.71094, 1.13.2022 15:27:26.017
1031, 1.76932, 0.569125, 103.882, 0, 0, -0.000976562, -0.078125, 0.275391, -9.72461, 1.13.2022 15:27:26.025
1032, 1.76932, 0.569125, 103.882, 0, 0, -0.000976562, -0.170898, 0.324219, -9.72656, 1.13.2022 15:27:26.033
1033, 1.76932, 0.569125, 103.882, -0.000976562, 0, -0.000976562, -0.0683594, 0.304688, -9.7334, 1.13.2022 15:27:26.041
1034, 1.76932, 0.569125, 103.882, 0, -0.000976562, -0.000976562, -0.0898438, 0.313477, -9.69727, 1.13.2022 15:27:26.049
1035, 1.76932, 0.569125, 103.882, 0, -0.000976562, 0, -0.109375, 0.292969, -9.72363, 1.13.2022 15:27:26.057
1036, 1.76932, 0.569125, 103.882, 0.000976562, -0.000976562, 0, -0.0351562, 0.299805, -9.73438, 1.13.2022 15:27:26.065
1037, 1.76932, 0.569125, 103.882, 0, -0.000976562, 0, -0.135742, 0.282227, -9.76562, 1.13.2022 15:27:26.073
1038, 1.76932, 0.569125, 103.882, 0, -0.000976562, -0.000976562, -0.104492, 0.290039, -9.70508, 1.13.2022 15:27:26.081
1039, 1.76932, 0.569125, 103.882, -0.000976562, -0.000976562, -0.000976562, -0.0927734, 0.291016, -9.73828, 1.13.2022 15:27:26.089
1040, 1.76932, 0.569125, 103.882, -0.000976562, -0.000976562, -0.000976562, -0.147461, 0.306641, -9.7207, 1.13.2022 15:27:26.097
1041, 1.77381, 0.574696, 103.892, -0.000976562, -0.000976562, -0.000976562, -0.0751953, 0.306641, -9.70215, 1.13.2022 15:27:26.105
1042, 1.7683, 0.579006, 103.892, -0.000976562, 0, 0, -0.102539, 0.291016, -9.75195, 1.13.2022 15:27:26.113
1043, 1.7683, 0.579006, 103.892, 0, -0.000976562, -0.000976562, -0.139648, 0.311523, -9.71582, 1.13.2022 15:27:26.121
1044, 1.7683, 0.579006, 103.892, 0, 0, 0, -0.078125, 0.291992, -9.70801, 1.13.2022 15:27:26.129
1045, 1.7683, 0.579006, 103.892, 0, 0, 0, -0.162109, 0.316406, -9.72949, 1.13.2022 15:27:26.137
1046, 1.7683, 0.579006, 103.892, 0, -0.000976562, 0, -0.101562, 0.30957, -9.72852, 1.13.2022 15:27:26.145
1047, 1.7683, 0.579006, 103.892, 0, -0.000976562, 0, -0.0898438, 0.304688, -9.72852, 1.13.2022 15:27:26.153
1048, 1.76813, 0.578943, 103.882, -0.000976562, -0.000976562, 0, -0.114258, 0.30957, -9.74219, 1.13.2022 15:27:26.161
1049, 1.76813, 0.578943, 103.882, 0, -0.000976562, 0, -0.0683594, 0.285156, -9.71289, 1.13.2022 15:27:26.169
1050, 1.77244, 0.58445, 103.882, 0.000976562, -0.000976562, 0, -0.100586, 0.289062, -9.76855, 1.13.2022 15:27:26.177
1051, 1.77244, 0.58445, 103.882, 0, -0.000976562, 0, -0.104492, 0.296875, -9.71875, 1.13.2022 15:27:26.185
1052, 1.77244, 0.58445, 103.882, 0, -0.000976562, 0, -0.0498047, 0.269531, -9.73926, 1.13.2022 15:27:26.193
1053, 1.76693, 0.588761, 103.882, -0.000976562, -0.000976562, 0, -0.152344, 0.316406, -9.71777, 1.13.2022 15:27:26.201
1054, 1.76693, 0.588761, 103.882, 0, 0, 0, -0.0830078, 0.308594, -9.70508, 1.13.2022 15:27:26.209
1055, 1.76693, 0.588761, 103.882, 0, 0, 0, -0.0976562, 0.274414, -9.74316, 1.13.2022 15:27:26.217
1056, 1.76693, 0.588761, 103.882, 0, -0.000976562, 0, -0.132812, 0.319336, -9.72754, 1.13.2022 15:27:26.225
1057, 1.76693, 0.588761, 103.882, -0.000976562, 0, 0, -0.0625, 0.293945, -9.78809, 1.13.2022 15:27:26.233
1058, 1.76693, 0.588761, 103.882, -0.000976562, -0.000976562, 0, -0.0996094, 0.306641, -9.72559, 1.13.2022 15:27:26.241
1059, 1.76693, 0.588761, 103.882, 0, -0.00195312, 0.000976562, -0.112305, 0.324219, -9.75098, 1.13.2022 15:27:26.249
1060, 1.76693, 0.588761, 103.882, 0, -0.000976562, 0, -0.0634766, 0.27832, -9.72266, 1.13.2022 15:27:26.257
1061, 1.76693, 0.588761, 103.882, 0, -0.000976562, 0, -0.140625, 0.3125, -9.73242, 1.13.2022 15:27:26.265
1062, 1.76693, 0.588761, 103.882, -0.000976562, -0.000976562, 0, -0.0878906, 0.30957, -9.7373, 1.13.2022 15:27:26.273
1063, 1.76693, 0.588761, 103.882, -0.000976562, -0.000976562, 0, -0.0878906, 0.302734, -9.73535, 1.13.2022 15:27:26.281
1064, 1.76693, 0.588761, 103.882, 0, -0.00195312, 0, -0.15625, 0.326172, -9.71973, 1.13.2022 15:27:26.289
