Seq, Rot x, Rot y, Rot z, Vel x, Vel y, Vel z, Acc x, Acc y, Acc z, Time(m.d.y h:m:s.ms)
0, 1.63894, 0.311897, 98.2811, -0.000976562, -0.00195312, -0.000976562, -0.0664062, 0.273438, -9.73926, 1.13.2022 15:16:45.393
1, 1.63894, 0.311897, 98.2811, 0, -0.000976562, -0.000976562, -0.0546875, 0.28125, -9.74414, 1.13.2022 15:16:45.400
2, 1.63871, 0.311976, 98.2804, 0, 0, -0.000976562, -0.0361328, 0.277344, -9.77734, 1.13.2022 15:16:45.409
3, 1.63871, 0.311976, 98.2804, 0, -0.000976562, -0.000976562, -0.0849609, 0.316406, -9.7207, 1.13.2022 15:16:45.417
4, 1.63871, 0.311976, 98.2804, 0, 0, -0.000976562, -0.0205078, 0.296875, -9.72754, 1.13.2022 15:16:45.422
5, 1.63871, 0.311976, 98.2804, 0.000976562, 0, 0, -0.0332031, 0.254883, -9.73047, 1.13.2022 15:16:45.431
6, 1.63871, 0.311976, 98.2804, 0, -0.00195312, -0.000976562, -0.111328, 0.264648, -9.73145, 1.13.2022 15:16:45.438
7, 1.63871, 0.311976, 98.2804, 0, -0.000976562, -0.000976562, 0.00488281, 0.21582, -9.73242, 1.13.2022 15:16:45.447
8, 1.63871, 0.311976, 98.2804, 0, -0.000976562, -0.000976562, -0.0996094, 0.245117, -9.72949, 1.13.2022 15:16:45.455
9, 1.62884, 0.311262, 98.2806, -0.000976562, 0, -0.000976562, -0.0986328, 0.262695, -9.68945, 1.13.2022 15:16:45.463
10, 1.62884, 0.311262, 98.2806, -0.000976562, -0.000976562, -0.000976562, -0.0380859, 0.248047, -9.74219, 1.13.2022 15:16:45.471
11, 1.62884, 0.311262, 98.2806, -0.000976562, 0, -0.000976562, -0.125, 0.282227, -9.78516, 1.13.2022 15:16:45.478
12, 1.62884, 0.311262, 98.2806, -0.000976562, -0.000976562, 0, -0.0371094, 0.283203, -9.80566, 1.13.2022 15:16:45.486
13, 1.62884, 0.311262, 98.2806, -0.000976562, -0.000976562, 0, -0.0458984, 0.273438, -9.79102, 1.13.2022 15:16:45.494
14, 1.62884, 0.311262, 98.2806, 0, -0.000976562, -0.000976562, -0.0878906, 0.299805, -9.71191, 1.13.2022 15:16:45.502
15, 1.62356, 0.315837, 98.2806, -0.000976562, 0, 0, -0.0117188, 0.256836, -9.75, 1.13.2022 15:16:45.510
16, 1.62356, 0.315837, 98.2806, 0, -0.000976562, -0.000976562, -0.0947266, 0.286133, -9.74023, 1.13.2022 15:16:45.518
17, 1.62356, 0.315837, 98.2806, 0.000976562, 0, 0, -0.0644531, 0.289062, -9.77441, 1.13.2022 15:16:45.526
18, 1.62356, 0.315837, 98.2806, 0, -0.000976562, 0, -0.0205078, 0.282227, -9.70605, 1.13.2022 15:16:45.534
19, 1.62356, 0.315837, 98.2806, -0.000976562, 0, -0.000976562, -0.0878906, 0.307617, -9.73535, 1.13.2022 15:16:45.542
20, 1.62356, 0.315837, 98.2806, 0, 0, -0.000976562, -0.0166016, 0.254883, -9.74316, 1.13.2022 15:16:45.550
21, 1.61827, 0.320412, 98.2806, 0, 0, 0, -0.0449219, 0.253906, -9.72852, 1.13.2022 15:16:45.558
22, 1.61827, 0.320412, 98.2806, 0, 0, 0, -0.0664062, 0.268555, -9.71777, 1.13.2022 15:16:45.566
23, 1.61827, 0.320412, 98.2806, -0.000976562, 0, -0.000976562, -0.0107422, 0.253906, -9.70996, 1.13.2022 15:16:45.574
24, 1.61827, 0.320412, 98.2806, -0.000976562, -0.000976562, 0, -0.109375, 0.285156, -9.71191, 1.13.2022 15:16:45.582
25, 1.61827, 0.320412, 98.2806, -0.000976562, 0, -0.000976562, -0.0410156, 0.289062, -9.75781, 1.13.2022 15:16:45.590
26, 1.61827, 0.320412, 98.2806, 0, 0.000976562, 0, -0.0332031, 0.237305, -9.72168, 1.13.2022 15:16:45.598
27, 1.61827, 0.320412, 98.2806, -0.00195312, 0, 0, -0.0898438, 0.275391, -9.70605, 1.13.2022 15:16:45.606
28, 1.61827, 0.320412, 98.2806, -0.000976562, 0, -0.000976562, -0.00683594, 0.276367, -9.74707, 1.13.2022 15:16:45.614
29, 1.61827, 0.320412, 98.2806, 0, -0.000976562, 0, -0.0380859, 0.291016, -9.74414, 1.13.2022 15:16:45.622
30, 1.61827, 0.320412, 98.2806, 0.000976562, -0.000976562, 0, -0.078125, 0.288086, -9.71973, 1.13.2022 15:16:45.630
31, 1.61851, 0.320333, 98.2812, 0.000976562, -0.000976562, 0.000976562, -0.0166016, 0.290039, -9.72559, 1.13.2022 15:16:45.638
32, 1.61851, 0.320333, 98.2812, 0, 0, 0, -0.0976562, 0.283203, -9.72168, 1.13.2022 15:16:45.646
33, 1.61393, 0.315044, 98.2814, 0.000976562, 0, -0.000976562, -0.0595703, 0.271484, -9.72949, 1.13.2022 15:16:45.654
34, 1.61393, 0.315044, 98.2814, 0.000976562, 0, -0.000976562, -0.0195312, 0.239258, -9.77148, 1.13.2022 15:16:45.662
35, 1.61393, 0.315044, 98.2814, 0, 0, -0.000976562, -0.112305, 0.279297, -9.75, 1.13.2022 15:16:45.670
36, 1.61393, 0.315044, 98.2814, 0, 0, -0.000976562, -0.0322266, 0.253906, -9.71191, 1.13.2022 15:16:45.678
37, 1.61369, 0.315123, 98.2808, 0, -0.000976562, -0.00195312, -0.0458984, 0.248047, -9.75879, 1.13.2022 15:16:45.687
38, 1.61369, 0.315123, 98.2808, 0, -0.00195312, 0, -0.0546875, 0.292969, -9.73438, 1.13.2022 15:16:45.694
39, 1.61369, 0.315123, 98.2808, -0.00195312, 0, 0, 0.0078125, 0.271484, -9.74023, 1.13.2022 15:16:45.702
40, 1.61393, 0.315044, 98.2814, -0.000976562, -0.000976562, 0, -0.0664062, 0.294922, -9.7334, 1.13.2022 15:16:45.710
41, 1.61393, 0.315044, 98.2814, 0, -0.000976562, 0, -0.0380859, 0.305664, -9.75488, 1.13.2022 15:16:45.718
42, 1.61393, 0.315044, 98.2814, 0, 0, -0.000976562, -0.03125, 0.269531, -9.75586, 1.13.2022 15:16:45.726
43, 1.61393, 0.315044, 98.2814, 0, 0, -0.00195312, -0.100586, 0.31543, -9.75586, 1.13.2022 15:16:45.734
44, 1.61898, 0.310548, 98.2808, 0, 0.000976562, 0, -0.0166016, 0.285156, -9.7207, 1.13.2022 15:16:45.742
45, 1.61464, 0.30518, 98.2816, 0.000976562, 0.000976562, 0, -0.0791016, 0.289062, -9.76172, 1.13.2022 15:16:45.750
46, 1.61464, 0.30518, 98.2816, 0, 0, 0, -0.0898438, 0.298828, -9.68359, 1.13.2022 15:16:45.758
47, 1.61464, 0.30518, 98.2816, 0, 0, -0.000976562, -0.0332031, 0.253906, -9.72168, 1.13.2022 15:16:45.766
48, 1.61464, 0.30518, 98.2816, 0, 0, 0, -0.107422, 0.283203, -9.73828, 1.13.2022 15:16:45.774
49, 1.61464, 0.30518, 98.2816, 0, 0, 0, -0.0615234, 0.280273, -9.72754, 1.13.2022 15:16:45.783
50, 1.61922, 0.310469, 98.2814, 0, 0, -0.000976562, -0.0595703, 0.271484, -9.74414, 1.13.2022 15:16:45.790
51, 1.61922, 0.310469, 98.2814, 0, 0, -0.000976562, -0.123047, 0.287109, -9.70898, 1.13.2022 15:16:45.798
52, 1.61922, 0.310469, 98.2814, 0, -0.000976562, 0, -0.00878906, 0.249023, -9.70996, 1.13.2022 15:16:45.806
53, 1.61922, 0.310469, 98.2814, 0, 0, 0, -0.0908203, 0.282227, -9.76465, 1.13.2022 15:16:45.814
54, 1.61922, 0.310469, 98.2814, 0, 0.000976562, 0, -0.0683594, 0.296875, -9.7168, 1.13.2022 15:16:45.822
55, 1.62451, 0.305894, 98.2814, -0.000976562, 0, -0.000976562, -0.0117188, 0.300781, -9.74902, 1.13.2022 15:16:45.830
56, 1.62908, 0.311183, 98.2812, 0, 0, -0.000976562, -0.108398, 0.301758, -9.70703, 1.13.2022 15:16:45.838
57, 1.62908, 0.311183, 98.2812, 0.000976562, -0.000976562, 0, -0.0263672, 0.286133, -9.74902, 1.13.2022 15:16:45.846
58, 1.62908, 0.311183, 98.2812, -0.000976562, -0.000976562, 0, -0.0332031, 0.300781, -9.76465, 1.13.2022 15:16:45.854
59, 1.63366, 0.316472, 98.2811, 0, -0.000976562, 0, -0.0693359, 0.269531, -9.76562, 1.13.2022 15:16:45.862
60, 1.63366, 0.316472, 98.2811, 0.000976562, -0.000976562, 0, 0.0166016, 0.260742, -9.77148, 1.13.2022 15:16:45.870
61, 1.63366, 0.316472, 98.2811, 0, 0, 0, -0.0546875, 0.261719, -9.72559, 1.13.2022 15:16:45.878
62, 1.63366, 0.316472, 98.2811, 0, 0.000976562, -0.000976562, -0.0253906, 0.27832, -9.7207, 1.13.2022 15:16:45.887
63, 1.63366, 0.316472, 98.2811, 0, 0, 0, -0.0400391, 0.259766, -9.74219, 1.13.2022 15:16:45.894
64, 1.63366, 0.316472, 98.2811, 0, -0.000976562, 0, -0.0712891, 0.274414, -9.76465, 1.13.2022 15:16:45.902
65, 1.63366, 0.316472, 98.2811, 0.000976562, -0.000976562, 0, -0.0117188, 0.267578, -9.76367, 1.13.2022 15:16:45.910
66, 1.63366, 0.316472, 98.2811, 0, -0.000976562, 0, -0.0478516, 0.256836, -9.7373, 1.13.2022 15:16:45.918
67, 1.63366, 0.316472, 98.2811, -0.000976562, 0, 0, -0.0791016, 0.307617, -9.75488, 1.13.2022 15:16:45.927
68, 1.63894, 0.311897, 98.2811, 0, 0, 0, -0.00195312, 0.290039, -9.73047, 1.13.2022 15:16:45.934
69, 1.63894, 0.311897, 98.2811, -0.000976562, 0, -0.000976562, -0.121094, 0.3125, -9.75098, 1.13.2022 15:16:45.942
70, 1.63894, 0.311897, 98.2811, -0.000976562, -0.000976562, -0.000976562, -0.0546875, 0.297852, -9.74609, 1.13.2022 15:16:45.950
71, 1.63894, 0.311897, 98.2811, -0.000976562, -0.000976562, 0, -0.0361328, 0.28418, -9.75098, 1.13.2022 15:16:45.958
72, 1.63894, 0.311897, 98.2811, -0.000976562, -0.000976562, -0.000976562, -0.0947266, 0.297852, -9.73535, 1.13.2022 15:16:45.966
73, 1.63894, 0.311897, 98.2811, 0.000976562, -0.000976562, 0, -0.0283203, 0.264648, -9.74023, 1.13.2022 15:16:45.974
74, 1.63894, 0.311897, 98.2811, 0, 0, -0.000976562, -0.0488281, 0.262695, -9.69238, 1.13.2022 15:16:45.982
75, 1.64423, 0.307322, 98.2811, 0, -0.000976562, -0.000976562, -0.0644531, 0.294922, -9.73633, 1.13.2022 15:16:45.990
76, 1.64423, 0.307322, 98.2811, 0.000976562, -0.000976562, 0, -0.0517578, 0.265625, -9.7207, 1.13.2022 15:16:45.998
77, 1.64423, 0.307322, 98.2811, 0, -0.000976562, 0, -0.0712891, 0.286133, -9.73633, 1.13.2022 15:16:46.006
78, 1.64423, 0.307322, 98.2811, 0, 0, 0, -0.0566406, 0.271484, -9.74414, 1.13.2022 15:16:46.014
79, 1.64423, 0.307322, 98.2811, -0.000976562, -0.000976562, 0.000976562, -0.0185547, 0.250977, -9.70703, 1.13.2022 15:16:46.022
80, 1.64423, 0.307322, 98.2811, 0, -0.000976562, 0, -0.0810547, 0.285156, -9.72949, 1.13.2022 15:16:46.030
81, 1.64423, 0.307322, 98.2811, -0.000976562, -0.000976562, -0.000976562, -0.0214844, 0.270508, -9.72559, 1.13.2022 15:16:46.038
82, 1.64423, 0.307322, 98.2811, 0, -0.000976562, -0.000976562, -0.0498047, 0.279297, -9.75098, 1.13.2022 15:16:46.046
83, 1.64423, 0.307322, 98.2811, -0.000976562, 0, -0.000976562, -0.0830078, 0.302734, -9.73145, 1.13.2022 15:16:46.054
84, 1.64423, 0.307322, 98.2811, -0.000976562, -0.000976562, 0, 0.00976562, 0.262695, -9.75684, 1.13.2022 15:16:46.062
85, 1.64423, 0.307322, 98.2811, 0, 0, 0, -0.0830078, 0.294922, -9.72363, 1.13.2022 15:16:46.070
86, 1.64423, 0.307322, 98.2811, 0, -0.000976562, -0.000976562, -0.0546875, 0.258789, -9.73047, 1.13.2022 15:16:46.078
87, 1.64423, 0.307322, 98.2811, 0, -0.000976562, -0.000976562, -0.0332031, 0.254883, -9.75, 1.13.2022 15:16:46.086
88, 1.64423, 0.307322, 98.2811, 0, -0.000976562, -0.000976562, -0.0830078, 0.285156, -9.73145, 1.13.2022 15:16:46.094
89, 1.64423, 0.307322, 98.2811, 0, -0.000976562, 0, 0.0078125, 0.268555, -9.72363, 1.13.2022 15:16:46.102
90, 1.64423, 0.307322, 98.2811, 0, -0.000976562, 0, -0.0878906, 0.273438, -9.72461, 1.13.2022 15:16:46.110
91, 1.64423, 0.307322, 98.2811, 0, 0, -0.000976562, -0.0712891, 0.266602, -9.7373, 1.13.2022 15:16:46.118
92, 1.64423, 0.307322, 98.2811, 0, -0.000976562, 0, 0.00292969, 0.220703, -9.71094, 1.13.2022 15:16:46.126
93, 1.64423, 0.307322, 98.2811, -0.00195312, -0.000976562, 0, -0.0849609, 0.285156, -9.71973, 1.13.2022 15:16:46.134
94, 1.64423, 0.307322, 98.2811, 0, 0, 0, -0.046875, 0.304688, -9.73145, 1.13.2022 15:16:46.142
95, 1.64423, 0.307322, 98.2811, 0.000976562, -0.000976562, 0, -0.046875, 0.287109, -9.70801, 1.13.2022 15:16:46.150
96, 1.63966, 0.302033, 98.2812, 0, -0.000976562, 0, -0.09375, 0.298828, -9.68164, 1.13.2022 15:16:46.158
97, 1.63966, 0.302033, 98.2812, 0, -0.000976562, 0, -0.0253906, 0.256836, -9.72363, 1.13.2022 15:16:46.166
98, 1.63966, 0.302033, 98.2812, 0, 0, -0.000976562, -0.0585938, 0.270508, -9.70605, 1.13.2022 15:16:46.174
99, 1.63966, 0.302033, 98.2812, 0.000976562, 0, -0.000976562, -0.0712891, 0.283203, -9.71484, 1.13.2022 15:16:46.182
100, 1.63966, 0.302033, 98.2812, 0.000976562, 0, 0, -0.0400391, 0.237305, -9.7168, 1.13.2022 15:16:46.190
101, 1.63437, 0.306608, 98.2812, 0.000976562, 0, -0.000976562, -0.12793, 0.297852, -9.72754, 1.13.2022 15:16:46.198
102, 1.63437, 0.306608, 98.2812, 0.000976562, 0, -0.000976562, -0.0517578, 0.287109, -9.70605, 1.13.2022 15:16:46.206
103, 1.63437, 0.306608, 98.2812, 0.000976562, 0, 0, -0.0478516, 0.259766, -9.74707, 1.13.2022 15:16:46.214
104, 1.63437, 0.306608, 98.2812, 0, -0.000976562, -0.000976562, -0.0664062, 0.276367, -9.73438, 1.13.2022 15:16:46.222
105, 1.63437, 0.306608, 98.2812, 0, -0.000976562, 0, 0.00976562, 0.253906, -9.72461, 1.13.2022 15:16:46.230
106, 1.63437, 0.306608, 98.2812, 0.000976562, -0.000976562, -0.000976562, -0.0527344, 0.289062, -9.75586, 1.13.2022 15:16:46.238
107, 1.62908, 0.311183, 98.2812, -0.000976562, -0.000976562, 0, -0.0576172, 0.291016, -9.75488, 1.13.2022 15:16:46.246
108, 1.62908, 0.311183, 98.2812, 0, -0.000976562, 0, -0.0380859, 0.28125, -9.73242, 1.13.2022 15:16:46.254
109, 1.62908, 0.311183, 98.2812, 0, 0, -0.000976562, -0.123047, 0.302734, -9.72754, 1.13.2022 15:16:46.262
110, 1.62908, 0.311183, 98.2812, 0, 0, 0, -0.0283203, 0.264648, -9.74219, 1.13.2022 15:16:46.270
111, 1.62908, 0.311183, 98.2812, 0, 0, 0, -0.0380859, 0.243164, -9.77148, 1.13.2022 15:16:46.278
112, 1.62908, 0.311183, 98.2812, 0, 0, 0, -0.111328, 0.286133, -9.73535, 1.13.2022 15:16:46.286
113, 1.62908, 0.311183, 98.2812, 0, 0, -0.000976562, -0.00878906, 0.270508, -9.7002, 1.13.2022 15:16:46.294
114, 1.62908, 0.311183, 98.2812, 0, -0.000976562, -0.00195312, -0.0976562, 0.28125, -9.74121, 1.13.2022 15:16:46.302
115, 1.62908, 0.311183, 98.2812, 0, 0, 0, -0.0498047, 0.314453, -9.72168, 1.13.2022 15:16:46.310
116, 1.62908, 0.311183, 98.2812, 0, 0, 0, -0.0410156, 0.244141, -9.77832, 1.13.2022 15:16:46.318
117, 1.62908, 0.311183, 98.2812, -0.00195312, 0, -0.000976562, -0.121094, 0.299805, -9.7207, 1.13.2022 15:16:46.326
118, 1.62908, 0.311183, 98.2812, -0.00195312, -0.000976562, 0, -0.0449219, 0.239258, -9.7002, 1.13.2022 15:16:46.334
119, 1.62908, 0.311183, 98.2812, -0.00195312, -0.000976562, -0.000976562, -0.0351562, 0.256836, -9.7207, 1.13.2022 15:16:46.342
120, 1.62908, 0.311183, 98.2812, -0.000976562, 0, -0.000976562, -0.0644531, 0.305664, -9.77637, 1.13.2022 15:16:46.350
121, 1.62908, 0.311183, 98.2812, -0.000976562, 0, -0.000976562, 0.00976562, 0.269531, -9.76367, 1.13.2022 15:16:46.358
122, 1.62884, 0.311262, 98.2806, 0, 0, -0.000976562, -0.0595703, 0.300781, -9.75488, 1.13.2022 15:16:46.366
123, 1.62908, 0.311183, 98.2812, -0.000976562, -0.000976562, 0.000976562, -0.0351562, 0.276367, -9.74414, 1.13.2022 15:16:46.374
124, 1.62908, 0.311183, 98.2812, -0.000976562, -0.000976562, 0, -0.00683594, 0.268555, -9.73535, 1.13.2022 15:16:46.382
125, 1.62908, 0.311183, 98.2812, -0.000976562, 0, 0, -0.0644531, 0.282227, -9.77148, 1.13.2022 15:16:46.388
126, 1.62908, 0.311183, 98.2812, -0.000976562, 0, -0.000976562, -0.0117188, 0.291016, -9.74902, 1.13.2022 15:16:46.396
127, 1.62908, 0.311183, 98.2812, -0.000976562, -0.000976562, -0.000976562, -0.0546875, 0.288086, -9.73145, 1.13.2022 15:16:46.404
128, 1.62908, 0.311183, 98.2812, -0.000976562, -0.000976562, 0, -0.0693359, 0.291016, -9.74316, 1.13.2022 15:16:46.412
129, 1.62908, 0.311183, 98.2812, -0.000976562, 0.000976562, 0, -0.00976562, 0.246094, -9.77832, 1.13.2022 15:16:46.420
130, 1.62908, 0.311183, 98.2812, -0.00195312, 0.000976562, 0, -0.0966797, 0.306641, -9.7207, 1.13.2022 15:16:46.428
131, 1.63437, 0.306608, 98.2812, -0.00195312, -0.000976562, 0, -0.0996094, 0.283203, -9.71973, 1.13.2022 15:16:46.436
132, 1.63437, 0.306608, 98.2812, -0.00195312, -0.000976562, 0, -0.0332031, 0.258789, -9.7334, 1.13.2022 15:16:46.444
133, 1.63437, 0.306608, 98.2812, -0.00195312, -0.000976562, 0, -0.0947266, 0.292969, -9.72656, 1.13.2022 15:16:46.452
134, 1.63437, 0.306608, 98.2812, -0.00195312, -0.000976562, -0.000976562, -0.03125, 0.305664, -9.75977, 1.13.2022 15:16:46.460
135, 1.63437, 0.306608, 98.2812, -0.00195312, 0, -0.00195312, -0.0546875, 0.297852, -9.73438, 1.13.2022 15:16:46.468
136, 1.63437, 0.306608, 98.2812, -0.00195312, 0, 0, -0.0595703, 0.321289, -9.72852, 1.13.2022 15:16:46.476
137, 1.63966, 0.302033, 98.2812, -0.000976562, -0.000976562, -0.000976562, -0.00195312, 0.254883, -9.74512, 1.13.2022 15:16:46.484
138, 1.63966, 0.302033, 98.2812, -0.000976562, 0, 0, -0.111328, 0.280273, -9.72363, 1.13.2022 15:16:46.492
139, 1.63966, 0.302033, 98.2812, -0.000976562, 0, -0.000976562, -0.0429688, 0.305664, -9.75781, 1.13.2022 15:16:46.500
140, 1.64423, 0.307322, 98.2811, 0, -0.000976562, -0.000976562, -0.0517578, 0.253906, -9.71875, 1.13.2022 15:16:46.508
141, 1.64423, 0.307322, 98.2811, -0.000976562, 0, -0.000976562, -0.119141, 0.268555, -9.71973, 1.13.2022 15:16:46.516
142, 1.64423, 0.307322, 98.2811, -0.000976562, 0, -0.000976562, -0.0136719, 0.256836, -9.72168, 1.13.2022 15:16:46.524
143, 1.64423, 0.307322, 98.2811, -0.000976562, -0.000976562, 0, -0.0400391, 0.268555, -9.72266, 1.13.2022 15:16:46.532
144, 1.64423, 0.307322, 98.2811, -0.000976562, 0, 0, -0.0810547, 0.30957, -9.74219, 1.13.2022 15:16:46.540
145, 1.64423, 0.307322, 98.2811, -0.000976562, 0, -0.000976562, -0.0166016, 0.286133, -9.74219, 1.13.2022 15:16:46.548
146, 1.64423, 0.307322, 98.2811, -0.00195312, 0, 0, -0.0957031, 0.28418, -9.75488, 1.13.2022 15:16:46.556
147, 1.64952, 0.302747, 98.281, -0.00195312, 0, 0, -0.0498047, 0.259766, -9.74902, 1.13.2022 15:16:46.564
148, 1.64952, 0.302747, 98.281, -0.000976562, -0.000976562, 0, -0.03125, 0.240234, -9.73828, 1.13.2022 15:16:46.572
149, 1.64952, 0.302747, 98.281, 0, -0.000976562, 0, -0.0927734, 0.279297, -9.75781, 1.13.2022 15:16:46.580
150, 1.64423, 0.307322, 98.2811, 0, -0.000976562, -0.000976562, -0.0136719, 0.280273, -9.7207, 1.13.2022 15:16:46.588
151, 1.64881, 0.31261, 98.2809, 0, -0.000976562, 0, -0.0683594, 0.27832, -9.72461, 1.13.2022 15:16:46.596
152, 1.64881, 0.31261, 98.2809, 0, -0.000976562, 0, -0.0849609, 0.304688, -9.71387, 1.13.2022 15:16:46.604
153, 1.64881, 0.31261, 98.2809, 0, 0, 0, -0.0263672, 0.263672, -9.73535, 1.13.2022 15:16:46.612
154, 1.64881, 0.31261, 98.2809, -0.000976562, 0, -0.000976562, -0.0996094, 0.270508, -9.71973, 1.13.2022 15:16:46.620
155, 1.64881, 0.31261, 98.2809, -0.000976562, -0.000976562, -0.000976562, -0.0332031, 0.266602, -9.73535, 1.13.2022 15:16:46.628
156, 1.64881, 0.31261, 98.2809, 0, -0.000976562, -0.000976562, -0.046875, 0.268555, -9.73242, 1.13.2022 15:16:46.636
157, 1.64881, 0.31261, 98.2809, -0.000976562, -0.000976562, -0.000976562, -0.108398, 0.289062, -9.7002, 1.13.2022 15:16:46.644
158, 1.64881, 0.31261, 98.2809, 0, -0.000976562, -0.000976562, -0.00195312, 0.239258, -9.71973, 1.13.2022 15:16:46.652
159, 1.64881, 0.31261, 98.2809, 0, 0, -0.000976562, -0.0732422, 0.275391, -9.72266, 1.13.2022 15:16:46.660
160, 1.64352, 0.317185, 98.2809, 0, 0, 0, -0.0537109, 0.296875, -9.70801, 1.13.2022 15:16:46.668
161, 1.64352, 0.317185, 98.2809, 0.000976562, 0, -0.000976562, -0.0283203, 0.295898, -9.75781, 1.13.2022 15:16:46.676
162, 1.64328, 0.317266, 98.2802, 0, -0.000976562, 0, -0.118164, 0.319336, -9.72266, 1.13.2022 15:16:46.684
163, 1.64328, 0.317266, 98.2802, 0.000976562, -0.000976562, -0.000976562, -0.0302734, 0.290039, -9.73926, 1.13.2022 15:16:46.692
164, 1.64328, 0.317266, 98.2802, 0.000976562, 0, 0, -0.0234375, 0.245117, -9.74023, 1.13.2022 15:16:46.700
165, 1.64352, 0.317185, 98.2809, 0.000976562, -0.000976562, 0, -0.0830078, 0.264648, -9.73926, 1.13.2022 15:16:46.708
166, 1.64352, 0.317185, 98.2809, 0.000976562, -0.000976562, 0, -0.00683594, 0.25293, -9.74805, 1.13.2022 15:16:46.716
167, 1.64352, 0.317185, 98.2809, 0.000976562, -0.000976562, -0.000976562, -0.0742188, 0.245117, -9.74707, 1.13.2022 15:16:46.724
168, 1.63799, 0.321841, 98.2802, 0, -0.000976562, -0.000976562, -0.0732422, 0.263672, -9.71777, 1.13.2022 15:16:46.732
169, 1.63799, 0.321841, 98.2802, -0.000976562, 0, 0, -0.0117188, 0.258789, -9.71875, 1.13.2022 15:16:46.740
170, 1.63366, 0.316472, 98.2811, -0.00195312, 0.000976562, 0, -0.0791016, 0.318359, -9.78711, 1.13.2022 15:16:46.748
171, 1.63366, 0.316472, 98.2811, -0.000976562, 0, -0.000976562, -0.03125, 0.304688, -9.74805, 1.13.2022 15:16:46.756
172, 1.63342, 0.316551, 98.2804, 0, 0, 0, -0.0615234, 0.283203, -9.74316, 1.13.2022 15:16:46.764
173, 1.63366, 0.316472, 98.2811, 0, 0.000976562, 0.000976562, -0.0996094, 0.287109, -9.69531, 1.13.2022 15:16:46.772
174, 1.63366, 0.316472, 98.2811, 0.000976562, 0, -0.000976562, -0.0263672, 0.25293, -9.75, 1.13.2022 15:16:46.780
175, 1.63366, 0.316472, 98.2811, 0, 0, -0.000976562, -0.0751953, 0.277344, -9.70801, 1.13.2022 15:16:46.788
176, 1.63366, 0.316472, 98.2811, 0.000976562, -0.000976562, 0, -0.0595703, 0.28125, -9.7627, 1.13.2022 15:16:46.796
177, 1.63366, 0.316472, 98.2811, 0.000976562, -0.000976562, -0.000976562, -0.0175781, 0.277344, -9.6875, 1.13.2022 15:16:46.804
178, 1.63366, 0.316472, 98.2811, 0, -0.00195312, 0, -0.0976562, 0.286133, -9.73828, 1.13.2022 15:16:46.812
179, 1.63366, 0.316472, 98.2811, -0.000976562, -0.000976562, 0, 0.00488281, 0.254883, -9.75488, 1.13.2022 15:16:46.820
180, 1.63366, 0.316472, 98.2811, 0, -0.000976562, 0, -0.0380859, 0.254883, -9.76172, 1.13.2022 15:16:46.828
181, 1.63366, 0.316472, 98.2811, -0.00195312, 0, -0.000976562, -0.0810547, 0.261719, -9.73242, 1.13.2022 15:16:46.836
182, 1.63366, 0.316472, 98.2811, -0.00195312, 0.000976562, -0.000976562, 0.00976562, 0.256836, -9.72656, 1.13.2022 15:16:46.844
183, 1.63366, 0.316472, 98.2811, -0.00195312, 0, -0.000976562, -0.0908203, 0.297852, -9.74512, 1.13.2022 15:16:46.853
184, 1.63342, 0.316551, 98.2804, -0.00195312, 0, -0.000976562, -0.0498047, 0.294922, -9.72949, 1.13.2022 15:16:46.860
185, 1.62884, 0.311262, 98.2806, -0.00195312, 0, 0, -0.0302734, 0.255859, -9.69336, 1.13.2022 15:16:46.868
186, 1.62908, 0.311183, 98.2812, -0.00195312, 0, 0, -0.12793, 0.282227, -9.70508, 1.13.2022 15:16:46.876
187, 1.62908, 0.311183, 98.2812, -0.000976562, -0.000976562, -0.000976562, -0.0429688, 0.25293, -9.75391, 1.13.2022 15:16:46.884
188, 1.62908, 0.311183, 98.2812, 0, -0.000976562, 0, -0.0810547, 0.270508, -9.7793, 1.13.2022 15:16:46.892
189, 1.62908, 0.311183, 98.2812, -0.00195312, -0.000976562, 0, -0.0966797, 0.289062, -9.7002, 1.13.2022 15:16:46.900
190, 1.62908, 0.311183, 98.2812, 0, -0.000976562, 0, -0.0078125, 0.272461, -9.77539, 1.13.2022 15:16:46.908
191, 1.62908, 0.311183, 98.2812, 0.000976562, 0, 0, -0.0976562, 0.273438, -9.73633, 1.13.2022 15:16:46.916
192, 1.62908, 0.311183, 98.2812, -0.000976562, -0.000976562, -0.000976562, -0.0712891, 0.274414, -9.74805, 1.13.2022 15:16:46.924
193, 1.62908, 0.311183, 98.2812, -0.000976562, -0.000976562, -0.000976562, -0.0429688, 0.277344, -9.77734, 1.13.2022 15:16:46.932
194, 1.62379, 0.315758, 98.2812, 0, -0.000976562, 0, -0.0947266, 0.300781, -9.74512, 1.13.2022 15:16:46.940
195, 1.62379, 0.315758, 98.2812, -0.00195312, -0.000976562, 0, 0.00488281, 0.266602, -9.72852, 1.13.2022 15:16:46.948
196, 1.62837, 0.321047, 98.2811, -0.00195312, 0, 0.000976562, -0.0576172, 0.269531, -9.7627, 1.13.2022 15:16:46.956
197, 1.62837, 0.321047, 98.2811, -0.00292969, 0, 0, -0.0517578, 0.292969, -9.73145, 1.13.2022 15:16:46.964
198, 1.62837, 0.321047, 98.2811, -0.00195312, 0, 0, -0.0166016, 0.24707, -9.72656, 1.13.2022 15:16:46.972
199, 1.62837, 0.321047, 98.2811, -0.00195312, 0.000976562, 0, -0.112305, 0.305664, -9.74902, 1.13.2022 15:16:46.980
200, 1.62837, 0.321047, 98.2811, -0.000976562, 0, -0.000976562, -0.0527344, 0.286133, -9.75293, 1.13.2022 15:16:46.988
201, 1.62837, 0.321047, 98.2811, -0.00195312, 0, -0.000976562, -0.0117188, 0.292969, -9.75391, 1.13.2022 15:16:46.996
202, 1.63366, 0.316472, 98.2811, -0.00195312, -0.000976562, -0.000976562, -0.0830078, 0.301758, -9.7168, 1.13.2022 15:16:47.004
203, 1.63366, 0.316472, 98.2811, -0.000976562, -0.000976562, -0.000976562, -0.0166016, 0.259766, -9.74023, 1.13.2022 15:16:47.012
204, 1.63366, 0.316472, 98.2811, -0.000976562, -0.000976562, -0.000976562, -0.0712891, 0.270508, -9.71777, 1.13.2022 15:16:47.020
205, 1.63366, 0.316472, 98.2811, -0.000976562, 0, -0.000976562, -0.0712891, 0.285156, -9.73145, 1.13.2022 15:16:47.028
206, 1.63366, 0.316472, 98.2811, -0.000976562, 0, -0.000976562, -0.0429688, 0.234375, -9.76855, 1.13.2022 15:16:47.036
207, 1.63366, 0.316472, 98.2811, -0.000976562, 0, -0.000976562, -0.106445, 0.27832, -9.7168, 1.13.2022 15:16:47.044
208, 1.63366, 0.316472, 98.2811, -0.00195312, 0, 0, -0.0380859, 0.294922, -9.72754, 1.13.2022 15:16:47.052
209, 1.63366, 0.316472, 98.2811, -0.00292969, -0.000976562, 0, -0.0498047, 0.254883, -9.75195, 1.13.2022 15:16:47.060
210, 1.63366, 0.316472, 98.2811, -0.00195312, 0, -0.000976562, -0.078125, 0.283203, -9.74609, 1.13.2022 15:16:47.068
211, 1.63366, 0.316472, 98.2811, -0.00195312, 0, 0, 0.0126953, 0.285156, -9.73535, 1.13.2022 15:16:47.076
212, 1.63366, 0.316472, 98.2811, -0.00195312, 0, 0, -0.100586, 0.28418, -9.76855, 1.13.2022 15:16:47.084
213, 1.63366, 0.316472, 98.2811, -0.000976562, 0, 0, -0.0478516, 0.3125, -9.74512, 1.13.2022 15:16:47.092
214, 1.63366, 0.316472, 98.2811, 0, -0.000976562, 0, -0.0205078, 0.249023, -9.71191, 1.13.2022 15:16:47.100
215, 1.63366, 0.316472, 98.2811, 0, 0, 0, -0.078125, 0.268555, -9.70801, 1.13.2022 15:16:47.108
216, 1.63366, 0.316472, 98.2811, 0, -0.000976562, -0.000976562, -0.0322266, 0.291992, -9.71289, 1.13.2022 15:16:47.116
217, 1.63366, 0.316472, 98.2811, 0.00195312, -0.00195312, -0.000976562, -0.0380859, 0.28125, -9.74609, 1.13.2022 15:16:47.124
218, 1.63366, 0.316472, 98.2811, 0.000976562, -0.000976562, 0, -0.0947266, 0.275391, -9.71484, 1.13.2022 15:16:47.132
219, 1.63366, 0.316472, 98.2811, 0.000976562, 0, -0.000976562, 0.0195312, 0.261719, -9.75293, 1.13.2022 15:16:47.140
220, 1.63366, 0.316472, 98.2811, 0.000976562, 0, -0.000976562, -0.0673828, 0.269531, -9.7627, 1.13.2022 15:16:47.148
221, 1.63366, 0.316472, 98.2811, 0, 0, 0, -0.0644531, 0.297852, -9.73145, 1.13.2022 15:16:47.156
222, 1.63366, 0.316472, 98.2811, 0, -0.000976562, 0, -0.0195312, 0.28125, -9.76074, 1.13.2022 15:16:47.164
223, 1.63366, 0.316472, 98.2811, -0.000976562, 0, -0.000976562, -0.115234, 0.28418, -9.77539, 1.13.2022 15:16:47.172
224, 1.63366, 0.316472, 98.2811, -0.000976562, 0, -0.000976562, -0.0214844, 0.285156, -9.73047, 1.13.2022 15:16:47.180
225, 1.63366, 0.316472, 98.2811, -0.000976562, 0, -0.000976562, -0.0810547, 0.269531, -9.74609, 1.13.2022 15:16:47.188
226, 1.63366, 0.316472, 98.2811, -0.000976562, 0, 0, -0.0830078, 0.292969, -9.73145, 1.13.2022 15:16:47.196
227, 1.63366, 0.316472, 98.2811, 0, 0, 0, -0.0439453, 0.25293, -9.67578, 1.13.2022 15:16:47.204
228, 1.63366, 0.316472, 98.2811, -0.000976562, 0, 0, -0.105469, 0.288086, -9.66699, 1.13.2022 15:16:47.212
229, 1.63366, 0.316472, 98.2811, -0.000976562, -0.000976562, -0.000976562, -0.0712891, 0.25, -9.73242, 1.13.2022 15:16:47.221
230, 1.63366, 0.316472, 98.2811, 0, -0.000976562, -0.000976562, -0.0449219, 0.258789, -9.70898, 1.13.2022 15:16:47.228
231, 1.63366, 0.316472, 98.2811, -0.000976562, -0.000976562, -0.000976562, -0.0927734, 0.256836, -9.73438, 1.13.2022 15:16:47.236
232, 1.63342, 0.316551, 98.2804, -0.000976562, -0.00195312, 0, 0.0185547, 0.248047, -9.75488, 1.13.2022 15:16:47.244
233, 1.63342, 0.316551, 98.2804, -0.000976562, -0.000976562, -0.000976562, -0.0478516, 0.269531, -9.7627, 1.13.2022 15:16:47.252
234, 1.63342, 0.316551, 98.2804, -0.00195312, 0, -0.000976562, -0.0947266, 0.297852, -9.74023, 1.13.2022 15:16:47.260
235, 1.63342, 0.316551, 98.2804, -0.000976562, 0, 0, -0.00878906, 0.256836, -9.7334, 1.13.2022 15:16:47.268
236, 1.63342, 0.316551, 98.2804, -0.000976562, -0.000976562, 0, -0.0947266, 0.264648, -9.73438, 1.13.2022 15:16:47.276
237, 1.62813, 0.321126, 98.2804, -0.000976562, 0, -0.000976562, -0.0332031, 0.265625, -9.71875, 1.13.2022 15:16:47.284
238, 1.62813, 0.321126, 98.2804, 0, -0.000976562, -0.000976562, -0.0166016, 0.258789, -9.72363, 1.13.2022 15:16:47.292
239, 1.62813, 0.321126, 98.2804, 0, -0.000976562, -0.000976562, -0.0683594, 0.316406, -9.72168, 1.13.2022 15:16:47.300
240, 1.62813, 0.321126, 98.2804, 0.000976562, -0.000976562, -0.000976562, -0.0195312, 0.302734, -9.76465, 1.13.2022 15:16:47.309
241, 1.62813, 0.321126, 98.2804, 0.000976562, 0.000976562, 0, -0.0380859, 0.279297, -9.75879, 1.13.2022 15:16:47.316
242, 1.62356, 0.315837, 98.2806, 0.000976562, 0.000976562, 0, -0.0810547, 0.271484, -9.74609, 1.13.2022 15:16:47.324
243, 1.62356, 0.315837, 98.2806, 0.00195312, 0, -0.000976562, -0.0283203, 0.226562, -9.75293, 1.13.2022 15:16:47.332
244, 1.62356, 0.315837, 98.2806, 0.000976562, 0.000976562, -0.000976562, -0.116211, 0.245117, -9.73926, 1.13.2022 15:16:47.340
245, 1.62356, 0.315837, 98.2806, 0.000976562, -0.000976562, 0, -0.0615234, 0.236328, -9.75, 1.13.2022 15:16:47.348
246, 1.61369, 0.315123, 98.2808, 0.000976562, -0.00195312, 0, -0.0458984, 0.268555, -9.79199, 1.13.2022 15:16:47.356
247, 1.61369, 0.315123, 98.2808, 0, -0.000976562, 0, -0.0976562, 0.294922, -9.73047, 1.13.2022 15:16:47.362
248, 1.61369, 0.315123, 98.2808, 0, -0.000976562, 0, -0.0244141, 0.274414, -9.76074, 1.13.2022 15:16:47.370
249, 1.61369, 0.315123, 98.2808, -0.00195312, -0.000976562, 0, -0.0673828, 0.255859, -9.77734, 1.13.2022 15:16:47.378
250, 1.61369, 0.315123, 98.2808, -0.00292969, 0, -0.000976562, -0.0673828, 0.291016, -9.76465, 1.13.2022 15:16:47.386
251, 1.61369, 0.315123, 98.2808, -0.00195312, 0, -0.000976562, -0.0234375, 0.28125, -9.74414, 1.13.2022 15:16:47.394
252, 1.61369, 0.315123, 98.2808, 0, 0, -0.000976562, -0.0966797, 0.291016, -9.68164, 1.13.2022 15:16:47.402
253, 1.61369, 0.315123, 98.2808, -0.00195312, 0, 0, -0.0576172, 0.314453, -9.75195, 1.13.2022 15:16:47.410
254, 1.61369, 0.315123, 98.2808, 0, 0, 0, -0.0712891, 0.27832, -9.71777, 1.13.2022 15:16:47.418
255, 1.61369, 0.315123, 98.2808, -0.00195312, 0.000976562, 0, -0.0878906, 0.286133, -9.74316, 1.13.2022 15:16:47.426
256, 1.61369, 0.315123, 98.2808, -0.00195312, -0.000976562, 0, -0.00488281, 0.256836, -9.73535, 1.13.2022 15:16:47.434
257, 1.61369, 0.315123, 98.2808, 0, 0, -0.000976562, -0.0380859, 0.276367, -9.76074, 1.13.2022 15:16:47.442
258, 1.61369, 0.315123, 98.2808, 0.000976562, 0, 0, -0.0625, 0.289062, -9.75781, 1.13.2022 15:16:47.450
259, 1.61393, 0.315044, 98.2814, 0, -0.000976562, 0, 0.03125, 0.269531, -9.75293, 1.13.2022 15:16:47.458
260, 1.61393, 0.315044, 98.2814, 0, 0, -0.000976562, -0.114258, 0.28125, -9.75488, 1.13.2022 15:16:47.466
261, 1.61393, 0.315044, 98.2814, 0, 0.000976562, 0, -0.0361328, 0.261719, -9.74707, 1.13.2022 15:16:47.474
262, 1.61393, 0.315044, 98.2814, 0, 0, 0, -0.0380859, 0.25, -9.72852, 1.13.2022 15:16:47.482
263, 1.61393, 0.315044, 98.2814, -0.00195312, 0, 0, -0.0996094, 0.270508, -9.71484, 1.13.2022 15:16:47.490
264, 1.61393, 0.315044, 98.2814, 0, 0, -0.000976562, 0.0078125, 0.253906, -9.71484, 1.13.2022 15:16:47.498
265, 1.61393, 0.315044, 98.2814, 0, -0.000976562, -0.000976562, -0.0849609, 0.280273, -9.71484, 1.13.2022 15:16:47.506
266, 1.61393, 0.315044, 98.2814, 0, -0.000976562, 0, -0.0644531, 0.302734, -9.74512, 1.13.2022 15:16:47.514
267, 1.61393, 0.315044, 98.2814, 0, -0.000976562, 0, 0.0136719, 0.296875, -9.78711, 1.13.2022 15:16:47.522
268, 1.61393, 0.315044, 98.2814, 0, -0.00195312, 0, -0.0810547, 0.300781, -9.76367, 1.13.2022 15:16:47.530
269, 1.61393, 0.315044, 98.2814, 0, -0.000976562, 0, -0.0185547, 0.272461, -9.70898, 1.13.2022 15:16:47.538
270, 1.61393, 0.315044, 98.2814, 0, 0, 0, -0.0625, 0.243164, -9.76172, 1.13.2022 15:16:47.546
271, 1.61393, 0.315044, 98.2814, 0.000976562, -0.000976562, -0.000976562, -0.0712891, 0.271484, -9.75293, 1.13.2022 15:16:47.554
272, 1.61922, 0.310469, 98.2814, 0.000976562, 0, -0.000976562, -0.0078125, 0.269531, -9.7666, 1.13.2022 15:16:47.562
273, 1.61922, 0.310469, 98.2814, 0, 0, 0, -0.106445, 0.275391, -9.7168, 1.13.2022 15:16:47.570
274, 1.61922, 0.310469, 98.2814, 0.000976562, 0, 0, -0.0302734, 0.260742, -9.70703, 1.13.2022 15:16:47.578
275, 1.61464, 0.30518, 98.2816, -0.00195312, -0.000976562, 0, -0.000976562, 0.236328, -9.69141, 1.13.2022 15:16:47.586
276, 1.61464, 0.30518, 98.2816, -0.00195312, -0.000976562, -0.000976562, -0.0917969, 0.273438, -9.70801, 1.13.2022 15:16:47.594
277, 1.61464, 0.30518, 98.2816, -0.000976562, -0.000976562, -0.000976562, -0.00390625, 0.275391, -9.72852, 1.13.2022 15:16:47.602
278, 1.61464, 0.30518, 98.2816, -0.000976562, -0.00195312, -0.000976562, -0.00488281, 0.28418, -9.75879, 1.13.2022 15:16:47.610
279, 1.61464, 0.30518, 98.2816, -0.000976562, -0.000976562, 0, -0.0810547, 0.30957, -9.73535, 1.13.2022 15:16:47.618
280, 1.61464, 0.30518, 98.2816, 0, -0.000976562, 0, 0.00390625, 0.313477, -9.7793, 1.13.2022 15:16:47.627
281, 1.61993, 0.300605, 98.2816, 0, 0, 0, -0.0859375, 0.302734, -9.74023, 1.13.2022 15:16:47.634
282, 1.61993, 0.300605, 98.2816, 0, 0, 0, -0.0429688, 0.293945, -9.76953, 1.13.2022 15:16:47.642
283, 1.61536, 0.295316, 98.2817, 0.000976562, 0, 0, -0.0166016, 0.286133, -9.74414, 1.13.2022 15:16:47.650
284, 1.61536, 0.295316, 98.2817, 0.000976562, -0.000976562, 0, -0.0996094, 0.292969, -9.72168, 1.13.2022 15:16:47.658
285, 1.61536, 0.295316, 98.2817, 0, -0.00195312, -0.000976562, 0.00292969, 0.255859, -9.71484, 1.13.2022 15:16:47.666
286, 1.62065, 0.290742, 98.2817, 0, -0.000976562, -0.000976562, -0.0751953, 0.268555, -9.70801, 1.13.2022 15:16:47.674
287, 1.62065, 0.290742, 98.2817, -0.000976562, -0.000976562, 0, -0.0566406, 0.270508, -9.71289, 1.13.2022 15:16:47.682
288, 1.62065, 0.290742, 98.2817, 0, -0.000976562, 0, 0.0146484, 0.24707, -9.73828, 1.13.2022 15:16:47.690
289, 1.62065, 0.290742, 98.2817, 0, 0, 0, -0.111328, 0.268555, -9.73145, 1.13.2022 15:16:47.698
290, 1.62593, 0.286166, 98.2817, 0, 0, -0.000976562, -0.0595703, 0.289062, -9.75488, 1.13.2022 15:16:47.706
291, 1.62593, 0.286166, 98.2817, -0.000976562, 0, 0, -0.0302734, 0.268555, -9.7373, 1.13.2022 15:16:47.714
292, 1.62593, 0.286166, 98.2817, 0, -0.000976562, 0, -0.0898438, 0.299805, -9.72168, 1.13.2022 15:16:47.722
293, 1.62593, 0.286166, 98.2817, 0, -0.000976562, -0.000976562, -0.0302734, 0.288086, -9.72949, 1.13.2022 15:16:47.730
294, 1.62593, 0.286166, 98.2817, 0, 0, -0.000976562, -0.0634766, 0.282227, -9.70312, 1.13.2022 15:16:47.738
295, 1.62593, 0.286166, 98.2817, 0, 0, 0, -0.0595703, 0.261719, -9.73242, 1.13.2022 15:16:47.746
296, 1.62593, 0.286166, 98.2817, -0.000976562, 0, -0.000976562, -0.0146484, 0.243164, -9.76172, 1.13.2022 15:16:47.754
297, 1.62593, 0.286166, 98.2817, 0, 0.000976562, -0.00195312, -0.0859375, 0.299805, -9.7334, 1.13.2022 15:16:47.762
298, 1.62593, 0.286166, 98.2817, 0, -0.000976562, -0.000976562, -0.0615234, 0.267578, -9.69922, 1.13.2022 15:16:47.770
299, 1.62593, 0.286166, 98.2817, 0.000976562, -0.000976562, -0.000976562, -0.0429688, 0.263672, -9.72754, 1.13.2022 15:16:47.778
300, 1.62593, 0.286166, 98.2817, 0, 0, 0, -0.116211, 0.27832, -9.72168, 1.13.2022 15:16:47.786
301, 1.62593, 0.286166, 98.2817, 0, 0, 0, -0.00976562, 0.245117, -9.73633, 1.13.2022 15:16:47.794
302, 1.62593, 0.286166, 98.2817, 0, 0, 0, -0.0830078, 0.245117, -9.72559, 1.13.2022 15:16:47.802
303, 1.62593, 0.286166, 98.2817, 0, 0, -0.000976562, -0.0810547, 0.271484, -9.72949, 1.13.2022 15:16:47.810
304, 1.62593, 0.286166, 98.2817, -0.000976562, -0.000976562, -0.00195312, -0.0166016, 0.230469, -9.73828, 1.13.2022 15:16:47.818
305, 1.6257, 0.286245, 98.2811, -0.000976562, -0.000976562, -0.000976562, -0.116211, 0.316406, -9.72559, 1.13.2022 15:16:47.826
306, 1.6257, 0.286245, 98.2811, -0.000976562, -0.000976562, 0, -0.046875, 0.267578, -9.7041, 1.13.2022 15:16:47.835
307, 1.62041, 0.29082, 98.2811, 0, -0.000976562, 0, -0.0332031, 0.25, -9.74707, 1.13.2022 15:16:47.842
308, 1.62041, 0.29082, 98.2811, 0, 0, 0, -0.0634766, 0.296875, -9.71973, 1.13.2022 15:16:47.850
309, 1.62041, 0.29082, 98.2811, 0, 0, -0.000976562, 0, 0.251953, -9.7334, 1.13.2022 15:16:47.858
310, 1.62041, 0.29082, 98.2811, 0, -0.000976562, -0.000976562, -0.0429688, 0.269531, -9.74219, 1.13.2022 15:16:47.867
311, 1.61512, 0.295395, 98.2811, 0.000976562, 0.000976562, 0, -0.0703125, 0.299805, -9.70996, 1.13.2022 15:16:47.874
312, 1.61512, 0.295395, 98.2811, 0, 0, 0, -0.0205078, 0.253906, -9.70996, 1.13.2022 15:16:47.882
313, 1.61536, 0.295316, 98.2817, 0, -0.000976562, 0, -0.117188, 0.267578, -9.75781, 1.13.2022 15:16:47.890
314, 1.61536, 0.295316, 98.2817, 0.000976562, 0, -0.000976562, -0.0644531, 0.25293, -9.75195, 1.13.2022 15:16:47.898
315, 1.61512, 0.295395, 98.2811, 0, -0.000976562, -0.000976562, -0.0644531, 0.238281, -9.75391, 1.13.2022 15:16:47.906
316, 1.61512, 0.295395, 98.2811, -0.000976562, -0.000976562, -0.000976562, -0.0585938, 0.287109, -9.70312, 1.13.2022 15:16:47.914
317, 1.60984, 0.29997, 98.2811, 0, -0.000976562, -0.000976562, 0.0078125, 0.266602, -9.72852, 1.13.2022 15:16:47.922
318, 1.60984, 0.29997, 98.2811, 0, 0, 0, -0.104492, 0.295898, -9.73828, 1.13.2022 15:16:47.930
319, 1.60984, 0.29997, 98.2811, 0, 0, 0, -0.0585938, 0.305664, -9.69824, 1.13.2022 15:16:47.938
320, 1.60984, 0.29997, 98.2811, 0, -0.000976562, 0, -0.0380859, 0.290039, -9.72266, 1.13.2022 15:16:47.946
321, 1.60984, 0.29997, 98.2811, 0, -0.000976562, 0, -0.119141, 0.271484, -9.72656, 1.13.2022 15:16:47.954
322, 1.61007, 0.299892, 98.2817, -0.000976562, -0.000976562, 0, -0.0234375, 0.253906, -9.70215, 1.13.2022 15:16:47.962
323, 1.60478, 0.304467, 98.2818, 0, -0.000976562, -0.000976562, -0.0517578, 0.280273, -9.71582, 1.13.2022 15:16:47.970
324, 1.60912, 0.309834, 98.2809, 0, -0.000976562, -0.000976562, -0.0673828, 0.295898, -9.66992, 1.13.2022 15:16:47.978
325, 1.60912, 0.309834, 98.2809, 0, 0, -0.000976562, -0.0117188, 0.25, -9.73633, 1.13.2022 15:16:47.986
326, 1.60912, 0.309834, 98.2809, 0, 0, -0.000976562, -0.0898438, 0.27832, -9.71484, 1.13.2022 15:16:47.994
327, 1.60912, 0.309834, 98.2809, 0.000976562, 0, 0, -0.0498047, 0.27832, -9.72266, 1.13.2022 15:16:48.002
328, 1.60912, 0.309834, 98.2809, 0, -0.000976562, 0, -0.0185547, 0.259766, -9.74023, 1.13.2022 15:16:48.010
329, 1.60912, 0.309834, 98.2809, 0, -0.000976562, -0.000976562, -0.0908203, 0.28418, -9.75488, 1.13.2022 15:16:48.018
330, 1.60912, 0.309834, 98.2809, 0, -0.000976562, -0.000976562, -0.00878906, 0.251953, -9.71484, 1.13.2022 15:16:48.026
331, 1.60912, 0.309834, 98.2809, -0.000976562, -0.000976562, -0.000976562, -0.0595703, 0.276367, -9.73242, 1.13.2022 15:16:48.034
332, 1.60912, 0.309834, 98.2809, -0.000976562, -0.000976562, 0, -0.0595703, 0.28125, -9.75586, 1.13.2022 15:16:48.042
333, 1.60912, 0.309834, 98.2809, -0.000976562, -0.00195312, -0.000976562, 0.00292969, 0.268555, -9.7334, 1.13.2022 15:16:48.050
334, 1.60912, 0.309834, 98.2809, 0, -0.00292969, 0, -0.0800781, 0.253906, -9.69922, 1.13.2022 15:16:48.058
335, 1.60912, 0.309834, 98.2809, 0, -0.000976562, -0.000976562, -0.0498047, 0.286133, -9.7627, 1.13.2022 15:16:48.066
336, 1.60912, 0.309834, 98.2809, -0.000976562, -0.000976562, -0.000976562, -0.0302734, 0.273438, -9.7373, 1.13.2022 15:16:48.074
337, 1.60912, 0.309834, 98.2809, -0.000976562, -0.00195312, 0, -0.0830078, 0.30957, -9.73047, 1.13.2022 15:16:48.082
338, 1.60912, 0.309834, 98.2809, 0, 0, 0, -0.0244141, 0.241211, -9.78125, 1.13.2022 15:16:48.090
339, 1.60912, 0.309834, 98.2809, 0, -0.000976562, 0, -0.0429688, 0.266602, -9.7373, 1.13.2022 15:16:48.099
340, 1.60912, 0.309834, 98.2809, 0, -0.00195312, -0.000976562, -0.0634766, 0.285156, -9.72949, 1.13.2022 15:16:48.106
341, 1.60912, 0.309834, 98.2809, -0.000976562, -0.00195312, 0, -0.00488281, 0.243164, -9.75781, 1.13.2022 15:16:48.114
342, 1.60912, 0.309834, 98.2809, -0.00195312, -0.000976562, 0, -0.0927734, 0.294922, -9.72656, 1.13.2022 15:16:48.122
343, 1.60912, 0.309834, 98.2809, -0.000976562, -0.000976562, 0, -0.0361328, 0.289062, -9.76953, 1.13.2022 15:16:48.130
344, 1.60912, 0.309834, 98.2809, -0.000976562, -0.000976562, 0, -0.0410156, 0.28418, -9.76562, 1.13.2022 15:16:48.138
345, 1.61464, 0.30518, 98.2816, -0.000976562, -0.000976562, 0, -0.0908203, 0.291016, -9.74023, 1.13.2022 15:16:48.146
346, 1.61464, 0.30518, 98.2816, 0, -0.000976562, 0, -0.00878906, 0.256836, -9.73145, 1.13.2022 15:16:48.154
347, 1.61464, 0.30518, 98.2816, 0, -0.000976562, 0, -0.0810547, 0.269531, -9.74609, 1.13.2022 15:16:48.162
348, 1.61464, 0.30518, 98.2816, 0, 0, -0.000976562, -0.0683594, 0.298828, -9.68359, 1.13.2022 15:16:48.170
349, 1.61464, 0.30518, 98.2816, 0, 0, -0.000976562, -0.00683594, 0.292969, -9.74902, 1.13.2022 15:16:48.178
350, 1.61464, 0.30518, 98.2816, -0.000976562, 0.00195312, -0.000976562, -0.0927734, 0.290039, -9.72363, 1.13.2022 15:16:48.186
351, 1.61464, 0.30518, 98.2816, -0.000976562, -0.000976562, -0.000976562, -0.0595703, 0.286133, -9.74121, 1.13.2022 15:16:48.194
352, 1.61993, 0.300605, 98.2816, 0, -0.00195312, 0, -0.0449219, 0.28125, -9.73242, 1.13.2022 15:16:48.202
353, 1.61993, 0.300605, 98.2816, 0, -0.000976562, -0.000976562, -0.100586, 0.298828, -9.7666, 1.13.2022 15:16:48.210
354, 1.61993, 0.300605, 98.2816, 0, 0, 0, 0.0224609, 0.287109, -9.70898, 1.13.2022 15:16:48.218
355, 1.61993, 0.300605, 98.2816, 0, 0, -0.000976562, -0.0830078, 0.266602, -9.72754, 1.13.2022 15:16:48.226
356, 1.6197, 0.300684, 98.2809, 0, 0, -0.000976562, -0.0537109, 0.293945, -9.69824, 1.13.2022 15:16:48.234
357, 1.6197, 0.300684, 98.2809, 0, 0, -0.000976562, -0.03125, 0.276367, -9.74707, 1.13.2022 15:16:48.242
358, 1.62498, 0.296109, 98.2809, 0, 0, -0.000976562, -0.106445, 0.263672, -9.72656, 1.13.2022 15:16:48.250
359, 1.62498, 0.296109, 98.2809, 0, -0.000976562, -0.000976562, -0.0332031, 0.280273, -9.7207, 1.13.2022 15:16:48.258
360, 1.62956, 0.301398, 98.2807, 0, -0.000976562, 0, -0.0498047, 0.259766, -9.74902, 1.13.2022 15:16:48.266
361, 1.62956, 0.301398, 98.2807, -0.000976562, 0, 0, -0.0830078, 0.286133, -9.75, 1.13.2022 15:16:48.274
362, 1.62956, 0.301398, 98.2807, 0, 0, -0.000976562, -0.0136719, 0.259766, -9.74023, 1.13.2022 15:16:48.282
363, 1.62956, 0.301398, 98.2807, 0, -0.000976562, 0, -0.102539, 0.293945, -9.75684, 1.13.2022 15:16:48.290
364, 1.62956, 0.301398, 98.2807, 0, -0.00195312, -0.000976562, -0.0498047, 0.272461, -9.70898, 1.13.2022 15:16:48.298
365, 1.62956, 0.301398, 98.2807, -0.000976562, 0, -0.000976562, 0.0146484, 0.271484, -9.74023, 1.13.2022 15:16:48.306
366, 1.62956, 0.301398, 98.2807, 0, 0, -0.000976562, -0.0927734, 0.271484, -9.73828, 1.13.2022 15:16:48.314
367, 1.62956, 0.301398, 98.2807, -0.000976562, 0, -0.000976562, -0.0419922, 0.283203, -9.71777, 1.13.2022 15:16:48.322
368, 1.62956, 0.301398, 98.2807, -0.000976562, 0, 0, -0.0292969, 0.277344, -9.77246, 1.13.2022 15:16:48.330
369, 1.62956, 0.301398, 98.2807, 0, -0.000976562, 0, -0.0869141, 0.293945, -9.69531, 1.13.2022 15:16:48.338
370, 1.62956, 0.301398, 98.2807, 0.000976562, -0.000976562, 0, -0.0283203, 0.27832, -9.74219, 1.13.2022 15:16:48.344
371, 1.63485, 0.296823, 98.2807, 0, 0, 0, -0.101562, 0.288086, -9.72168, 1.13.2022 15:16:48.352
372, 1.63485, 0.296823, 98.2807, 0, 0.00195312, 0, -0.0908203, 0.300781, -9.75488, 1.13.2022 15:16:48.360
373, 1.63508, 0.296744, 98.2814, -0.000976562, 0, 0, -0.0351562, 0.261719, -9.73047, 1.13.2022 15:16:48.370
374, 1.63508, 0.296744, 98.2814, 0, -0.000976562, -0.000976562, -0.0996094, 0.293945, -9.7002, 1.13.2022 15:16:48.376
375, 1.63942, 0.302112, 98.2805, 0, 0, -0.000976562, -0.0117188, 0.264648, -9.74707, 1.13.2022 15:16:48.384
376, 1.63942, 0.302112, 98.2805, 0, 0, 0, -0.0566406, 0.256836, -9.73926, 1.13.2022 15:16:48.392
377, 1.63966, 0.302033, 98.2812, -0.000976562, 0, 0, -0.0615234, 0.283203, -9.74316, 1.13.2022 15:16:48.400
378, 1.63966, 0.302033, 98.2812, 0, -0.000976562, 0, -0.0107422, 0.246094, -9.7002, 1.13.2022 15:16:48.408
379, 1.63437, 0.306608, 98.2812, -0.000976562, -0.000976562, 0, -0.103516, 0.265625, -9.68945, 1.13.2022 15:16:48.416
380, 1.63437, 0.306608, 98.2812, 0, -0.000976562, -0.000976562, -0.0605469, 0.279297, -9.69629, 1.13.2022 15:16:48.424
381, 1.63437, 0.306608, 98.2812, -0.000976562, -0.000976562, 0, -0.0214844, 0.259766, -9.73535, 1.13.2022 15:16:48.432
382, 1.63437, 0.306608, 98.2812, -0.000976562, -0.000976562, -0.000976562, -0.125977, 0.297852, -9.74414, 1.13.2022 15:16:48.440
383, 1.63437, 0.306608, 98.2812, -0.000976562, 0, 0, -0.0117188, 0.256836, -9.72852, 1.13.2022 15:16:48.448
384, 1.63894, 0.311897, 98.2811, -0.000976562, -0.000976562, -0.000976562, -0.0683594, 0.292969, -9.72656, 1.13.2022 15:16:48.456
385, 1.63894, 0.311897, 98.2811, 0, 0, -0.000976562, -0.0761719, 0.3125, -9.74512, 1.13.2022 15:16:48.464
386, 1.63871, 0.311976, 98.2804, 0, 0, -0.000976562, -0.00976562, 0.27832, -9.74414, 1.13.2022 15:16:48.472
387, 1.63871, 0.311976, 98.2804, -0.000976562, 0, -0.000976562, -0.113281, 0.290039, -9.71387, 1.13.2022 15:16:48.480
388, 1.63871, 0.311976, 98.2804, 0, 0, -0.000976562, -0.0566406, 0.276367, -9.74121, 1.13.2022 15:16:48.488
389, 1.63871, 0.311976, 98.2804, 0.000976562, 0, -0.000976562, -0.0361328, 0.264648, -9.76074, 1.13.2022 15:16:48.496
390, 1.63871, 0.311976, 98.2804, 0.000976562, 0, -0.000976562, -0.104492, 0.292969, -9.72363, 1.13.2022 15:16:48.504
391, 1.63342, 0.316551, 98.2804, 0, -0.000976562, -0.00195312, -0.0253906, 0.244141, -9.72363, 1.13.2022 15:16:48.512
392, 1.63342, 0.316551, 98.2804, 0, 0, -0.000976562, -0.0800781, 0.280273, -9.71289, 1.13.2022 15:16:48.520
393, 1.63342, 0.316551, 98.2804, 0, 0, -0.000976562, -0.0800781, 0.291992, -9.70508, 1.13.2022 15:16:48.528
394, 1.63342, 0.316551, 98.2804, 0, 0, 0, -0.00292969, 0.274414, -9.77539, 1.13.2022 15:16:48.536
395, 1.63342, 0.316551, 98.2804, 0.000976562, 0, -0.000976562, -0.115234, 0.275391, -9.77832, 1.13.2022 15:16:48.544
396, 1.63342, 0.316551, 98.2804, 0.000976562, 0, 0, -0.0498047, 0.276367, -9.73242, 1.13.2022 15:16:48.552
397, 1.63342, 0.316551, 98.2804, 0, 0.000976562, 0, -0.0332031, 0.256836, -9.7373, 1.13.2022 15:16:48.560
398, 1.63342, 0.316551, 98.2804, 0, 0.000976562, 0, -0.078125, 0.308594, -9.70215, 1.13.2022 15:16:48.568
399, 1.63342, 0.316551, 98.2804, 0, 0.000976562, -0.000976562, -0.00195312, 0.268555, -9.71191, 1.13.2022 15:16:48.576
400, 1.63342, 0.316551, 98.2804, 0.000976562, 0, 0, -0.0732422, 0.282227, -9.70312, 1.13.2022 15:16:48.584
401, 1.63342, 0.316551, 98.2804, 0, 0, 0, -0.0517578, 0.294922, -9.73438, 1.13.2022 15:16:48.592
402, 1.63342, 0.316551, 98.2804, 0.000976562, -0.000976562, 0, -0.0136719, 0.263672, -9.72363, 1.13.2022 15:16:48.600
403, 1.63342, 0.316551, 98.2804, 0, 0, 0, -0.0976562, 0.285156, -9.72852, 1.13.2022 15:16:48.608
404, 1.63342, 0.316551, 98.2804, 0, -0.000976562, 0, -0.0078125, 0.277344, -9.78516, 1.13.2022 15:16:48.616
405, 1.63342, 0.316551, 98.2804, -0.00195312, -0.000976562, 0, -0.03125, 0.28125, -9.75586, 1.13.2022 15:16:48.624
406, 1.63799, 0.321841, 98.2802, -0.00195312, 0, 0, -0.0644531, 0.3125, -9.73828, 1.13.2022 15:16:48.632
407, 1.63799, 0.321841, 98.2802, 0, 0, 0, -0.00976562, 0.28125, -9.75195, 1.13.2022 15:16:48.640
408, 1.63342, 0.316551, 98.2804, -0.00195312, 0, 0, -0.0927734, 0.301758, -9.71875, 1.13.2022 15:16:48.648
409, 1.63823, 0.32176, 98.2809, -0.00195312, -0.000976562, 0, -0.0966797, 0.287109, -9.71484, 1.13.2022 15:16:48.656
410, 1.63823, 0.32176, 98.2809, -0.00195312, 0, -0.000976562, -0.0517578, 0.270508, -9.71582, 1.13.2022 15:16:48.664
411, 1.64328, 0.317266, 98.2802, 0, -0.000976562, -0.000976562, -0.139648, 0.308594, -9.68945, 1.13.2022 15:16:48.672
412, 1.64328, 0.317266, 98.2802, 0, 0, 0, -0.0400391, 0.273438, -9.73438, 1.13.2022 15:16:48.680
413, 1.64352, 0.317185, 98.2809, 0, -0.000976562, 0, -0.0507812, 0.25293, -9.77344, 1.13.2022 15:16:48.688
414, 1.64352, 0.317185, 98.2809, -0.00195312, 0, 0, -0.0996094, 0.302734, -9.74219, 1.13.2022 15:16:48.696
415, 1.64352, 0.317185, 98.2809, 0, 0, 0, -0.0166016, 0.243164, -9.74805, 1.13.2022 15:16:48.704
416, 1.64809, 0.322474, 98.2807, -0.00195312, 0, -0.000976562, -0.0820312, 0.260742, -9.78125, 1.13.2022 15:16:48.712
417, 1.64809, 0.322474, 98.2807, 0, -0.000976562, -0.000976562, -0.0878906, 0.264648, -9.74805, 1.13.2022 15:16:48.720
418, 1.64809, 0.322474, 98.2807, 0, 0, -0.000976562, -0.0214844, 0.264648, -9.74707, 1.13.2022 15:16:48.728
419, 1.64809, 0.322474, 98.2807, 0, -0.000976562, 0, -0.0976562, 0.314453, -9.72559, 1.13.2022 15:16:48.736
420, 1.6428, 0.327049, 98.2807, 0, -0.000976562, 0, -0.0166016, 0.297852, -9.72949, 1.13.2022 15:16:48.744
421, 1.6428, 0.327049, 98.2807, 0, 0, 0, -0.0429688, 0.269531, -9.74219, 1.13.2022 15:16:48.752
422, 1.6428, 0.327049, 98.2807, -0.00195312, 0.000976562, 0, -0.0996094, 0.304688, -9.73535, 1.13.2022 15:16:48.760
423, 1.64738, 0.332338, 98.2806, 0, 0, 0, -0.0214844, 0.254883, -9.73828, 1.13.2022 15:16:48.768
424, 1.64738, 0.332338, 98.2806, 0, 0, -0.000976562, -0.0996094, 0.294922, -9.72656, 1.13.2022 15:16:48.776
425, 1.64738, 0.332338, 98.2806, 0, -0.000976562, -0.000976562, -0.0634766, 0.319336, -9.72852, 1.13.2022 15:16:48.784
426, 1.64738, 0.332338, 98.2806, 0.000976562, -0.000976562, 0, -0.0234375, 0.261719, -9.72852, 1.13.2022 15:16:48.792
427, 1.64738, 0.332338, 98.2806, 0.000976562, 0, 0, -0.111328, 0.271484, -9.72461, 1.13.2022 15:16:48.800
428, 1.64738, 0.332338, 98.2806, 0, -0.000976562, -0.000976562, -0.0234375, 0.245117, -9.75, 1.13.2022 15:16:48.808
429, 1.64738, 0.332338, 98.2806, 0, -0.000976562, 0, -0.0400391, 0.265625, -9.69922, 1.13.2022 15:16:48.816
430, 1.64738, 0.332338, 98.2806, 0, -0.00195312, 0, -0.0712891, 0.288086, -9.71973, 1.13.2022 15:16:48.824
431, 1.64738, 0.332338, 98.2806, 0, -0.000976562, 0, -0.0136719, 0.290039, -9.73047, 1.13.2022 15:16:48.832
432, 1.64738, 0.332338, 98.2806, 0, -0.000976562, 0, -0.109375, 0.304688, -9.71387, 1.13.2022 15:16:48.840
433, 1.65195, 0.337627, 98.2804, 0, 0, -0.000976562, -0.0273438, 0.285156, -9.7041, 1.13.2022 15:16:48.848
434, 1.65195, 0.337627, 98.2804, 0.000976562, -0.000976562, 0, -0.0478516, 0.271484, -9.74902, 1.13.2022 15:16:48.856
435, 1.65195, 0.337627, 98.2804, 0, -0.000976562, -0.000976562, -0.114258, 0.28418, -9.74707, 1.13.2022 15:16:48.864
436, 1.65195, 0.337627, 98.2804, 0, 0, -0.000976562, -0.0117188, 0.25293, -9.76465, 1.13.2022 15:16:48.872
437, 1.65195, 0.337627, 98.2804, 0, 0, 0, -0.0664062, 0.288086, -9.73633, 1.13.2022 15:16:48.880
438, 1.65195, 0.337627, 98.2804, 0, 0, 0, -0.0898438, 0.291992, -9.71484, 1.13.2022 15:16:48.888
439, 1.65195, 0.337627, 98.2804, 0, -0.000976562, -0.000976562, -0.0302734, 0.25, -9.73047, 1.13.2022 15:16:48.896
440, 1.65195, 0.337627, 98.2804, -0.000976562, 0, -0.000976562, -0.0947266, 0.275391, -9.71973, 1.13.2022 15:16:48.905
441, 1.65195, 0.337627, 98.2804, 0, -0.000976562, 0, -0.0380859, 0.288086, -9.73926, 1.13.2022 15:16:48.912
442, 1.65195, 0.337627, 98.2804, 0, 0, 0, -0.03125, 0.254883, -9.74512, 1.13.2022 15:16:48.920
443, 1.65195, 0.337627, 98.2804, 0, 0, 0, -0.0947266, 0.282227, -9.70996, 1.13.2022 15:16:48.928
444, 1.65195, 0.337627, 98.2804, -0.000976562, -0.000976562, -0.000976562, -0.0195312, 0.248047, -9.75195, 1.13.2022 15:16:48.937
445, 1.65195, 0.337627, 98.2804, 0, 0, -0.000976562, -0.0859375, 0.288086, -9.74121, 1.13.2022 15:16:48.944
446, 1.64209, 0.336913, 98.2806, 0, 0.000976562, -0.000976562, -0.0830078, 0.275391, -9.72266, 1.13.2022 15:16:48.952
447, 1.64209, 0.336913, 98.2806, -0.000976562, 0.000976562, -0.000976562, -0.00390625, 0.258789, -9.71484, 1.13.2022 15:16:48.960
448, 1.64209, 0.336913, 98.2806, 0, 0, -0.000976562, -0.0810547, 0.295898, -9.74023, 1.13.2022 15:16:48.969
449, 1.64209, 0.336913, 98.2806, 0, -0.000976562, 0, -0.0351562, 0.27832, -9.7207, 1.13.2022 15:16:48.976
450, 1.64209, 0.336913, 98.2806, 0, -0.000976562, 0.000976562, -0.0380859, 0.264648, -9.75195, 1.13.2022 15:16:48.984
451, 1.64209, 0.336913, 98.2806, 0, -0.000976562, 0, -0.104492, 0.301758, -9.7207, 1.13.2022 15:16:48.992
452, 1.64209, 0.336913, 98.2806, 0, -0.000976562, 0, 0.00195312, 0.266602, -9.75195, 1.13.2022 15:16:49.000
453, 1.64209, 0.336913, 98.2806, 0, -0.000976562, -0.000976562, -0.0742188, 0.289062, -9.77832, 1.13.2022 15:16:49.008
454, 1.64209, 0.336913, 98.2806, -0.000976562, 0, -0.000976562, -0.0546875, 0.280273, -9.71777, 1.13.2022 15:16:49.016
455, 1.64209, 0.336913, 98.2806, -0.000976562, 0, -0.000976562, 0.015625, 0.248047, -9.68164, 1.13.2022 15:16:49.024
456, 1.64209, 0.336913, 98.2806, 0, -0.000976562, 0, -0.0761719, 0.270508, -9.72266, 1.13.2022 15:16:49.032
457, 1.63752, 0.331624, 98.2807, 0, -0.000976562, -0.000976562, -0.00878906, 0.287109, -9.70703, 1.13.2022 15:16:49.040
458, 1.63752, 0.331624, 98.2807, 0, -0.000976562, -0.000976562, -0.0498047, 0.258789, -9.70898, 1.13.2022 15:16:49.048
459, 1.63752, 0.331624, 98.2807, 0, 0, 0, -0.107422, 0.297852, -9.74707, 1.13.2022 15:16:49.056
460, 1.6428, 0.327049, 98.2807, -0.000976562, 0, 0, -0.00878906, 0.261719, -9.73047, 1.13.2022 15:16:49.064
461, 1.6428, 0.327049, 98.2807, -0.000976562, -0.000976562, -0.000976562, -0.0878906, 0.288086, -9.7334, 1.13.2022 15:16:49.072
462, 1.63799, 0.321841, 98.2802, -0.000976562, 0, -0.000976562, -0.078125, 0.294922, -9.72168, 1.13.2022 15:16:49.080
463, 1.63799, 0.321841, 98.2802, -0.000976562, -0.00195312, 0, -0.0263672, 0.25, -9.74707, 1.13.2022 15:16:49.088
464, 1.63799, 0.321841, 98.2802, -0.000976562, 0, -0.000976562, -0.0966797, 0.285156, -9.71484, 1.13.2022 15:16:49.096
465, 1.63799, 0.321841, 98.2802, 0, -0.000976562, -0.000976562, -0.0136719, 0.270508, -9.70508, 1.13.2022 15:16:49.104
466, 1.63799, 0.321841, 98.2802, -0.000976562, -0.000976562, -0.000976562, -0.0517578, 0.275391, -9.70117, 1.13.2022 15:16:49.112
467, 1.63799, 0.321841, 98.2802, 0, 0.000976562, -0.000976562, -0.0878906, 0.271484, -9.73145, 1.13.2022 15:16:49.120
468, 1.63799, 0.321841, 98.2802, 0, 0, -0.000976562, -0.00683594, 0.270508, -9.71387, 1.13.2022 15:16:49.128
469, 1.63799, 0.321841, 98.2802, 0, 0, 0, -0.0615234, 0.271484, -9.72461, 1.13.2022 15:16:49.136
470, 1.63799, 0.321841, 98.2802, -0.000976562, 0, 0, -0.0830078, 0.301758, -9.71875, 1.13.2022 15:16:49.145
471, 1.63342, 0.316551, 98.2804, 0, 0, 0, -0.0498047, 0.271484, -9.74219, 1.13.2022 15:16:49.152
472, 1.63342, 0.316551, 98.2804, 0, 0, 0, -0.0996094, 0.30957, -9.7207, 1.13.2022 15:16:49.160
473, 1.63342, 0.316551, 98.2804, 0, 0, 0, -0.0166016, 0.300781, -9.77441, 1.13.2022 15:16:49.168
474, 1.63342, 0.316551, 98.2804, -0.000976562, 0, 0, -0.0566406, 0.266602, -9.74414, 1.13.2022 15:16:49.176
475, 1.63894, 0.311897, 98.2811, 0, 0.000976562, 0, -0.0859375, 0.295898, -9.77148, 1.13.2022 15:16:49.184
476, 1.63894, 0.311897, 98.2811, 0, -0.000976562, 0, -0.0214844, 0.264648, -9.76172, 1.13.2022 15:16:49.192
477, 1.63894, 0.311897, 98.2811, 0, 0, 0, -0.100586, 0.287109, -9.76855, 1.13.2022 15:16:49.200
478, 1.63894, 0.311897, 98.2811, 0, -0.000976562, 0, -0.0595703, 0.274414, -9.75586, 1.13.2022 15:16:49.208
479, 1.63894, 0.311897, 98.2811, 0, 0, 0, -0.03125, 0.224609, -9.7627, 1.13.2022 15:16:49.216
480, 1.63894, 0.311897, 98.2811, -0.000976562, 0, 0, -0.102539, 0.28125, -9.74805, 1.13.2022 15:16:49.224
481, 1.64352, 0.317185, 98.2809, 0, 0, -0.000976562, -0.0283203, 0.286133, -9.7627, 1.13.2022 15:16:49.232
482, 1.63823, 0.32176, 98.2809, -0.000976562, 0, -0.000976562, -0.0595703, 0.268555, -9.72754, 1.13.2022 15:16:49.240
483, 1.63823, 0.32176, 98.2809, -0.000976562, 0, 0, -0.0927734, 0.288086, -9.73828, 1.13.2022 15:16:49.248
484, 1.63823, 0.32176, 98.2809, -0.000976562, 0, -0.000976562, -0.0136719, 0.256836, -9.73828, 1.13.2022 15:16:49.257
485, 1.63823, 0.32176, 98.2809, -0.000976562, 0, -0.000976562, -0.129883, 0.293945, -9.70215, 1.13.2022 15:16:49.264
486, 1.63823, 0.32176, 98.2809, -0.000976562, 0, -0.000976562, -0.0595703, 0.269531, -9.75391, 1.13.2022 15:16:49.272
487, 1.63823, 0.32176, 98.2809, 0, -0.000976562, 0, -0.0410156, 0.25, -9.75684, 1.13.2022 15:16:49.280
488, 1.63823, 0.32176, 98.2809, 0, -0.000976562, 0, -0.0976562, 0.28418, -9.75488, 1.13.2022 15:16:49.286
489, 1.63823, 0.32176, 98.2809, 0, 0, 0, -0.0263672, 0.291016, -9.74121, 1.13.2022 15:16:49.294
490, 1.63823, 0.32176, 98.2809, -0.000976562, -0.000976562, -0.000976562, -0.0517578, 0.287109, -9.71582, 1.13.2022 15:16:49.302
491, 1.63294, 0.326335, 98.2809, 0, -0.000976562, -0.000976562, -0.0839844, 0.277344, -9.76953, 1.13.2022 15:16:49.310
492, 1.63294, 0.326335, 98.2809, -0.000976562, -0.000976562, -0.00195312, -0.0214844, 0.28125, -9.75098, 1.13.2022 15:16:49.318
493, 1.63752, 0.331624, 98.2807, 0, 0, -0.000976562, -0.0996094, 0.329102, -9.73438, 1.13.2022 15:16:49.326
494, 1.63752, 0.331624, 98.2807, 0, -0.000976562, -0.000976562, -0.0498047, 0.304688, -9.74512, 1.13.2022 15:16:49.334
495, 1.63728, 0.331705, 98.2801, 0, -0.000976562, -0.000976562, -0.0595703, 0.248047, -9.74707, 1.13.2022 15:16:49.342
496, 1.63728, 0.331705, 98.2801, 0, -0.000976562, 0, -0.121094, 0.283203, -9.72656, 1.13.2022 15:16:49.350
497, 1.63728, 0.331705, 98.2801, 0, -0.00195312, -0.000976562, -0.0185547, 0.273438, -9.71582, 1.13.2022 15:16:49.358
498, 1.63728, 0.331705, 98.2801, 0, -0.000976562, -0.000976562, -0.0546875, 0.267578, -9.7627, 1.13.2022 15:16:49.366
499, 1.64185, 0.336994, 98.2799, 0, 0, -0.000976562, -0.0654297, 0.280273, -9.69922, 1.13.2022 15:16:49.374
500, 1.64185, 0.336994, 98.2799, 0, 0, 0, 0, 0.28125, -9.74512, 1.13.2022 15:16:49.382
501, 1.64185, 0.336994, 98.2799, 0, -0.000976562, 0, -0.111328, 0.292969, -9.72852, 1.13.2022 15:16:49.390
502, 1.64185, 0.336994, 98.2799, -0.000976562, -0.000976562, -0.000976562, -0.0498047, 0.291016, -9.74609, 1.13.2022 15:16:49.398
503, 1.64185, 0.336994, 98.2799, 0, 0, 0, -0.0214844, 0.274414, -9.75195, 1.13.2022 15:16:49.406
504, 1.64185, 0.336994, 98.2799, 0, -0.000976562, 0, -0.100586, 0.293945, -9.75488, 1.13.2022 15:16:49.414
505, 1.64209, 0.336913, 98.2806, 0, -0.000976562, 0, -0.0166016, 0.273438, -9.73242, 1.13.2022 15:16:49.422
506, 1.64209, 0.336913, 98.2806, 0, 0, 0, -0.0546875, 0.28125, -9.75293, 1.13.2022 15:16:49.430
507, 1.64209, 0.336913, 98.2806, 0, 0, -0.000976562, -0.0742188, 0.288086, -9.74609, 1.13.2022 15:16:49.438
508, 1.64209, 0.336913, 98.2806, 0, 0, 0, -0.00390625, 0.258789, -9.72656, 1.13.2022 15:16:49.446
509, 1.64209, 0.336913, 98.2806, 0, -0.000976562, -0.000976562, -0.121094, 0.283203, -9.73535, 1.13.2022 15:16:49.454
510, 1.64209, 0.336913, 98.2806, -0.000976562, 0, 0, -0.0439453, 0.282227, -9.70117, 1.13.2022 15:16:49.462
511, 1.64209, 0.336913, 98.2806, -0.000976562, 0, -0.000976562, -0.0400391, 0.259766, -9.74512, 1.13.2022 15:16:49.470
512, 1.64209, 0.336913, 98.2806, 0, -0.000976562, 0, -0.0908203, 0.293945, -9.75488, 1.13.2022 15:16:49.478
513, 1.64209, 0.336913, 98.2806, 0.000976562, 0, 0, -0.00390625, 0.253906, -9.72168, 1.13.2022 15:16:49.486
514, 1.64209, 0.336913, 98.2806, 0, 0, 0, -0.0517578, 0.258789, -9.71387, 1.13.2022 15:16:49.494
515, 1.64209, 0.336913, 98.2806, -0.000976562, 0, -0.000976562, -0.0615234, 0.304688, -9.72852, 1.13.2022 15:16:49.502
516, 1.64209, 0.336913, 98.2806, -0.000976562, 0.000976562, -0.000976562, -0.0380859, 0.25, -9.74219, 1.13.2022 15:16:49.510
517, 1.64209, 0.336913, 98.2806, 0, 0, -0.000976562, -0.100586, 0.25293, -9.77246, 1.13.2022 15:16:49.518
518, 1.64209, 0.336913, 98.2806, -0.000976562, -0.000976562, 0, -0.0576172, 0.257812, -9.77734, 1.13.2022 15:16:49.526
519, 1.64209, 0.336913, 98.2806, 0, 0, 0, -0.0517578, 0.260742, -9.71387, 1.13.2022 15:16:49.534
520, 1.63752, 0.331624, 98.2807, 0.000976562, 0, 0.000976562, -0.0878906, 0.288086, -9.7334, 1.13.2022 15:16:49.542
521, 1.63752, 0.331624, 98.2807, 0, -0.000976562, -0.000976562, 0.0292969, 0.258789, -9.73633, 1.13.2022 15:16:49.550
522, 1.63752, 0.331624, 98.2807, 0, 0, 0, -0.107422, 0.283203, -9.74023, 1.13.2022 15:16:49.558
523, 1.63752, 0.331624, 98.2807, 0, -0.000976562, 0.000976562, -0.0898438, 0.280273, -9.69824, 1.13.2022 15:16:49.566
524, 1.63752, 0.331624, 98.2807, 0, -0.000976562, -0.000976562, -0.0449219, 0.270508, -9.71387, 1.13.2022 15:16:49.574
525, 1.63752, 0.331624, 98.2807, 0, 0, -0.000976562, -0.106445, 0.289062, -9.69531, 1.13.2022 15:16:49.582
526, 1.63752, 0.331624, 98.2807, 0.000976562, 0, -0.000976562, -0.0253906, 0.268555, -9.70898, 1.13.2022 15:16:49.590
527, 1.63223, 0.336199, 98.2808, 0, 0, 0, -0.0546875, 0.267578, -9.75879, 1.13.2022 15:16:49.598
528, 1.63223, 0.336199, 98.2808, -0.000976562, 0, -0.000976562, -0.0683594, 0.292969, -9.72949, 1.13.2022 15:16:49.606
529, 1.63223, 0.336199, 98.2808, -0.000976562, 0, -0.000976562, -0.0332031, 0.259766, -9.74512, 1.13.2022 15:16:49.614
530, 1.63223, 0.336199, 98.2808, -0.000976562, -0.000976562, -0.000976562, -0.106445, 0.260742, -9.70605, 1.13.2022 15:16:49.622
531, 1.63223, 0.336199, 98.2808, -0.000976562, -0.000976562, -0.000976562, -0.0830078, 0.283203, -9.74316, 1.13.2022 15:16:49.630
532, 1.63223, 0.336199, 98.2808, 0, 0, 0, -0.0234375, 0.276367, -9.73242, 1.13.2022 15:16:49.638
533, 1.63223, 0.336199, 98.2808, -0.000976562, 0, 0, -0.109375, 0.288086, -9.71875, 1.13.2022 15:16:49.646
534, 1.63223, 0.336199, 98.2808, 0, -0.000976562, 0, -0.00976562, 0.286133, -9.74219, 1.13.2022 15:16:49.654
535, 1.63223, 0.336199, 98.2808, -0.000976562, -0.000976562, 0, -0.0712891, 0.262695, -9.75391, 1.13.2022 15:16:49.662
536, 1.63223, 0.336199, 98.2808, -0.000976562, 0, 0, -0.0615234, 0.294922, -9.73145, 1.13.2022 15:16:49.670
537, 1.63223, 0.336199, 98.2808, -0.000976562, -0.000976562, -0.000976562, -0.0146484, 0.269531, -9.77051, 1.13.2022 15:16:49.678
538, 1.62694, 0.340774, 98.2808, -0.000976562, -0.000976562, -0.000976562, -0.106445, 0.302734, -9.7334, 1.13.2022 15:16:49.686
539, 1.62694, 0.340774, 98.2808, 0, -0.000976562, -0.000976562, -0.0761719, 0.279297, -9.74609, 1.13.2022 15:16:49.694
540, 1.62694, 0.340774, 98.2808, 0, 0, 0, -0.0117188, 0.254883, -9.75488, 1.13.2022 15:16:49.702
541, 1.62694, 0.340774, 98.2808, 0, 0.000976562, -0.000976562, -0.0712891, 0.293945, -9.76172, 1.13.2022 15:16:49.710
542, 1.62694, 0.340774, 98.2808, -0.000976562, 0, 0, 0.00292969, 0.258789, -9.73633, 1.13.2022 15:16:49.718
543, 1.62694, 0.340774, 98.2808, 0, 0, 0, -0.0478516, 0.260742, -9.77246, 1.13.2022 15:16:49.726
544, 1.63223, 0.336199, 98.2808, -0.000976562, 0, 0, -0.0712891, 0.297852, -9.73828, 1.13.2022 15:16:49.734
545, 1.63223, 0.336199, 98.2808, 0, 0, 0, -0.0195312, 0.25293, -9.75195, 1.13.2022 15:16:49.742
546, 1.63223, 0.336199, 98.2808, 0, -0.000976562, -0.000976562, -0.0761719, 0.273438, -9.71777, 1.13.2022 15:16:49.750
547, 1.63223, 0.336199, 98.2808, 0, -0.000976562, -0.000976562, -0.0654297, 0.280273, -9.70312, 1.13.2022 15:16:49.758
548, 1.63223, 0.336199, 98.2808, 0, -0.00195312, 0, -0.0449219, 0.280273, -9.7041, 1.13.2022 15:16:49.766
549, 1.63223, 0.336199, 98.2808, 0, 0, 0, -0.105469, 0.303711, -9.76855, 1.13.2022 15:16:49.774
550, 1.62765, 0.33091, 98.2809, 0, 0, -0.000976562, -0.0136719, 0.27832, -9.72754, 1.13.2022 15:16:49.782
551, 1.62765, 0.33091, 98.2809, 0, -0.000976562, -0.000976562, -0.0595703, 0.28125, -9.75293, 1.13.2022 15:16:49.790
552, 1.62765, 0.33091, 98.2809, 0, -0.000976562, 0, -0.117188, 0.274414, -9.74512, 1.13.2022 15:16:49.798
553, 1.62765, 0.33091, 98.2809, -0.000976562, -0.000976562, -0.000976562, 0, 0.264648, -9.76855, 1.13.2022 15:16:49.806
554, 1.62765, 0.33091, 98.2809, 0, 0, 0, -0.0976562, 0.283203, -9.72852, 1.13.2022 15:16:49.814
555, 1.62765, 0.33091, 98.2809, -0.000976562, 0, 0, -0.0419922, 0.277344, -9.68555, 1.13.2022 15:16:49.822
556, 1.62765, 0.33091, 98.2809, -0.000976562, -0.000976562, 0, -0.0517578, 0.258789, -9.72754, 1.13.2022 15:16:49.830
557, 1.62765, 0.33091, 98.2809, 0, -0.000976562, 0, -0.106445, 0.279297, -9.68652, 1.13.2022 15:16:49.838
558, 1.63223, 0.336199, 98.2808, 0, -0.000976562, 0, -0.0107422, 0.268555, -9.70898, 1.13.2022 15:16:49.846
559, 1.62765, 0.33091, 98.2809, 0, 0, 0, -0.0332031, 0.28125, -9.74219, 1.13.2022 15:16:49.854
560, 1.62765, 0.33091, 98.2809, -0.000976562, -0.000976562, -0.000976562, -0.0585938, 0.260742, -9.70605, 1.13.2022 15:16:49.862
561, 1.62765, 0.33091, 98.2809, 0, -0.000976562, -0.000976562, -0.0205078, 0.277344, -9.69922, 1.13.2022 15:16:49.870
562, 1.62765, 0.33091, 98.2809, 0, 0, 0, -0.0849609, 0.299805, -9.71484, 1.13.2022 15:16:49.878
563, 1.62765, 0.33091, 98.2809, 0, -0.000976562, 0, -0.0478516, 0.273438, -9.7373, 1.13.2022 15:16:49.886
564, 1.62765, 0.33091, 98.2809, -0.000976562, -0.00195312, 0, -0.0478516, 0.256836, -9.74219, 1.13.2022 15:16:49.894
565, 1.62765, 0.33091, 98.2809, -0.000976562, -0.000976562, 0, -0.0625, 0.291016, -9.75781, 1.13.2022 15:16:49.902
566, 1.62765, 0.33091, 98.2809, 0, -0.000976562, 0, 0.00585938, 0.246094, -9.70801, 1.13.2022 15:16:49.910
567, 1.62765, 0.33091, 98.2809, 0, -0.000976562, 0, -0.0712891, 0.286133, -9.73438, 1.13.2022 15:16:49.918
568, 1.62765, 0.33091, 98.2809, 0, -0.000976562, -0.000976562, -0.0546875, 0.294922, -9.73633, 1.13.2022 15:16:49.926
569, 1.62765, 0.33091, 98.2809, 0, -0.000976562, 0, -0.0214844, 0.286133, -9.7373, 1.13.2022 15:16:49.934
570, 1.62765, 0.33091, 98.2809, 0, -0.000976562, 0, -0.125977, 0.291992, -9.7168, 1.13.2022 15:16:49.942
571, 1.63294, 0.326335, 98.2809, 0, 0, 0, -0.00195312, 0.273438, -9.73535, 1.13.2022 15:16:49.950
572, 1.62837, 0.321047, 98.2811, 0.000976562, -0.000976562, 0, -0.0351562, 0.266602, -9.72559, 1.13.2022 15:16:49.958
573, 1.62837, 0.321047, 98.2811, 0.000976562, 0, -0.000976562, -0.0732422, 0.291992, -9.71289, 1.13.2022 15:16:49.966
574, 1.62837, 0.321047, 98.2811, -0.000976562, 0, 0, 0, 0.255859, -9.7666, 1.13.2022 15:16:49.974
575, 1.62837, 0.321047, 98.2811, 0, 0, 0, -0.0830078, 0.273438, -9.73438, 1.13.2022 15:16:49.982
576, 1.62837, 0.321047, 98.2811, 0, 0, 0, -0.0703125, 0.291016, -9.66992, 1.13.2022 15:16:49.990
577, 1.62837, 0.321047, 98.2811, 0, 0, 0.000976562, -0.03125, 0.261719, -9.74023, 1.13.2022 15:16:49.998
578, 1.63366, 0.316472, 98.2811, -0.000976562, -0.000976562, 0, -0.0869141, 0.296875, -9.7002, 1.13.2022 15:16:50.006
579, 1.62908, 0.311183, 98.2812, -0.000976562, 0, -0.000976562, -0.00878906, 0.258789, -9.70508, 1.13.2022 15:16:50.014
580, 1.62908, 0.311183, 98.2812, -0.000976562, 0, -0.000976562, -0.0761719, 0.262695, -9.75781, 1.13.2022 15:16:50.022
581, 1.62908, 0.311183, 98.2812, 0, -0.000976562, 0, -0.0947266, 0.292969, -9.72168, 1.13.2022 15:16:50.030
582, 1.62908, 0.311183, 98.2812, 0, -0.000976562, 0, 0.00195312, 0.267578, -9.75977, 1.13.2022 15:16:50.038
583, 1.62908, 0.311183, 98.2812, 0, -0.000976562, 0, -0.0908203, 0.276367, -9.74316, 1.13.2022 15:16:50.046
584, 1.62908, 0.311183, 98.2812, 0.000976562, 0, 0, -0.0634766, 0.272461, -9.70801, 1.13.2022 15:16:50.054
585, 1.62908, 0.311183, 98.2812, 0, 0, -0.000976562, -0.0498047, 0.266602, -9.74219, 1.13.2022 15:16:50.062
586, 1.62908, 0.311183, 98.2812, -0.000976562, 0, -0.000976562, -0.0830078, 0.288086, -9.71973, 1.13.2022 15:16:50.070
587, 1.62908, 0.311183, 98.2812, 0, 0, -0.000976562, -0.0214844, 0.283203, -9.73242, 1.13.2022 15:16:50.078
588, 1.62908, 0.311183, 98.2812, -0.000976562, 0, -0.000976562, -0.0810547, 0.27832, -9.73145, 1.13.2022 15:16:50.086
589, 1.62908, 0.311183, 98.2812, -0.000976562, 0, -0.000976562, -0.0683594, 0.311523, -9.71875, 1.13.2022 15:16:50.094
590, 1.62908, 0.311183, 98.2812, -0.000976562, 0.000976562, -0.000976562, -0.00683594, 0.259766, -9.74512, 1.13.2022 15:16:50.102
591, 1.62908, 0.311183, 98.2812, -0.000976562, 0, -0.00195312, -0.0917969, 0.295898, -9.68652, 1.13.2022 15:16:50.110
592, 1.62908, 0.311183, 98.2812, -0.000976562, 0, 0, -0.0595703, 0.248047, -9.74902, 1.13.2022 15:16:50.118
593, 1.62908, 0.311183, 98.2812, 0, -0.000976562, 0, -0.0244141, 0.255859, -9.79004, 1.13.2022 15:16:50.126
594, 1.63437, 0.306608, 98.2812, -0.000976562, 0, 0.000976562, -0.0957031, 0.317383, -9.74902, 1.13.2022 15:16:50.134
595, 1.63437, 0.306608, 98.2812, -0.000976562, 0, 0, -0.0205078, 0.263672, -9.72168, 1.13.2022 15:16:50.142
596, 1.63437, 0.306608, 98.2812, -0.000976562, 0, 0, -0.0595703, 0.292969, -9.75293, 1.13.2022 15:16:50.150
597, 1.63437, 0.306608, 98.2812, 0, 0, 0, -0.0732422, 0.286133, -9.73438, 1.13.2022 15:16:50.158
598, 1.63437, 0.306608, 98.2812, 0, -0.000976562, -0.000976562, -0.0117188, 0.260742, -9.71387, 1.13.2022 15:16:50.166
599, 1.63437, 0.306608, 98.2812, 0, -0.000976562, -0.00195312, -0.0742188, 0.293945, -9.75781, 1.13.2022 15:16:50.174
600, 1.63437, 0.306608, 98.2812, -0.000976562, -0.000976562, -0.000976562, -0.0283203, 0.276367, -9.75098, 1.13.2022 15:16:50.182
601, 1.63437, 0.306608, 98.2812, 0, -0.000976562, 0, -0.0351562, 0.283203, -9.73926, 1.13.2022 15:16:50.190
602, 1.63437, 0.306608, 98.2812, 0, 0, 0, -0.103516, 0.282227, -9.69531, 1.13.2022 15:16:50.198
603, 1.63437, 0.306608, 98.2812, 0, -0.000976562, 0, 0.0117188, 0.28125, -9.75684, 1.13.2022 15:16:50.206
604, 1.63437, 0.306608, 98.2812, -0.000976562, 0, 0, -0.0683594, 0.273438, -9.72949, 1.13.2022 15:16:50.214
605, 1.63437, 0.306608, 98.2812, 0, 0, -0.000976562, -0.0664062, 0.300781, -9.75293, 1.13.2022 15:16:50.222
606, 1.63437, 0.306608, 98.2812, 0, 0, 0, 0.00683594, 0.246094, -9.78809, 1.13.2022 15:16:50.230
607, 1.63437, 0.306608, 98.2812, 0, -0.000976562, -0.000976562, -0.102539, 0.289062, -9.76855, 1.13.2022 15:16:50.238
608, 1.63437, 0.306608, 98.2812, 0, -0.000976562, -0.000976562, -0.0332031, 0.30957, -9.73438, 1.13.2022 15:16:50.246
609, 1.63437, 0.306608, 98.2812, 0, -0.000976562, 0, -0.0546875, 0.256836, -9.7207, 1.13.2022 15:16:50.254
610, 1.63437, 0.306608, 98.2812, -0.000976562, 0, 0, -0.0996094, 0.292969, -9.72168, 1.13.2022 15:16:50.262
611, 1.63966, 0.302033, 98.2812, -0.000976562, -0.00195312, 0, -0.00195312, 0.273438, -9.74512, 1.13.2022 15:16:50.268
612, 1.64423, 0.307322, 98.2811, 0, -0.00195312, 0, -0.046875, 0.290039, -9.73438, 1.13.2022 15:16:50.276
613, 1.64423, 0.307322, 98.2811, 0, -0.000976562, 0, -0.0800781, 0.277344, -9.70312, 1.13.2022 15:16:50.284
614, 1.64423, 0.307322, 98.2811, 0, -0.000976562, 0, -0.0449219, 0.265625, -9.71582, 1.13.2022 15:16:50.292
615, 1.64423, 0.307322, 98.2811, -0.000976562, -0.000976562, -0.000976562, -0.112305, 0.276367, -9.75488, 1.13.2022 15:16:50.300
616, 1.64423, 0.307322, 98.2811, -0.000976562, -0.000976562, 0, -0.0429688, 0.263672, -9.73242, 1.13.2022 15:16:50.308
617, 1.64423, 0.307322, 98.2811, 0, -0.00195312, 0, -0.0732422, 0.263672, -9.71582, 1.13.2022 15:16:50.316
618, 1.64423, 0.307322, 98.2811, 0, 0, 0, -0.0947266, 0.294922, -9.73145, 1.13.2022 15:16:50.324
619, 1.63894, 0.311897, 98.2811, 0, -0.000976562, -0.000976562, 0.00488281, 0.259766, -9.73828, 1.13.2022 15:16:50.332
620, 1.63894, 0.311897, 98.2811, 0, -0.000976562, 0, -0.0830078, 0.27832, -9.73438, 1.13.2022 15:16:50.340
621, 1.63894, 0.311897, 98.2811, 0, -0.000976562, -0.000976562, -0.0615234, 0.273438, -9.73242, 1.13.2022 15:16:50.348
622, 1.63894, 0.311897, 98.2811, 0, -0.000976562, -0.000976562, -0.0302734, 0.244141, -9.70508, 1.13.2022 15:16:50.357
623, 1.63894, 0.311897, 98.2811, 0.000976562, -0.000976562, 0, -0.0996094, 0.259766, -9.73926, 1.13.2022 15:16:50.364
624, 1.63894, 0.311897, 98.2811, 0, 0, -0.000976562, -0.00683594, 0.279297, -9.75195, 1.13.2022 15:16:50.372
625, 1.63894, 0.311897, 98.2811, 0, -0.000976562, -0.000976562, -0.0429688, 0.291016, -9.75293, 1.13.2022 15:16:50.380
626, 1.63366, 0.316472, 98.2811, 0, 0, 0, -0.078125, 0.285156, -9.72168, 1.13.2022 15:16:50.388
627, 1.63366, 0.316472, 98.2811, 0, 0, 0, 0.00292969, 0.24707, -9.73828, 1.13.2022 15:16:50.397
628, 1.63366, 0.316472, 98.2811, 0, -0.000976562, 0, -0.0947266, 0.298828, -9.70703, 1.13.2022 15:16:50.404
629, 1.63366, 0.316472, 98.2811, 0, -0.00195312, -0.000976562, -0.0566406, 0.271484, -9.72949, 1.13.2022 15:16:50.412
630, 1.63342, 0.316551, 98.2804, -0.000976562, -0.000976562, -0.000976562, -0.0537109, 0.248047, -9.68848, 1.13.2022 15:16:50.420
631, 1.63342, 0.316551, 98.2804, -0.000976562, -0.000976562, -0.000976562, -0.126953, 0.272461, -9.77148, 1.13.2022 15:16:50.428
632, 1.63342, 0.316551, 98.2804, -0.000976562, 0, -0.000976562, -0.0351562, 0.276367, -9.73926, 1.13.2022 15:16:50.436
633, 1.63342, 0.316551, 98.2804, 0, 0, 0, -0.0302734, 0.260742, -9.70508, 1.13.2022 15:16:50.444
634, 1.63342, 0.316551, 98.2804, 0, 0, -0.000976562, -0.0634766, 0.268555, -9.72754, 1.13.2022 15:16:50.452
635, 1.63342, 0.316551, 98.2804, 0, 0, -0.000976562, -0.0146484, 0.265625, -9.77344, 1.13.2022 15:16:50.460
636, 1.62813, 0.321126, 98.2804, -0.000976562, -0.000976562, 0, -0.116211, 0.3125, -9.74414, 1.13.2022 15:16:50.468
637, 1.62813, 0.321126, 98.2804, 0, 0, 0, -0.0751953, 0.296875, -9.69824, 1.13.2022 15:16:50.476
638, 1.62813, 0.321126, 98.2804, -0.000976562, 0, 0, -0.0185547, 0.237305, -9.70996, 1.13.2022 15:16:50.484
639, 1.62813, 0.321126, 98.2804, -0.000976562, 0, -0.000976562, -0.113281, 0.301758, -9.71387, 1.13.2022 15:16:50.492
640, 1.62813, 0.321126, 98.2804, 0, -0.000976562, -0.000976562, -0.0263672, 0.248047, -9.75488, 1.13.2022 15:16:50.500
641, 1.62813, 0.321126, 98.2804, 0, 0.00195312, -0.000976562, -0.0351562, 0.290039, -9.73633, 1.13.2022 15:16:50.508
642, 1.62813, 0.321126, 98.2804, 0.000976562, -0.000976562, 0, -0.0761719, 0.30957, -9.72852, 1.13.2022 15:16:50.516
643, 1.62813, 0.321126, 98.2804, 0.000976562, 0, 0, -0.0214844, 0.279297, -9.75391, 1.13.2022 15:16:50.524
644, 1.62813, 0.321126, 98.2804, 0.000976562, 0, 0, -0.0849609, 0.283203, -9.72168, 1.13.2022 15:16:50.532
645, 1.62813, 0.321126, 98.2804, 0.000976562, 0, 0, -0.0546875, 0.268555, -9.72266, 1.13.2022 15:16:50.540
646, 1.62356, 0.315837, 98.2806, 0, 0, -0.000976562, -0.0273438, 0.260742, -9.79395, 1.13.2022 15:16:50.548
647, 1.62356, 0.315837, 98.2806, 0, 0, 0, -0.0927734, 0.293945, -9.75684, 1.13.2022 15:16:50.556
648, 1.62356, 0.315837, 98.2806, 0, 0, 0, -0.00878906, 0.266602, -9.7334, 1.13.2022 15:16:50.564
649, 1.62356, 0.315837, 98.2806, 0, 0, -0.000976562, -0.0517578, 0.265625, -9.71875, 1.13.2022 15:16:50.572
650, 1.62356, 0.315837, 98.2806, -0.000976562, 0, 0, -0.0751953, 0.282227, -9.70996, 1.13.2022 15:16:50.580
651, 1.62356, 0.315837, 98.2806, -0.000976562, 0, 0, -0.0263672, 0.250977, -9.76172, 1.13.2022 15:16:50.588
652, 1.62356, 0.315837, 98.2806, 0, 0, 0, -0.111328, 0.280273, -9.72168, 1.13.2022 15:16:50.596
653, 1.62379, 0.315758, 98.2812, 0, -0.000976562, 0, -0.0449219, 0.283203, -9.71777, 1.13.2022 15:16:50.604
654, 1.62379, 0.315758, 98.2812, 0, -0.000976562, -0.000976562, -0.0361328, 0.262695, -9.75391, 1.13.2022 15:16:50.612
655, 1.62356, 0.315837, 98.2806, 0, 0, -0.000976562, -0.0810547, 0.3125, -9.74023, 1.13.2022 15:16:50.620
656, 1.62356, 0.315837, 98.2806, 0, -0.000976562, -0.000976562, 0.0244141, 0.249023, -9.69922, 1.13.2022 15:16:50.628
657, 1.62356, 0.315837, 98.2806, 0, -0.000976562, -0.000976562, -0.0898438, 0.263672, -9.71582, 1.13.2022 15:16:50.636
658, 1.62356, 0.315837, 98.2806, 0.000976562, -0.000976562, -0.000976562, -0.0712891, 0.291016, -9.7666, 1.13.2022 15:16:50.644
659, 1.62356, 0.315837, 98.2806, 0, -0.000976562, 0, -0.0341797, 0.275391, -9.77734, 1.13.2022 15:16:50.652
660, 1.62356, 0.315837, 98.2806, 0.000976562, -0.000976562, 0, -0.0947266, 0.285156, -9.72656, 1.13.2022 15:16:50.660
661, 1.62356, 0.315837, 98.2806, 0, -0.000976562, 0, -0.0332031, 0.292969, -9.74121, 1.13.2022 15:16:50.668
662, 1.62356, 0.315837, 98.2806, 0, -0.000976562, -0.000976562, -0.0302734, 0.27832, -9.7373, 1.13.2022 15:16:50.676
663, 1.62356, 0.315837, 98.2806, 0.000976562, 0, 0, -0.0859375, 0.276367, -9.73438, 1.13.2022 15:16:50.684
664, 1.62356, 0.315837, 98.2806, 0, 0, 0, -0.0117188, 0.273438, -9.73242, 1.13.2022 15:16:50.692
665, 1.62356, 0.315837, 98.2806, 0, -0.000976562, 0, -0.0771484, 0.289062, -9.77637, 1.13.2022 15:16:50.700
666, 1.62356, 0.315837, 98.2806, 0.000976562, 0, 0, -0.0693359, 0.291016, -9.75, 1.13.2022 15:16:50.708
667, 1.62356, 0.315837, 98.2806, 0, 0, -0.000976562, -0.0234375, 0.265625, -9.7207, 1.13.2022 15:16:50.716
668, 1.62356, 0.315837, 98.2806, 0, 0, -0.000976562, -0.0878906, 0.283203, -9.7168, 1.13.2022 15:16:50.724
669, 1.62356, 0.315837, 98.2806, 0, 0, 0, -0.0332031, 0.279297, -9.77051, 1.13.2022 15:16:50.732
670, 1.62356, 0.315837, 98.2806, 0.000976562, -0.000976562, 0, -0.0546875, 0.262695, -9.76758, 1.13.2022 15:16:50.740
671, 1.62379, 0.315758, 98.2812, 0, 0, 0, -0.108398, 0.280273, -9.79297, 1.13.2022 15:16:50.748
672, 1.62379, 0.315758, 98.2812, 0, -0.000976562, 0, -0.0185547, 0.254883, -9.74512, 1.13.2022 15:16:50.756
673, 1.62379, 0.315758, 98.2812, -0.00195312, -0.000976562, -0.000976562, -0.0644531, 0.276367, -9.74121, 1.13.2022 15:16:50.764
674, 1.62379, 0.315758, 98.2812, 0, -0.000976562, -0.000976562, -0.0712891, 0.273438, -9.73438, 1.13.2022 15:16:50.772
675, 1.62379, 0.315758, 98.2812, 0, -0.000976562, 0, -0.0244141, 0.245117, -9.75488, 1.13.2022 15:16:50.780
676, 1.62379, 0.315758, 98.2812, 0, 0, 0, -0.0927734, 0.271484, -9.74121, 1.13.2022 15:16:50.788
677, 1.62379, 0.315758, 98.2812, -0.00195312, 0, -0.000976562, -0.00878906, 0.272461, -9.70703, 1.13.2022 15:16:50.796
678, 1.62379, 0.315758, 98.2812, -0.00195312, -0.000976562, 0, -0.0664062, 0.276367, -9.75293, 1.13.2022 15:16:50.804
679, 1.62379, 0.315758, 98.2812, -0.00292969, 0, -0.000976562, -0.0585938, 0.306641, -9.70312, 1.13.2022 15:16:50.812
680, 1.62379, 0.315758, 98.2812, 0, 0.000976562, -0.000976562, -0.0361328, 0.269531, -9.75586, 1.13.2022 15:16:50.820
681, 1.62379, 0.315758, 98.2812, 0, 0, 0, -0.0712891, 0.291016, -9.73828, 1.13.2022 15:16:50.828
682, 1.62379, 0.315758, 98.2812, 0, 0, 0, -0.0517578, 0.290039, -9.71484, 1.13.2022 15:16:50.836
683, 1.62379, 0.315758, 98.2812, -0.00195312, -0.000976562, -0.000976562, -0.0351562, 0.27832, -9.73438, 1.13.2022 15:16:50.844
684, 1.62908, 0.311183, 98.2812, 0, -0.000976562, -0.000976562, -0.107422, 0.300781, -9.74512, 1.13.2022 15:16:50.852
685, 1.62884, 0.311262, 98.2806, 0, 0, -0.000976562, -0.0214844, 0.27832, -9.73926, 1.13.2022 15:16:50.860
686, 1.62884, 0.311262, 98.2806, -0.00195312, -0.000976562, 0, -0.0566406, 0.275391, -9.70898, 1.13.2022 15:16:50.868
687, 1.62884, 0.311262, 98.2806, 0, -0.000976562, 0, -0.0751953, 0.31543, -9.68359, 1.13.2022 15:16:50.876
688, 1.63366, 0.316472, 98.2811, 0, 0, 0, -0.0126953, 0.250977, -9.79492, 1.13.2022 15:16:50.884
689, 1.63366, 0.316472, 98.2811, 0, 0, 0.000976562, -0.0976562, 0.317383, -9.74902, 1.13.2022 15:16:50.892
690, 1.63366, 0.316472, 98.2811, 0, -0.000976562, 0, -0.0302734, 0.285156, -9.72559, 1.13.2022 15:16:50.900
691, 1.63366, 0.316472, 98.2811, 0.000976562, 0, -0.000976562, -0.0498047, 0.25, -9.74902, 1.13.2022 15:16:50.908
692, 1.63366, 0.316472, 98.2811, 0.000976562, 0, 0, -0.107422, 0.288086, -9.7334, 1.13.2022 15:16:50.916
693, 1.63366, 0.316472, 98.2811, 0, 0, 0, -0.0332031, 0.286133, -9.75098, 1.13.2022 15:16:50.924
694, 1.63366, 0.316472, 98.2811, -0.00195312, 0, 0, -0.0488281, 0.260742, -9.70215, 1.13.2022 15:16:50.932
695, 1.63366, 0.316472, 98.2811, 0.000976562, 0, -0.000976562, -0.0634766, 0.299805, -9.72656, 1.13.2022 15:16:50.940
696, 1.63366, 0.316472, 98.2811, 0, 0, 0, -0.0146484, 0.267578, -9.76562, 1.13.2022 15:16:50.948
697, 1.63894, 0.311897, 98.2811, 0, 0, 0, -0.0927734, 0.28125, -9.74805, 1.13.2022 15:16:50.956
698, 1.63894, 0.311897, 98.2811, 0, -0.000976562, 0, -0.0332031, 0.274414, -9.76562, 1.13.2022 15:16:50.964
699, 1.63894, 0.311897, 98.2811, -0.00195312, -0.000976562, 0, -0.0400391, 0.224609, -9.70117, 1.13.2022 15:16:50.972
700, 1.63894, 0.311897, 98.2811, -0.00195312, 0, 0, -0.101562, 0.308594, -9.7041, 1.13.2022 15:16:50.980
701, 1.64352, 0.317185, 98.2809, 0, -0.000976562, 0, -0.0351562, 0.291016, -9.74609, 1.13.2022 15:16:50.988
702, 1.64352, 0.317185, 98.2809, 0, 0, -0.000976562, -0.0693359, 0.267578, -9.76953, 1.13.2022 15:16:50.996
703, 1.64352, 0.317185, 98.2809, -0.00195312, 0, 0, -0.0576172, 0.271484, -9.74902, 1.13.2022 15:16:51.004
704, 1.64352, 0.317185, 98.2809, 0, 0, -0.000976562, -0.0400391, 0.240234, -9.74316, 1.13.2022 15:16:51.012
705, 1.64352, 0.317185, 98.2809, -0.00195312, -0.000976562, -0.000976562, -0.0957031, 0.269531, -9.75098, 1.13.2022 15:16:51.020
706, 1.64352, 0.317185, 98.2809, 0, -0.000976562, -0.000976562, -0.00976562, 0.28125, -9.75586, 1.13.2022 15:16:51.028
707, 1.64352, 0.317185, 98.2809, 0, 0, 0, -0.0380859, 0.266602, -9.72754, 1.13.2022 15:16:51.036
708, 1.64352, 0.317185, 98.2809, 0, 0, 0, -0.0996094, 0.290039, -9.7334, 1.13.2022 15:16:51.044
709, 1.63894, 0.311897, 98.2811, 0, -0.000976562, 0, -0.0078125, 0.277344, -9.77051, 1.13.2022 15:16:51.052
710, 1.63366, 0.316472, 98.2811, -0.00195312, -0.000976562, 0, -0.0566406, 0.256836, -9.72559, 1.13.2022 15:16:51.060
711, 1.63366, 0.316472, 98.2811, 0, -0.000976562, -0.000976562, -0.0761719, 0.289062, -9.75293, 1.13.2022 15:16:51.068
712, 1.63366, 0.316472, 98.2811, 0, -0.000976562, -0.000976562, -0.00976562, 0.288086, -9.73926, 1.13.2022 15:16:51.076
713, 1.63366, 0.316472, 98.2811, 0, 0, 0, -0.106445, 0.287109, -9.70996, 1.13.2022 15:16:51.084
714, 1.63366, 0.316472, 98.2811, 0, -0.000976562, 0, -0.0380859, 0.271484, -9.73535, 1.13.2022 15:16:51.092
715, 1.63366, 0.316472, 98.2811, 0, -0.000976562, 0, -0.0214844, 0.279297, -9.75195, 1.13.2022 15:16:51.100
716, 1.63366, 0.316472, 98.2811, 0, -0.00195312, -0.000976562, -0.0742188, 0.287109, -9.77441, 1.13.2022 15:16:51.108
717, 1.63366, 0.316472, 98.2811, 0, -0.000976562, -0.000976562, -0.0146484, 0.261719, -9.74512, 1.13.2022 15:16:51.116
718, 1.63366, 0.316472, 98.2811, 0, 0, 0, -0.0898438, 0.276367, -9.73633, 1.13.2022 15:16:51.124
719, 1.63366, 0.316472, 98.2811, 0, 0, 0, -0.0566406, 0.293945, -9.70117, 1.13.2022 15:16:51.132
720, 1.63366, 0.316472, 98.2811, -0.00195312, 0, -0.000976562, 0.00585938, 0.270508, -9.69531, 1.13.2022 15:16:51.140
721, 1.63366, 0.316472, 98.2811, 0, 0, -0.000976562, -0.0849609, 0.28418, -9.67969, 1.13.2022 15:16:51.148
722, 1.63366, 0.316472, 98.2811, 0, -0.000976562, -0.000976562, -0.0253906, 0.277344, -9.70703, 1.13.2022 15:16:51.156
723, 1.63366, 0.316472, 98.2811, 0, -0.000976562, -0.000976562, -0.0546875, 0.271484, -9.74902, 1.13.2022 15:16:51.164
724, 1.63894, 0.311897, 98.2811, 0, 0, 0, -0.0976562, 0.299805, -9.73047, 1.13.2022 15:16:51.172
725, 1.63894, 0.311897, 98.2811, 0, 0, 0.000976562, -0.0185547, 0.27832, -9.73535, 1.13.2022 15:16:51.180
726, 1.63894, 0.311897, 98.2811, 0.000976562, -0.000976562, 0, -0.0878906, 0.307617, -9.75195, 1.13.2022 15:16:51.188
727, 1.63894, 0.311897, 98.2811, 0, 0, 0, -0.078125, 0.314453, -9.74219, 1.13.2022 15:16:51.196
728, 1.63894, 0.311897, 98.2811, -0.00195312, 0, 0, 0, 0.269531, -9.75879, 1.13.2022 15:16:51.204
729, 1.63894, 0.311897, 98.2811, -0.000976562, -0.000976562, 0, -0.0830078, 0.27832, -9.71777, 1.13.2022 15:16:51.212
730, 1.63894, 0.311897, 98.2811, 0, -0.000976562, 0, -0.0195312, 0.269531, -9.75879, 1.13.2022 15:16:51.220
731, 1.63894, 0.311897, 98.2811, 0, 0, 0, -0.0302734, 0.265625, -9.7207, 1.13.2022 15:16:51.228
732, 1.64423, 0.307322, 98.2811, -0.000976562, -0.000976562, -0.000976562, -0.0712891, 0.306641, -9.71875, 1.13.2022 15:16:51.235
733, 1.64423, 0.307322, 98.2811, 0, -0.000976562, -0.000976562, -0.00683594, 0.266602, -9.74023, 1.13.2022 15:16:51.242
734, 1.64423, 0.307322, 98.2811, -0.000976562, -0.000976562, -0.000976562, -0.0976562, 0.273438, -9.7334, 1.13.2022 15:16:51.250
735, 1.64423, 0.307322, 98.2811, -0.000976562, -0.000976562, 0, -0.0664062, 0.275391, -9.71094, 1.13.2022 15:16:51.258
736, 1.64423, 0.307322, 98.2811, 0, -0.000976562, -0.000976562, -0.0195312, 0.257812, -9.75195, 1.13.2022 15:16:51.266
737, 1.64423, 0.307322, 98.2811, 0, -0.000976562, 0, -0.102539, 0.324219, -9.7373, 1.13.2022 15:16:51.274
738, 1.64423, 0.307322, 98.2811, 0, -0.000976562, 0, -0.0234375, 0.27832, -9.71875, 1.13.2022 15:16:51.282
739, 1.64423, 0.307322, 98.2811, 0, -0.000976562, -0.000976562, -0.0664062, 0.288086, -9.72461, 1.13.2022 15:16:51.290
740, 1.64423, 0.307322, 98.2811, 0, -0.000976562, -0.000976562, -0.0888672, 0.267578, -9.76953, 1.13.2022 15:16:51.298
741, 1.64423, 0.307322, 98.2811, 0, -0.000976562, 0, -0.00683594, 0.273438, -9.74023, 1.13.2022 15:16:51.306
742, 1.64423, 0.307322, 98.2811, 0, -0.000976562, 0, -0.113281, 0.298828, -9.69043, 1.13.2022 15:16:51.314
743, 1.64423, 0.307322, 98.2811, 0, 0, 0, -0.0429688, 0.273438, -9.74219, 1.13.2022 15:16:51.322
744, 1.64423, 0.307322, 98.2811, 0, -0.000976562, 0, -0.0253906, 0.266602, -9.72559, 1.13.2022 15:16:51.330
745, 1.64881, 0.31261, 98.2809, 0, 0, 0.000976562, -0.078125, 0.295898, -9.74023, 1.13.2022 15:16:51.338
746, 1.64423, 0.307322, 98.2811, 0.000976562, 0, 0, -0.00878906, 0.253906, -9.72656, 1.13.2022 15:16:51.346
747, 1.64423, 0.307322, 98.2811, 0, -0.000976562, 0, -0.0517578, 0.277344, -9.70117, 1.13.2022 15:16:51.354
748, 1.64423, 0.307322, 98.2811, 0, -0.000976562, -0.000976562, -0.0664062, 0.276367, -9.74414, 1.13.2022 15:16:51.362
749, 1.64423, 0.307322, 98.2811, 0, 0, -0.000976562, -0.0263672, 0.266602, -9.74023, 1.13.2022 15:16:51.370
750, 1.64423, 0.307322, 98.2811, 0, 0, -0.000976562, -0.109375, 0.295898, -9.74219, 1.13.2022 15:16:51.378
751, 1.64423, 0.307322, 98.2811, 0, 0, 0.000976562, -0.0693359, 0.300781, -9.77148, 1.13.2022 15:16:51.386
752, 1.64423, 0.307322, 98.2811, 0, -0.000976562, 0.000976562, -0.0683594, 0.266602, -9.7207, 1.13.2022 15:16:51.394
753, 1.64423, 0.307322, 98.2811, 0, 0, -0.000976562, -0.0947266, 0.285156, -9.70508, 1.13.2022 15:16:51.402
754, 1.64881, 0.31261, 98.2809, -0.000976562, 0, 0, -0.0185547, 0.285156, -9.71387, 1.13.2022 15:16:51.410
755, 1.64881, 0.31261, 98.2809, 0, 0, 0, -0.0634766, 0.296875, -9.71484, 1.13.2022 15:16:51.418
756, 1.64881, 0.31261, 98.2809, -0.000976562, 0.000976562, -0.000976562, -0.0830078, 0.285156, -9.7168, 1.13.2022 15:16:51.426
757, 1.64881, 0.31261, 98.2809, 0, 0.000976562, 0, -0.0136719, 0.258789, -9.70215, 1.13.2022 15:16:51.434
758, 1.64881, 0.31261, 98.2809, 0, 0, 0, -0.125977, 0.256836, -9.71484, 1.13.2022 15:16:51.442
759, 1.64881, 0.31261, 98.2809, 0, 0, 0, -0.0546875, 0.288086, -9.75098, 1.13.2022 15:16:51.450
760, 1.64881, 0.31261, 98.2809, 0, 0, 0, -0.0371094, 0.263672, -9.70703, 1.13.2022 15:16:51.458
761, 1.64881, 0.31261, 98.2809, 0, 0, 0.000976562, -0.118164, 0.303711, -9.69922, 1.13.2022 15:16:51.466
762, 1.64881, 0.31261, 98.2809, 0, 0, 0, 0.00976562, 0.25, -9.73828, 1.13.2022 15:16:51.474
763, 1.64862, 0.312547, 98.2711, 0, 0, 0, -0.0644531, 0.271484, -9.73242, 1.13.2022 15:16:51.482
764, 1.64862, 0.312547, 98.2711, 0, 0, 0, -0.078125, 0.291016, -9.73828, 1.13.2022 15:16:51.490
765, 1.64862, 0.312547, 98.2711, 0, -0.000976562, 0, -0.00585938, 0.277344, -9.68848, 1.13.2022 15:16:51.498
766, 1.64334, 0.317122, 98.2711, 0.000976562, 0, -0.000976562, -0.078125, 0.277344, -9.70801, 1.13.2022 15:16:51.506
767, 1.64352, 0.317185, 98.2809, -0.000976562, 0, -0.000976562, -0.0302734, 0.265625, -9.71875, 1.13.2022 15:16:51.514
768, 1.64352, 0.317185, 98.2809, 0, 0, 0, -0.0566406, 0.292969, -9.74316, 1.13.2022 15:16:51.522
769, 1.64809, 0.322474, 98.2807, 0, -0.000976562, 0, -0.102539, 0.310547, -9.75684, 1.13.2022 15:16:51.530
770, 1.64809, 0.322474, 98.2807, 0, -0.000976562, -0.000976562, -0.0234375, 0.27832, -9.73242, 1.13.2022 15:16:51.538
771, 1.64809, 0.322474, 98.2807, 0.000976562, 0, -0.000976562, -0.0664062, 0.283203, -9.74121, 1.13.2022 15:16:51.546
772, 1.64809, 0.322474, 98.2807, 0, 0.000976562, -0.000976562, -0.0546875, 0.302734, -9.75488, 1.13.2022 15:16:51.554
773, 1.64809, 0.322474, 98.2807, -0.000976562, 0, -0.000976562, -0.0283203, 0.275391, -9.7207, 1.13.2022 15:16:51.562
774, 1.64809, 0.322474, 98.2807, 0, 0, 0, -0.119141, 0.297852, -9.74902, 1.13.2022 15:16:51.570
775, 1.64809, 0.322474, 98.2807, 0, 0, 0, -0.0615234, 0.266602, -9.7207, 1.13.2022 15:16:51.578
776, 1.64809, 0.322474, 98.2807, 0.000976562, -0.000976562, 0, -0.0615234, 0.261719, -9.73242, 1.13.2022 15:16:51.586
777, 1.64809, 0.322474, 98.2807, 0, 0, -0.000976562, -0.0947266, 0.279297, -9.74316, 1.13.2022 15:16:51.594
778, 1.64809, 0.322474, 98.2807, 0, -0.000976562, 0, -0.0253906, 0.280273, -9.71875, 1.13.2022 15:16:51.602
779, 1.64809, 0.322474, 98.2807, 0, -0.00195312, 0, -0.0810547, 0.289062, -9.77637, 1.13.2022 15:16:51.610
780, 1.64809, 0.322474, 98.2807, 0, -0.000976562, 0, -0.0703125, 0.285156, -9.70605, 1.13.2022 15:16:51.618
781, 1.65267, 0.327763, 98.2805, 0, 0, -0.000976562, -0.0146484, 0.228516, -9.75977, 1.13.2022 15:16:51.626
782, 1.65267, 0.327763, 98.2805, 0, -0.000976562, 0, -0.103516, 0.289062, -9.67676, 1.13.2022 15:16:51.634
783, 1.65267, 0.327763, 98.2805, 0, 0, 0, -0.0253906, 0.253906, -9.71191, 1.13.2022 15:16:51.642
784, 1.64738, 0.332338, 98.2806, 0, -0.000976562, -0.000976562, -0.0185547, 0.242188, -9.72656, 1.13.2022 15:16:51.650
785, 1.64738, 0.332338, 98.2806, 0, 0, -0.000976562, -0.0751953, 0.287109, -9.70508, 1.13.2022 15:16:51.658
786, 1.64738, 0.332338, 98.2806, 0, 0, -0.000976562, -0.00292969, 0.269531, -9.75684, 1.13.2022 15:16:51.666
787, 1.64738, 0.332338, 98.2806, -0.000976562, 0, -0.000976562, -0.0908203, 0.280273, -9.78613, 1.13.2022 15:16:51.674
788, 1.6428, 0.327049, 98.2807, 0, -0.000976562, -0.000976562, -0.0585938, 0.293945, -9.70312, 1.13.2022 15:16:51.682
789, 1.6428, 0.327049, 98.2807, -0.000976562, -0.000976562, -0.000976562, -0.0214844, 0.256836, -9.73047, 1.13.2022 15:16:51.690
790, 1.6428, 0.327049, 98.2807, -0.00195312, 0, 0, -0.103516, 0.293945, -9.7002, 1.13.2022 15:16:51.698
791, 1.6428, 0.327049, 98.2807, -0.000976562, 0, -0.000976562, 0.00976562, 0.256836, -9.72461, 1.13.2022 15:16:51.706
792, 1.6428, 0.327049, 98.2807, -0.000976562, 0, -0.000976562, -0.0605469, 0.279297, -9.69629, 1.13.2022 15:16:51.714
793, 1.64256, 0.32713, 98.2801, -0.000976562, 0, -0.000976562, -0.0693359, 0.308594, -9.76855, 1.13.2022 15:16:51.722
794, 1.64256, 0.32713, 98.2801, 0, 0, 0, -0.00976562, 0.276367, -9.75684, 1.13.2022 15:16:51.730
795, 1.64256, 0.32713, 98.2801, -0.00195312, -0.000976562, -0.000976562, -0.107422, 0.30957, -9.73535, 1.13.2022 15:16:51.738
796, 1.64256, 0.32713, 98.2801, 0, -0.000976562, 0, -0.0595703, 0.282227, -9.76758, 1.13.2022 15:16:51.746
797, 1.64256, 0.32713, 98.2801, -0.00195312, -0.000976562, 0, -0.0253906, 0.286133, -9.6875, 1.13.2022 15:16:51.754
798, 1.64256, 0.32713, 98.2801, -0.000976562, -0.000976562, -0.000976562, -0.0996094, 0.27832, -9.71973, 1.13.2022 15:16:51.762
799, 1.64256, 0.32713, 98.2801, -0.000976562, 0, -0.000976562, -0.0107422, 0.260742, -9.7002, 1.13.2022 15:16:51.770
800, 1.64256, 0.32713, 98.2801, -0.00195312, -0.000976562, 0, -0.0488281, 0.250977, -9.69238, 1.13.2022 15:16:51.778
801, 1.64256, 0.32713, 98.2801, -0.000976562, -0.000976562, -0.000976562, -0.0566406, 0.285156, -9.72949, 1.13.2022 15:16:51.786
802, 1.64256, 0.32713, 98.2801, 0, -0.000976562, 0, -0.00292969, 0.272461, -9.7666, 1.13.2022 15:16:51.794
803, 1.63799, 0.321841, 98.2802, -0.000976562, 0, -0.000976562, -0.128906, 0.277344, -9.78027, 1.13.2022 15:16:51.802
804, 1.63799, 0.321841, 98.2802, -0.000976562, 0, -0.000976562, -0.0732422, 0.264648, -9.7373, 1.13.2022 15:16:51.810
805, 1.63799, 0.321841, 98.2802, -0.00195312, -0.000976562, -0.000976562, -0.03125, 0.271484, -9.74219, 1.13.2022 15:16:51.818
806, 1.63799, 0.321841, 98.2802, -0.000976562, -0.000976562, -0.000976562, -0.0947266, 0.268555, -9.72949, 1.13.2022 15:16:51.826
807, 1.63799, 0.321841, 98.2802, -0.000976562, -0.000976562, -0.000976562, 0.0146484, 0.260742, -9.70996, 1.13.2022 15:16:51.834
808, 1.63799, 0.321841, 98.2802, -0.00195312, 0, 0, -0.0654297, 0.265625, -9.70117, 1.13.2022 15:16:51.842
809, 1.63799, 0.321841, 98.2802, -0.00195312, -0.000976562, 0, -0.0566406, 0.280273, -9.71582, 1.13.2022 15:16:51.850
810, 1.63799, 0.321841, 98.2802, -0.00195312, -0.000976562, 0.000976562, 0, 0.268555, -9.72656, 1.13.2022 15:16:51.858
811, 1.63799, 0.321841, 98.2802, -0.000976562, -0.000976562, -0.000976562, -0.0947266, 0.324219, -9.74414, 1.13.2022 15:16:51.866
812, 1.63799, 0.321841, 98.2802, -0.000976562, -0.000976562, -0.000976562, -0.0615234, 0.294922, -9.73145, 1.13.2022 15:16:51.874
813, 1.63799, 0.321841, 98.2802, -0.00195312, 0, 0, -0.0371094, 0.275391, -9.71777, 1.13.2022 15:16:51.882
814, 1.64328, 0.317266, 98.2802, -0.00195312, 0, 0, -0.078125, 0.292969, -9.72852, 1.13.2022 15:16:51.890
815, 1.64328, 0.317266, 98.2802, -0.00195312, 0.000976562, -0.000976562, -0.0292969, 0.248047, -9.76172, 1.13.2022 15:16:51.898
816, 1.64328, 0.317266, 98.2802, 0, 0.000976562, 0, -0.0537109, 0.285156, -9.70117, 1.13.2022 15:16:51.906
817, 1.64328, 0.317266, 98.2802, -0.00195312, -0.000976562, -0.000976562, -0.0595703, 0.294922, -9.73438, 1.13.2022 15:16:51.914
818, 1.64328, 0.317266, 98.2802, -0.000976562, -0.000976562, -0.000976562, -0.0107422, 0.280273, -9.70215, 1.13.2022 15:16:51.922
819, 1.64328, 0.317266, 98.2802, -0.000976562, -0.000976562, -0.000976562, -0.0810547, 0.283203, -9.73145, 1.13.2022 15:16:51.930
820, 1.64328, 0.317266, 98.2802, -0.000976562, -0.000976562, -0.000976562, -0.0283203, 0.256836, -9.72168, 1.13.2022 15:16:51.938
821, 1.63871, 0.311976, 98.2804, 0, -0.000976562, 0, -0.0429688, 0.262695, -9.76367, 1.13.2022 15:16:51.946
822, 1.63871, 0.311976, 98.2804, -0.000976562, -0.000976562, 0, -0.0664062, 0.286133, -9.75293, 1.13.2022 15:16:51.954
823, 1.63871, 0.311976, 98.2804, -0.000976562, 0, 0, -0.00390625, 0.272461, -9.70508, 1.13.2022 15:16:51.962
824, 1.63871, 0.311976, 98.2804, 0, 0, 0, -0.0664062, 0.27832, -9.72754, 1.13.2022 15:16:51.970
825, 1.64399, 0.307401, 98.2804, -0.000976562, -0.000976562, -0.000976562, -0.0751953, 0.300781, -9.68848, 1.13.2022 15:16:51.978
826, 1.64399, 0.307401, 98.2804, -0.000976562, -0.00195312, -0.000976562, -0.0214844, 0.266602, -9.72559, 1.13.2022 15:16:51.986
827, 1.64399, 0.307401, 98.2804, 0, -0.000976562, 0, -0.0917969, 0.289062, -9.69531, 1.13.2022 15:16:51.994
828, 1.64399, 0.307401, 98.2804, -0.000976562, -0.000976562, -0.000976562, -0.0566406, 0.27832, -9.71777, 1.13.2022 15:16:52.002
829, 1.64399, 0.307401, 98.2804, 0, 0, 0, -0.0566406, 0.268555, -9.72559, 1.13.2022 15:16:52.010
830, 1.64399, 0.307401, 98.2804, 0, 0, 0, -0.0751953, 0.298828, -9.70508, 1.13.2022 15:16:52.018
831, 1.64399, 0.307401, 98.2804, -0.000976562, 0, 0, -0.00683594, 0.255859, -9.70996, 1.13.2022 15:16:52.026
832, 1.64399, 0.307401, 98.2804, 0, 0, 0, -0.0927734, 0.259766, -9.75293, 1.13.2022 15:16:52.034
833, 1.64399, 0.307401, 98.2804, 0, -0.000976562, -0.000976562, -0.0615234, 0.262695, -9.69727, 1.13.2022 15:16:52.042
834, 1.64399, 0.307401, 98.2804, 0, -0.000976562, 0, -0.0400391, 0.245117, -9.74512, 1.13.2022 15:16:52.050
835, 1.63942, 0.302112, 98.2805, 0.000976562, 0, -0.000976562, -0.104492, 0.268555, -9.70801, 1.13.2022 15:16:52.058
836, 1.63942, 0.302112, 98.2805, 0, -0.000976562, -0.000976562, -0.0126953, 0.272461, -9.68066, 1.13.2022 15:16:52.066
837, 1.63942, 0.302112, 98.2805, -0.000976562, -0.000976562, -0.000976562, -0.0498047, 0.257812, -9.75879, 1.13.2022 15:16:52.074
838, 1.63413, 0.306687, 98.2806, 0, -0.000976562, -0.000976562, -0.0839844, 0.272461, -9.77441, 1.13.2022 15:16:52.082
839, 1.63413, 0.306687, 98.2806, 0, -0.000976562, 0, 0.00488281, 0.286133, -9.75879, 1.13.2022 15:16:52.090
840, 1.63413, 0.306687, 98.2806, 0, 0, -0.000976562, -0.0976562, 0.283203, -9.74316, 1.13.2022 15:16:52.098
841, 1.63413, 0.306687, 98.2806, -0.000976562, 0, -0.000976562, -0.0527344, 0.305664, -9.75293, 1.13.2022 15:16:52.106
842, 1.63413, 0.306687, 98.2806, -0.00195312, -0.000976562, 0, -0.0449219, 0.253906, -9.71875, 1.13.2022 15:16:52.114
843, 1.63413, 0.306687, 98.2806, 0, -0.000976562, 0, -0.0761719, 0.316406, -9.7334, 1.13.2022 15:16:52.122
844, 1.63413, 0.306687, 98.2806, 0, 0, -0.00195312, -0.0117188, 0.301758, -9.7207, 1.13.2022 15:16:52.130
845, 1.63413, 0.306687, 98.2806, 0.000976562, 0, -0.000976562, -0.0595703, 0.283203, -9.74121, 1.13.2022 15:16:52.138
846, 1.63413, 0.306687, 98.2806, 0, -0.000976562, 0, -0.0615234, 0.285156, -9.72461, 1.13.2022 15:16:52.146
847, 1.63413, 0.306687, 98.2806, 0, -0.000976562, 0, -0.0195312, 0.238281, -9.75488, 1.13.2022 15:16:52.154
848, 1.63413, 0.306687, 98.2806, 0, -0.000976562, -0.000976562, -0.0878906, 0.282227, -9.70801, 1.13.2022 15:16:52.162
849, 1.63413, 0.306687, 98.2806, 0, -0.000976562, -0.000976562, -0.0498047, 0.280273, -9.71094, 1.13.2022 15:16:52.170
850, 1.63413, 0.306687, 98.2806, 0, -0.000976562, -0.000976562, -0.0517578, 0.263672, -9.71875, 1.13.2022 15:16:52.178
851, 1.63413, 0.306687, 98.2806, 0, -0.000976562, 0, -0.103516, 0.28418, -9.68652, 1.13.2022 15:16:52.186
852, 1.63413, 0.306687, 98.2806, 0, 0, 0, 0.00488281, 0.258789, -9.73145, 1.13.2022 15:16:52.192
853, 1.63413, 0.306687, 98.2806, -0.000976562, 0, -0.000976562, -0.0712891, 0.244141, -9.71582, 1.13.2022 15:16:52.202
854, 1.63413, 0.306687, 98.2806, -0.000976562, -0.000976562, 0, -0.0712891, 0.266602, -9.73438, 1.13.2022 15:16:52.208
855, 1.63413, 0.306687, 98.2806, -0.000976562, 0, 0, -0.00683594, 0.271484, -9.73047, 1.13.2022 15:16:52.216
856, 1.63413, 0.306687, 98.2806, -0.000976562, 0, 0, -0.0849609, 0.301758, -9.71484, 1.13.2022 15:16:52.224
857, 1.63413, 0.306687, 98.2806, -0.000976562, -0.000976562, -0.000976562, -0.0244141, 0.262695, -9.76172, 1.13.2022 15:16:52.232
858, 1.63413, 0.306687, 98.2806, -0.000976562, -0.000976562, 0, -0.0332031, 0.235352, -9.75, 1.13.2022 15:16:52.240
859, 1.62884, 0.311262, 98.2806, 0.000976562, 0, -0.000976562, -0.0976562, 0.261719, -9.71777, 1.13.2022 15:16:52.248
860, 1.62884, 0.311262, 98.2806, 0, -0.000976562, -0.000976562, -0.00195312, 0.249023, -9.69824, 1.13.2022 15:16:52.256
861, 1.62427, 0.305973, 98.2807, 0.000976562, -0.000976562, 0, -0.0712891, 0.253906, -9.71582, 1.13.2022 15:16:52.264
862, 1.62427, 0.305973, 98.2807, 0, -0.000976562, -0.000976562, -0.0712891, 0.274414, -9.75781, 1.13.2022 15:16:52.272
863, 1.62427, 0.305973, 98.2807, 0, 0, -0.000976562, -0.0380859, 0.262695, -9.75391, 1.13.2022 15:16:52.280
864, 1.62427, 0.305973, 98.2807, 0, 0, -0.000976562, -0.104492, 0.264648, -9.75098, 1.13.2022 15:16:52.288
865, 1.62427, 0.305973, 98.2807, 0, -0.000976562, 0, -0.0302734, 0.27832, -9.7207, 1.13.2022 15:16:52.296
866, 1.61441, 0.305259, 98.2809, 0, 0, 0, -0.0234375, 0.237305, -9.70801, 1.13.2022 15:16:52.304
867, 1.61441, 0.305259, 98.2809, -0.000976562, -0.000976562, 0, -0.0849609, 0.296875, -9.7168, 1.13.2022 15:16:52.312
868, 1.61441, 0.305259, 98.2809, 0, 0, -0.000976562, -0.046875, 0.280273, -9.72754, 1.13.2022 15:16:52.320
869, 1.61441, 0.305259, 98.2809, 0, 0, 0, -0.0947266, 0.275391, -9.71777, 1.13.2022 15:16:52.328
870, 1.61441, 0.305259, 98.2809, 0, -0.000976562, -0.000976562, -0.0498047, 0.285156, -9.71582, 1.13.2022 15:16:52.336
871, 1.61441, 0.305259, 98.2809, -0.000976562, 0, -0.000976562, -0.00976562, 0.228516, -9.73926, 1.13.2022 15:16:52.344
872, 1.60912, 0.309834, 98.2809, -0.000976562, -0.000976562, -0.000976562, -0.107422, 0.286133, -9.75684, 1.13.2022 15:16:52.352
873, 1.60912, 0.309834, 98.2809, 0, 0, 0, -0.0283203, 0.285156, -9.71777, 1.13.2022 15:16:52.360
874, 1.60912, 0.309834, 98.2809, 0, 0, -0.000976562, -0.0664062, 0.297852, -9.75488, 1.13.2022 15:16:52.368
875, 1.60912, 0.309834, 98.2809, -0.000976562, 0, -0.000976562, -0.0761719, 0.30957, -9.72168, 1.13.2022 15:16:52.376
876, 1.60912, 0.309834, 98.2809, 0, 0, 0, 0, 0.27832, -9.7373, 1.13.2022 15:16:52.384
877, 1.60455, 0.304545, 98.2811, 0.000976562, 0, 0, -0.0947266, 0.272461, -9.70605, 1.13.2022 15:16:52.392
878, 1.60455, 0.304545, 98.2811, 0, 0.000976562, -0.000976562, -0.0664062, 0.286133, -9.74316, 1.13.2022 15:16:52.400
879, 1.60455, 0.304545, 98.2811, 0, 0, 0, -0.046875, 0.253906, -9.71191, 1.13.2022 15:16:52.408
880, 1.60912, 0.309834, 98.2809, 0, 0, -0.000976562, -0.118164, 0.290039, -9.71875, 1.13.2022 15:16:52.416
881, 1.60912, 0.309834, 98.2809, 0, 0, 0, -0.0332031, 0.273438, -9.71582, 1.13.2022 15:16:52.424
882, 1.60912, 0.309834, 98.2809, -0.000976562, 0.000976562, 0, -0.0566406, 0.256836, -9.7207, 1.13.2022 15:16:52.432
883, 1.60912, 0.309834, 98.2809, 0, 0.000976562, 0, -0.0927734, 0.299805, -9.72168, 1.13.2022 15:16:52.440
884, 1.60912, 0.309834, 98.2809, -0.000976562, -0.000976562, -0.000976562, 0.0185547, 0.261719, -9.75488, 1.13.2022 15:16:52.448
885, 1.60912, 0.309834, 98.2809, -0.000976562, -0.000976562, 0, -0.0742188, 0.264648, -9.74121, 1.13.2022 15:16:52.456
886, 1.60912, 0.309834, 98.2809, -0.000976562, 0, -0.000976562, -0.0498047, 0.3125, -9.74805, 1.13.2022 15:16:52.464
887, 1.60912, 0.309834, 98.2809, -0.000976562, -0.000976562, 0, -0.0371094, 0.250977, -9.69727, 1.13.2022 15:16:52.472
888, 1.61369, 0.315123, 98.2808, 0, -0.000976562, 0, -0.0888672, 0.272461, -9.7627, 1.13.2022 15:16:52.480
889, 1.61369, 0.315123, 98.2808, 0, 0, 0, -0.0214844, 0.276367, -9.74707, 1.13.2022 15:16:52.488
890, 1.61369, 0.315123, 98.2808, 0, -0.000976562, 0, -0.078125, 0.261719, -9.72949, 1.13.2022 15:16:52.496
891, 1.61369, 0.315123, 98.2808, -0.000976562, -0.000976562, -0.000976562, -0.102539, 0.268555, -9.72461, 1.13.2022 15:16:52.504
892, 1.61369, 0.315123, 98.2808, 0, 0, -0.000976562, -0.00976562, 0.271484, -9.75, 1.13.2022 15:16:52.512
893, 1.61369, 0.315123, 98.2808, 0, 0, 0, -0.0927734, 0.286133, -9.76465, 1.13.2022 15:16:52.520
894, 1.61369, 0.315123, 98.2808, -0.000976562, -0.000976562, 0, -0.0625, 0.276367, -9.75586, 1.13.2022 15:16:52.529
895, 1.61369, 0.315123, 98.2808, -0.000976562, -0.000976562, 0, -0.0283203, 0.238281, -9.73633, 1.13.2022 15:16:52.536
896, 1.61369, 0.315123, 98.2808, -0.000976562, 0, -0.000976562, -0.116211, 0.280273, -9.72656, 1.13.2022 15:16:52.544
897, 1.61827, 0.320412, 98.2806, 0, -0.000976562, 0, -0.0214844, 0.264648, -9.74219, 1.13.2022 15:16:52.552
898, 1.61827, 0.320412, 98.2806, 0, -0.000976562, 0, -0.0605469, 0.260742, -9.77734, 1.13.2022 15:16:52.560
899, 1.61298, 0.324987, 98.2806, 0, -0.000976562, 0, -0.0878906, 0.288086, -9.72461, 1.13.2022 15:16:52.568
900, 1.61322, 0.324908, 98.2813, 0, -0.000976562, 0, -0.0302734, 0.271484, -9.73242, 1.13.2022 15:16:52.576
901, 1.61322, 0.324908, 98.2813, 0, -0.000976562, 0, -0.121094, 0.30957, -9.71582, 1.13.2022 15:16:52.584
902, 1.61322, 0.324908, 98.2813, -0.000976562, -0.000976562, 0, -0.0449219, 0.288086, -9.73438, 1.13.2022 15:16:52.592
903, 1.61322, 0.324908, 98.2813, 0, -0.000976562, 0, -0.0263672, 0.240234, -9.75, 1.13.2022 15:16:52.600
904, 1.61322, 0.324908, 98.2813, 0, -0.000976562, -0.000976562, -0.109375, 0.295898, -9.75391, 1.13.2022 15:16:52.608
905, 1.61779, 0.330197, 98.2811, 0, -0.000976562, -0.000976562, -0.0214844, 0.266602, -9.75195, 1.13.2022 15:16:52.616
906, 1.61779, 0.330197, 98.2811, -0.000976562, 0, 0, -0.0732422, 0.270508, -9.70117, 1.13.2022 15:16:52.624
907, 1.61779, 0.330197, 98.2811, -0.000976562, 0, -0.000976562, -0.0732422, 0.299805, -9.72168, 1.13.2022 15:16:52.632
908, 1.61779, 0.330197, 98.2811, 0, 0, 0, -0.00488281, 0.274414, -9.76367, 1.13.2022 15:16:52.640
909, 1.6125, 0.334772, 98.2811, 0, 0, 0, -0.112305, 0.274414, -9.74316, 1.13.2022 15:16:52.648
910, 1.6125, 0.334772, 98.2811, -0.000976562, 0, 0, -0.0517578, 0.296875, -9.72168, 1.13.2022 15:16:52.656
911, 1.61779, 0.330197, 98.2811, -0.000976562, -0.000976562, 0, -0.0449219, 0.276367, -9.74609, 1.13.2022 15:16:52.664
912, 1.62237, 0.335485, 98.2809, 0, -0.000976562, 0, -0.0712891, 0.307617, -9.74023, 1.13.2022 15:16:52.672
913, 1.61708, 0.34006, 98.2809, 0, -0.000976562, 0, 0.00292969, 0.238281, -9.73926, 1.13.2022 15:16:52.680
914, 1.62237, 0.335485, 98.2809, 0, 0, 0, -0.0693359, 0.257812, -9.75391, 1.13.2022 15:16:52.688
915, 1.62237, 0.335485, 98.2809, 0, 0, 0, -0.0595703, 0.292969, -9.75293, 1.13.2022 15:16:52.696
916, 1.62237, 0.335485, 98.2809, 0, 0, 0, -0.0117188, 0.254883, -9.73535, 1.13.2022 15:16:52.704
917, 1.62237, 0.335485, 98.2809, 0, -0.000976562, 0, -0.101562, 0.262695, -9.69824, 1.13.2022 15:16:52.712
918, 1.62237, 0.335485, 98.2809, 0, 0, 0, -0.0439453, 0.272461, -9.68066, 1.13.2022 15:16:52.720
919, 1.62237, 0.335485, 98.2809, 0, -0.000976562, -0.000976562, -0.0566406, 0.27832, -9.74121, 1.13.2022 15:16:52.728
920, 1.62237, 0.335485, 98.2809, -0.000976562, 0, -0.000976562, -0.0898438, 0.303711, -9.69727, 1.13.2022 15:16:52.736
921, 1.62237, 0.335485, 98.2809, 0, 0, 0, 0.00488281, 0.24707, -9.74316, 1.13.2022 15:16:52.744
922, 1.62237, 0.335485, 98.2809, 0, 0, -0.000976562, -0.125977, 0.268555, -9.72168, 1.13.2022 15:16:52.752
923, 1.62237, 0.335485, 98.2809, -0.000976562, -0.000976562, -0.000976562, -0.0917969, 0.296875, -9.69043, 1.13.2022 15:16:52.760
924, 1.62237, 0.335485, 98.2809, 0, -0.00195312, -0.000976562, -0.0351562, 0.271484, -9.73926, 1.13.2022 15:16:52.768
925, 1.62237, 0.335485, 98.2809, 0, -0.000976562, -0.00195312, -0.113281, 0.303711, -9.7002, 1.13.2022 15:16:52.776
926, 1.62237, 0.335485, 98.2809, -0.000976562, -0.000976562, 0, -0.0566406, 0.265625, -9.71387, 1.13.2022 15:16:52.784
927, 1.62213, 0.335566, 98.2803, 0, -0.000976562, -0.000976562, -0.0664062, 0.249023, -9.72363, 1.13.2022 15:16:52.792
928, 1.62213, 0.335566, 98.2803, 0, -0.000976562, 0, -0.0888672, 0.282227, -9.76465, 1.13.2022 15:16:52.800
929, 1.61684, 0.340141, 98.2803, 0, 0, -0.000976562, -0.0107422, 0.249023, -9.69629, 1.13.2022 15:16:52.808
930, 1.61684, 0.340141, 98.2803, 0, 0, 0, -0.0976562, 0.301758, -9.72363, 1.13.2022 15:16:52.816
931, 1.61684, 0.340141, 98.2803, 0, 0, -0.000976562, -0.0683594, 0.260742, -9.6875, 1.13.2022 15:16:52.824
932, 1.61684, 0.340141, 98.2803, 0, 0.000976562, 0, 0, 0.270508, -9.72656, 1.13.2022 15:16:52.832
933, 1.61684, 0.340141, 98.2803, 0, 0, -0.000976562, -0.12207, 0.300781, -9.75879, 1.13.2022 15:16:52.840
934, 1.62141, 0.34543, 98.2801, 0, -0.000976562, 0, -0.0146484, 0.274414, -9.76562, 1.13.2022 15:16:52.848
935, 1.62141, 0.34543, 98.2801, -0.000976562, -0.000976562, 0, -0.0390625, 0.267578, -9.77734, 1.13.2022 15:16:52.856
936, 1.62141, 0.34543, 98.2801, -0.000976562, 0, 0, -0.0712891, 0.268555, -9.72754, 1.13.2022 15:16:52.864
937, 1.62141, 0.34543, 98.2801, -0.000976562, 0, 0, 0.00488281, 0.279297, -9.76172, 1.13.2022 15:16:52.872
938, 1.62141, 0.34543, 98.2801, 0, -0.000976562, 0, -0.0996094, 0.285156, -9.71973, 1.13.2022 15:16:52.880
939, 1.62141, 0.34543, 98.2801, 0, -0.000976562, -0.000976562, -0.0478516, 0.276367, -9.74609, 1.13.2022 15:16:52.888
940, 1.62141, 0.34543, 98.2801, 0, 0, 0, -0.0214844, 0.272461, -9.76562, 1.13.2022 15:16:52.896
941, 1.62141, 0.34543, 98.2801, 0, 0, -0.000976562, -0.0898438, 0.268555, -9.72461, 1.13.2022 15:16:52.904
942, 1.61684, 0.340141, 98.2803, 0, -0.000976562, 0, -0.0166016, 0.257812, -9.77344, 1.13.2022 15:16:52.912
943, 1.62213, 0.335566, 98.2803, -0.000976562, 0, 0, 0.12793, 0.287109, -9.8125, 1.13.2022 15:16:52.920
944, 1.62213, 0.335566, 98.2803, 0, 0.00292969, -0.000976562, 0.172852, 0.302734, -9.68066, 1.13.2022 15:16:52.928
945, 1.62284, 0.325701, 98.2804, 0, 0, -0.000976562, 0.09375, 0.307617, -9.84961, 1.13.2022 15:16:52.936
946, 1.61827, 0.320412, 98.2806, 0, 0.00195312, -0.000976562, 0.0263672, 0.305664, -9.60938, 1.13.2022 15:16:52.944
947, 1.62356, 0.315837, 98.2806, -0.000976562, 0, 0.000976562, 0.078125, 0.267578, -9.76758, 1.13.2022 15:16:52.952
948, 1.6197, 0.300684, 98.2809, -0.000976562, 0.00195312, 0, 0.330078, 0.243164, -9.6875, 1.13.2022 15:16:52.960
949, 1.6257, 0.286245, 98.2811, -0.000976562, -0.000976562, 0, 0.232422, 0.300781, -9.68652, 1.13.2022 15:16:52.968
950, 1.62184, 0.271091, 98.2814, -0.000976562, 0.000976562, -0.00195312, 0.295898, 0.294922, -9.75586, 1.13.2022 15:16:52.976
951, 1.62327, 0.251363, 98.2817, 0, -0.000976562, 0, 0.207031, 0.307617, -9.75195, 1.13.2022 15:16:52.984
952, 1.62998, 0.22706, 98.282, 0, 0.00195312, 0.000976562, 0.513672, 0.31543, -9.80859, 1.13.2022 15:16:52.992
953, 1.63236, 0.197393, 98.2831, 0, 0.00195312, -0.000976562, 0.620117, 0.269531, -9.63184, 1.13.2022 15:16:53.000
954, 1.62992, 0.162513, 98.2836, -0.000976562, -0.000976562, -0.000976562, 0.321289, 0.323242, -9.91406, 1.13.2022 15:16:53.008
955, 1.63278, 0.123058, 98.2842, -0.000976562, 0.00488281, -0.000976562, 0.573242, 0.256836, -9.54688, 1.13.2022 15:16:53.016
956, 1.63563, 0.0836037, 98.2848, 0, 0.000976562, -0.00195312, 0.583008, 0.264648, -9.97656, 1.13.2022 15:16:53.024
957, 1.63463, 0.0289967, 98.2856, 0, 0.00683594, -0.00390625, 0.756836, 0.308594, -9.58105, 1.13.2022 15:16:53.032
958, 1.63797, 359.98, 98.2856, -0.000976562, -0.00195312, -0.00390625, 0.62793, 0.344727, -9.68457, 1.13.2022 15:16:53.040
959, 1.64225, 359.921, 98.2863, -0.000976562, 0.00195312, -0.00292969, 0.686523, 0.329102, -9.64844, 1.13.2022 15:16:53.048
960, 1.64196, 359.856, 98.2872, -0.000976562, 0, -0.00292969, 0.591797, 0.327148, -9.72656, 1.13.2022 15:16:53.056
961, 1.64696, 359.787, 98.288, -0.00195312, -0.00390625, -0.00195312, 0.664062, 0.255859, -9.81738, 1.13.2022 15:16:53.064
962, 1.65196, 359.718, 98.2888, -0.00195312, 0, -0.000976562, 0.806641, 0.300781, -9.72852, 1.13.2022 15:16:53.072
963, 1.65717, 359.649, 98.2902, -0.000976562, -0.00683594, -0.00195312, 0.678711, 0.296875, -9.67969, 1.13.2022 15:16:53.080
964, 1.65759, 359.575, 98.291, -0.000976562, -0.00390625, -0.00292969, 0.668945, 0.265625, -9.68262, 1.13.2022 15:16:53.088
965, 1.66259, 359.506, 98.2917, -0.000976562, -0.00683594, -0.00292969, 0.53125, 0.337891, -9.77539, 1.13.2022 15:16:53.096
966, 1.6683, 359.427, 98.2924, -0.000976562, 0.000976562, -0.00292969, 0.958008, 0.297852, -9.81152, 1.13.2022 15:16:53.104
967, 1.66943, 359.342, 98.2932, -0.00195312, -0.00390625, -0.00292969, 0.912109, 0.337891, -9.80469, 1.13.2022 15:16:53.112
968, 1.67514, 359.263, 98.2938, -0.00195312, -0.0078125, -0.000976562, 0.775391, 0.331055, -9.62109, 1.13.2022 15:16:53.120
969, 1.67556, 359.189, 98.2944, -0.000976562, -0.00683594, 0, 0.746094, 0.28125, -9.62891, 1.13.2022 15:16:53.128
970, 1.68127, 359.11, 98.295, -0.000976562, -0.0117188, 0.000976562, 0.43457, 0.357422, -9.69727, 1.13.2022 15:16:53.136
971, 1.68698, 359.031, 98.2955, -0.000976562, -0.0126953, 0.00195312, 0.459961, 0.396484, -9.64062, 1.13.2022 15:16:53.144
972, 1.6876, 358.957, 98.2966, -0.00195312, -0.0166016, 0.00390625, 0.392578, 0.382812, -9.80469, 1.13.2022 15:16:53.152
973, 1.69233, 358.888, 98.2871, -0.000976562, -0.0146484, 0.00195312, 0.785156, 0.157227, -9.9707, 1.13.2022 15:16:53.161
974, 1.70261, 358.814, 98.2874, 0, -0.00585938, -0.00292969, 1.23145, 0.352539, -9.82617, 1.13.2022 15:16:53.166
975, 1.70303, 358.74, 98.2877, 0.00195312, -0.00878906, -0.0078125, 1.01758, 0.390625, -9.79297, 1.13.2022 15:16:53.174
976, 1.709, 358.661, 98.2978, 0, 0.00390625, -0.00585938, 1.02637, 0.444336, -9.8252, 1.13.2022 15:16:53.182
977, 1.71013, 358.577, 98.2981, 0.00195312, 0.00390625, -0.00390625, 0.908203, 0.362305, -9.65527, 1.13.2022 15:16:53.190
978, 1.71583, 358.498, 98.2982, -0.000976562, 0.00390625, -0.000976562, 0.87207, 0.344727, -9.77148, 1.13.2022 15:16:53.198
979, 1.72172, 358.419, 98.299, -0.00585938, 0, 0.000976562, 0.951172, 0.202148, -9.48535, 1.13.2022 15:16:53.206
980, 1.72742, 358.34, 98.2991, -0.00878906, -0.00878906, 0, 0.853516, 0.147461, -9.4834, 1.13.2022 15:16:53.214
981, 1.7377, 358.266, 98.2991, -0.0136719, -0.0166016, -0.000976562, 0.918945, 0.137695, -9.40918, 1.13.2022 15:16:53.222
982, 1.75255, 358.198, 98.2991, -0.0185547, -0.0244141, -0.00292969, 0.859375, 0.176758, -9.67188, 1.13.2022 15:16:53.230
983, 1.75755, 358.129, 98.2991, -0.0185547, -0.0205078, -0.00683594, 0.852539, 0.245117, -10.0645, 1.13.2022 15:16:53.238
984, 1.76711, 358.065, 98.299, -0.0166016, -0.0185547, -0.00683594, 0.917969, 0.319336, -10.1504, 1.13.2022 15:16:53.246
985, 1.7777, 357.992, 98.3088, -0.0126953, -0.0107422, -0.0078125, 0.878906, 0.354492, -10.1035, 1.13.2022 15:16:53.254
986, 1.78269, 357.923, 98.3086, -0.00683594, 0.00585938, -0.00683594, 0.789062, 0.4375, -10.1758, 1.13.2022 15:16:53.262
987, 1.78382, 357.838, 98.3084, 0.00195312, 0.0166016, -0.00683594, 0.923828, 0.538086, -10.2598, 1.13.2022 15:16:53.270
988, 1.77998, 357.759, 98.3179, 0.0126953, 0.0322266, -0.00976562, 1.10938, 0.511719, -9.60059, 1.13.2022 15:16:53.278
989, 1.77654, 357.669, 98.3176, 0.0205078, 0.0322266, -0.0166016, 0.84375, 0.606445, -9.40625, 1.13.2022 15:16:53.286
990, 1.76799, 357.584, 98.3262, 0.0253906, 0.0351562, -0.0214844, 0.969727, 0.479492, -9.14551, 1.13.2022 15:16:53.294
991, 1.7645, 357.505, 98.3454, 0.0244141, 0.0283203, -0.0263672, 0.915039, 0.574219, -9.37793, 1.13.2022 15:16:53.302
992, 1.76054, 357.426, 98.354, 0.0205078, 0.0195312, -0.0263672, 0.987305, 0.368164, -9.61426, 1.13.2022 15:16:53.310
993, 1.76118, 357.351, 98.3627, 0.0126953, 0.000976562, -0.0244141, 0.880859, 0.238281, -9.83105, 1.13.2022 15:16:53.318
994, 1.76145, 357.287, 98.3811, 0.00585938, -0.0107422, -0.0195312, 0.881836, 0.170898, -9.64844, 1.13.2022 15:16:53.326
995, 1.76576, 357.228, 98.3807, 0.000976562, -0.0205078, -0.0136719, 1.05371, -0.133789, -9.47266, 1.13.2022 15:16:53.334
996, 1.775, 357.174, 98.3901, -0.00976562, -0.0273438, -0.0117188, 0.957031, -0.0625, -9.67773, 1.13.2022 15:16:53.342
997, 1.7841, 357.12, 98.3989, -0.0166016, -0.0253906, -0.00878906, 0.980469, 0.106445, -10.1436, 1.13.2022 15:16:53.350
998, 1.793, 357.066, 98.3985, -0.0166016, -0.0234375, -0.00878906, 0.985352, 0.0839844, -10.1064, 1.13.2022 15:16:53.358
999, 1.80647, 357.018, 98.3981, -0.0195312, -0.0185547, -0.0078125, 0.71875, 0.336914, -10.2363, 1.13.2022 15:16:53.366
1000, 1.81573, 356.964, 98.4075, -0.0185547, -0.0078125, -0.00976562, 1.02637, 0.492188, -9.18848, 1.13.2022 15:16:53.374
1001, 1.82005, 356.905, 98.4069, -0.0126953, -0.00976562, -0.0078125, 0.805664, 0.439453, -9.49316, 1.13.2022 15:16:53.382
1002, 1.82895, 356.851, 98.4064, -0.0185547, -0.00585938, -0.00292969, 0.766602, 0.709961, -9.33398, 1.13.2022 15:16:53.390
1003, 1.83835, 356.797, 98.4164, -0.0146484, -0.0107422, -0.000976562, 0.75293, 0.564453, -9.82422, 1.13.2022 15:16:53.398
1004, 1.84653, 356.753, 98.416, -0.0107422, -0.0185547, 0, 0.529297, 0.503906, -10.04, 1.13.2022 15:16:53.406
1005, 1.85013, 356.704, 98.4154, -0.00878906, -0.0166016, 0.00195312, 0.487305, 0.469727, -10.4346, 1.13.2022 15:16:53.414
1006, 1.85794, 356.659, 98.4052, -0.0078125, -0.00292969, 0.00390625, 0.785156, 0.479492, -10.0352, 1.13.2022 15:16:53.422
1007, 1.86166, 356.61, 98.4052, 0.00390625, -0.00390625, 0.00585938, 0.776367, 0.369141, -9.54492, 1.13.2022 15:16:53.430
1008, 1.85997, 356.565, 98.4046, 0.0107422, 0.00390625, 0.00878906, 0.556641, 0.592773, -9.72363, 1.13.2022 15:16:53.438
1009, 1.85343, 356.515, 98.3947, 0.0195312, 0.0263672, 0.0117188, 0.771484, 0.554688, -9.27734, 1.13.2022 15:16:53.446
1010, 1.84727, 356.465, 98.3946, 0.0234375, 0.0371094, 0.0107422, 0.62793, 0.609375, -9.47363, 1.13.2022 15:16:53.454
1011, 1.83642, 356.41, 98.3936, 0.0263672, 0.03125, 0.0107422, 0.499023, 0.456055, -10.4424, 1.13.2022 15:16:53.462
1012, 1.82456, 356.364, 98.3835, 0.0263672, 0.0263672, 0.0078125, 0.638672, 0.314453, -9.78223, 1.13.2022 15:16:53.470
1013, 1.81756, 356.324, 98.3828, 0.0224609, -0.00878906, 0.00585938, 0.31543, 0.227539, -9.15332, 1.13.2022 15:16:53.478
1014, 1.80923, 356.303, 98.383, 0.015625, -0.0410156, 0.00683594, 0.142578, -0.0996094, -8.92578, 1.13.2022 15:16:53.486
1015, 1.80426, 356.298, 98.373, 0.00292969, -0.0507812, 0.0107422, 0.373047, -0.19043, -8.94922, 1.13.2022 15:16:53.494
1016, 1.80469, 356.288, 98.3637, -0.0107422, -0.0546875, 0.00976562, 1.09082, -0.196289, -9.37891, 1.13.2022 15:16:53.502
1017, 1.81457, 356.288, 98.3639, -0.0263672, -0.0546875, 0.00585938, 1.12012, 0.0654297, -10.4746, 1.13.2022 15:16:53.510
1018, 1.82984, 356.285, 98.3647, -0.0371094, -0.0449219, 0.00585938, 1.27148, 0.131836, -10.126, 1.13.2022 15:16:53.518
1019, 1.84992, 356.276, 98.3551, -0.0390625, -0.0292969, 0.00195312, 0.852539, 0.183594, -11.0576, 1.13.2022 15:16:53.526
1020, 1.8711, 356.258, 98.3551, -0.0351562, 0.00390625, -0.000976562, 0.445312, 0.212891, -11.0273, 1.13.2022 15:16:53.534
1021, 1.88842, 356.224, 98.3549, -0.0263672, 0.0498047, 0, 1.10547, 0.235352, -9.49902, 1.13.2022 15:16:53.542
1022, 1.89669, 356.18, 98.355, -0.0107422, 0.0449219, 0.00195312, 0.851562, 0.371094, -9.21484, 1.13.2022 15:16:53.550
1023, 1.89955, 356.141, 98.3544, 0.00683594, 0.0419922, -0.000976562, 0.225586, 0.65625, -9.26562, 1.13.2022 15:16:53.558
1024, 1.88836, 356.095, 98.3632, 0.0244141, 0.0654297, -0.00195312, 1.08105, 0.71582, -8.33984, 1.13.2022 15:16:53.566
1025, 1.87605, 356.06, 98.3624, 0.0410156, 0.0126953, -0.00585938, 0.389648, 1.11914, -9.7959, 1.13.2022 15:16:53.574
1026, 1.86231, 356.044, 98.3618, 0.0458984, -0.0175781, -0.00878906, 0.424805, 1.10254, -9.96777, 1.13.2022 15:16:53.582
1027, 1.84286, 356.043, 98.3706, 0.0380859, -0.0517578, -0.0078125, 0.441406, 0.6875, -9.7832, 1.13.2022 15:16:53.590
1028, 1.82697, 356.056, 98.3706, 0.0273438, -0.0585938, -0.00292969, 0.757812, 0.12207, -8.95312, 1.13.2022 15:16:53.598
1029, 1.82167, 356.061, 98.3706, 0.0078125, -0.0517578, 0.000976562, 1.17285, -0.319336, -8.86133, 1.13.2022 15:16:53.606
1030, 1.82095, 356.071, 98.3707, -0.0195312, -0.046875, 0.00488281, 1.18945, -0.443359, -9.68652, 1.13.2022 15:16:53.614
1031, 1.84031, 356.072, 98.3613, -0.0449219, -0.0341797, 0.00390625, 0.889648, -0.154297, -10.7773, 1.13.2022 15:16:53.622
1032, 1.86016, 356.073, 98.3623, -0.0361328, -0.00488281, -0.00390625, 0.200195, -0.352539, -13.0273, 1.13.2022 15:16:53.630
1033, 1.88206, 356.045, 98.3622, -0.0419922, 0.0546875, -0.00488281, 1.48535, -0.168945, -9.99609, 1.13.2022 15:16:53.638
1034, 1.8998, 356.012, 98.3718, -0.0439453, 0.0263672, -0.00585938, 0.310547, 0.265625, -9.14551, 1.13.2022 15:16:53.646
1035, 1.91641, 355.988, 98.3717, -0.0234375, 0.0527344, -0.00390625, 0.206055, 0.136719, -8.17188, 1.13.2022 15:16:53.654
1036, 1.92457, 355.944, 98.371, -0.0126953, 0.0771484, 0.00195312, 0.897461, 0.411133, -8.21094, 1.13.2022 15:16:53.662
1037, 1.93202, 355.91, 98.3706, 0.00488281, 0.0234375, 0, 0.518555, 1.41113, -9.82324, 1.13.2022 15:16:53.670
1038, 1.91756, 355.904, 98.3702, 0.0341797, -0.0332031, -0.00195312, -0.126953, 1.12207, -11.2432, 1.13.2022 15:16:53.678
1039, 1.90696, 355.913, 98.3701, 0.03125, -0.0595703, 0.00195312, -0.1875, 0.84375, -9.3457, 1.13.2022 15:16:53.686
1040, 1.89565, 355.932, 98.3703, 0.0126953, -0.0488281, 0.00488281, 1.33301, 0.500977, -6.89941, 1.13.2022 15:16:53.694
1041, 1.89422, 355.952, 98.3706, 0.00195312, -0.0869141, 0.00488281, 0.830078, 0.129883, -8.47266, 1.13.2022 15:16:53.702
1042, 1.89695, 355.977, 98.3613, -0.0107422, -0.0761719, 0, 0.328125, 0.304688, -11.7148, 1.13.2022 15:16:53.710
1043, 1.90082, 355.992, 98.3616, -0.00683594, 0.00292969, -0.0078125, 0.868164, -0.146484, -14.3672, 1.13.2022 15:16:53.718
1044, 1.90725, 355.978, 98.3713, -0.0126953, 0.03125, -0.0078125, 1.42871, 0.0253906, -11.4922, 1.13.2022 15:16:53.726
1045, 1.91398, 355.953, 98.371, -0.00585938, 0.0146484, -0.0078125, 0.121094, -0.151367, -9.35449, 1.13.2022 15:16:53.734
1046, 1.91644, 355.924, 98.3797, -0.0078125, 0.0908203, -0.00390625, 0.443359, -0.15918, -7.50098, 1.13.2022 15:16:53.742
1047, 1.92003, 355.875, 98.3788, -0.00585938, 0.0986328, -0.00195312, 0.800781, 0.212891, -7.1709, 1.13.2022 15:16:53.750
1048, 1.9229, 355.835, 98.3781, 0.00390625, 0.0302734, -0.00390625, -0.205078, 0.71875, -10.2305, 1.13.2022 15:16:53.758
1049, 1.91832, 355.83, 98.3779, 0.00390625, -0.0224609, 0.000976562, -1.01367, 0.65332, -11.9883, 1.13.2022 15:16:53.766
1050, 1.923, 355.835, 98.3788, -0.0117188, -0.0332031, 0.00683594, 0.50293, 0.257812, -7.53809, 1.13.2022 15:16:53.774
1051, 1.93144, 355.856, 98.3793, -0.0332031, -0.0859375, 0.00488281, 0.916992, -0.0126953, -6.49609, 1.13.2022 15:16:53.782
1052, 1.95249, 355.902, 98.3708, -0.0410156, -0.125, 0, -0.0800781, 0.533203, -9.84277, 1.13.2022 15:16:53.790
1053, 1.9648, 355.937, 98.3717, -0.0185547, -0.0527344, -0.00292969, 0.834961, -0.15625, -13.5449, 1.13.2022 15:16:53.798
1054, 1.97926, 355.943, 98.372, -0.0244141, -0.00195312, 0, 1.69727, 0.683594, -12.7344, 1.13.2022 15:16:53.806
1055, 1.98455, 355.939, 98.372, -0.00585938, -0.00585938, 0, 0.672852, 0.650391, -11.2783, 1.13.2022 15:16:53.814
1056, 1.98069, 355.924, 98.3717, 0.0117188, 0.0546875, 0.00585938, 0.373047, 0.423828, -8.76367, 1.13.2022 15:16:53.822
1057, 1.97379, 355.883, 98.3715, 0.0341797, 0.0927734, 0.0117188, 0.275391, 0.183594, -6.52539, 1.13.2022 15:16:53.830
1058, 1.96176, 355.838, 98.3606, 0.0244141, 0.0996094, 0.0175781, 0.338867, 1.18555, -8.71191, 1.13.2022 15:16:53.838
1059, 1.94383, 355.806, 98.3505, 0.0429688, -0.0078125, 0.0175781, -1.36426, 0.49707, -11.708, 1.13.2022 15:16:53.846
1060, 1.93405, 355.806, 98.3509, 0.00390625, 0.0107422, 0.0205078, -0.311523, 0.773438, -10.8359, 1.13.2022 15:16:53.854
1061, 1.93373, 355.806, 98.3418, -0.0078125, -0.0439453, 0.0166016, 1.02344, 0.0185547, -6.11133, 1.13.2022 15:16:53.862
1062, 1.93574, 355.84, 98.3326, -0.00976562, -0.0986328, 0.0107422, 0.467773, -0.290039, -7.19336, 1.13.2022 15:16:53.870
1063, 1.94245, 355.88, 98.3244, -0.0136719, -0.078125, 0.00488281, 0.460938, -0.164062, -12.1221, 1.13.2022 15:16:53.878
1064, 1.95091, 355.901, 98.3249, -0.0263672, -0.046875, 0.00683594, 0.581055, 0.00976562, -14.875, 1.13.2022 15:16:53.886
