Seq, Rot x, Rot y, Rot z, Vel x, Vel y, Vel z, Acc x, Acc y, Acc z, Time(m.d.y h:m:s.ms)
0, 1.72586, 0.680906, 98.3182, -0.00195312, -0.000976562, -0.000976562, -0.111328, 0.282227, -9.69336, 1.13.2022 15:46:14.864
1, 1.72586, 0.680906, 98.3182, -0.000976562, 0, -0.000976562, -0.0898438, 0.28418, -9.69336, 1.13.2022 15:46:14.870
2, 1.72057, 0.68548, 98.3182, 0.000976562, 0, -0.000976562, -0.164062, 0.339844, -9.71484, 1.13.2022 15:46:14.878
3, 1.72057, 0.68548, 98.3182, -0.000976562, -0.000976562, 0, -0.0605469, 0.298828, -9.69629, 1.13.2022 15:46:14.886
4, 1.72586, 0.680906, 98.3182, 0.000976562, -0.000976562, 0, -0.102539, 0.290039, -9.7334, 1.13.2022 15:46:14.894
5, 1.72586, 0.680906, 98.3182, 0.000976562, -0.000976562, 0, -0.117188, 0.317383, -9.75879, 1.13.2022 15:46:14.902
6, 1.72586, 0.680906, 98.3182, 0.000976562, -0.000976562, -0.000976562, -0.0634766, 0.260742, -9.7041, 1.13.2022 15:46:14.910
7, 1.72586, 0.680906, 98.3182, 0.000976562, 0, 0, -0.151367, 0.265625, -9.70703, 1.13.2022 15:46:14.918
8, 1.72586, 0.680906, 98.3182, 0.000976562, 0, 0, -0.0996094, 0.290039, -9.72852, 1.13.2022 15:46:14.926
9, 1.72586, 0.680906, 98.3182, 0.000976562, -0.000976562, -0.000976562, -0.0683594, 0.265625, -9.6875, 1.13.2022 15:46:14.934
10, 1.72128, 0.675615, 98.3184, -0.000976562, 0, 0, -0.144531, 0.316406, -9.72949, 1.13.2022 15:46:14.942
11, 1.72128, 0.675615, 98.3184, -0.000976562, 0, 0, -0.0732422, 0.27832, -9.73926, 1.13.2022 15:46:14.950
12, 1.72128, 0.675615, 98.3184, 0.000976562, 0, -0.000976562, -0.114258, 0.300781, -9.75391, 1.13.2022 15:46:14.958
13, 1.72128, 0.675615, 98.3184, -0.00195312, 0, -0.000976562, -0.144531, 0.287109, -9.69043, 1.13.2022 15:46:14.966
14, 1.72128, 0.675615, 98.3184, -0.00195312, -0.000976562, 0, -0.0732422, 0.288086, -9.73633, 1.13.2022 15:46:14.974
15, 1.722, 0.665751, 98.3186, -0.00195312, -0.000976562, -0.000976562, -0.154297, 0.295898, -9.74219, 1.13.2022 15:46:14.982
16, 1.722, 0.665751, 98.3186, 0.000976562, 0, 0, -0.114258, 0.28125, -9.73535, 1.13.2022 15:46:14.990
17, 1.722, 0.665751, 98.3186, -0.000976562, -0.000976562, -0.000976562, -0.111328, 0.287109, -9.70996, 1.13.2022 15:46:14.998
18, 1.722, 0.665751, 98.3186, -0.000976562, -0.000976562, 0, -0.164062, 0.30957, -9.73633, 1.13.2022 15:46:15.006
19, 1.722, 0.665751, 98.3186, -0.000976562, 0.000976562, 0, -0.0634766, 0.288086, -9.72949, 1.13.2022 15:46:15.014
20, 1.722, 0.665751, 98.3186, -0.000976562, 0, -0.000976562, -0.125, 0.293945, -9.69238, 1.13.2022 15:46:15.022
21, 1.722, 0.665751, 98.3186, -0.00195312, -0.000976562, 0, -0.144531, 0.292969, -9.72363, 1.13.2022 15:46:15.030
22, 1.722, 0.665751, 98.3186, -0.000976562, -0.000976562, 0, -0.0615234, 0.295898, -9.74316, 1.13.2022 15:46:15.038
23, 1.722, 0.665751, 98.3186, -0.000976562, -0.00195312, 0, -0.168945, 0.304688, -9.72949, 1.13.2022 15:46:15.046
24, 1.722, 0.665751, 98.3186, -0.000976562, -0.00195312, -0.000976562, -0.114258, 0.328125, -9.72461, 1.13.2022 15:46:15.054
25, 1.722, 0.665751, 98.3186, -0.000976562, 0, -0.000976562, -0.0830078, 0.299805, -9.72363, 1.13.2022 15:46:15.062
26, 1.722, 0.665751, 98.3186, 0.000976562, -0.000976562, 0, -0.138672, 0.295898, -9.76367, 1.13.2022 15:46:15.070
27, 1.722, 0.665751, 98.3186, -0.000976562, 0.000976562, -0.000976562, -0.0878906, 0.295898, -9.74023, 1.13.2022 15:46:15.078
28, 1.722, 0.665751, 98.3186, 0.000976562, 0.00195312, -0.000976562, -0.123047, 0.301758, -9.69238, 1.13.2022 15:46:15.086
29, 1.722, 0.665751, 98.3186, -0.000976562, 0, 0, -0.178711, 0.292969, -9.7207, 1.13.2022 15:46:15.094
30, 1.722, 0.665751, 98.3186, -0.00292969, 0.00195312, -0.000976562, -0.0869141, 0.260742, -9.68262, 1.13.2022 15:46:15.102
31, 1.73186, 0.666469, 98.3184, -0.00390625, 0, -0.00195312, -0.186523, 0.300781, -9.66797, 1.13.2022 15:46:15.110
32, 1.73186, 0.666469, 98.3184, -0.00195312, -0.00195312, 0, -0.111328, 0.308594, -9.69043, 1.13.2022 15:46:15.118
33, 1.73186, 0.666469, 98.3184, -0.000976562, -0.000976562, -0.000976562, -0.0849609, 0.304688, -9.72852, 1.13.2022 15:46:15.126
34, 1.73186, 0.666469, 98.3184, -0.000976562, -0.00195312, -0.000976562, -0.124023, 0.338867, -9.74609, 1.13.2022 15:46:15.134
35, 1.73643, 0.67176, 98.3182, 0, -0.00195312, 0, -0.0234375, 0.297852, -9.74902, 1.13.2022 15:46:15.142
36, 1.73643, 0.67176, 98.3182, 0, -0.00195312, -0.000976562, -0.112305, 0.298828, -9.76562, 1.13.2022 15:46:15.150
37, 1.73643, 0.67176, 98.3182, 0, 0, -0.000976562, -0.109375, 0.269531, -9.74316, 1.13.2022 15:46:15.158
38, 1.73661, 0.671814, 98.328, 0, 0.000976562, -0.000976562, -0.0957031, 0.243164, -9.76562, 1.13.2022 15:46:15.166
39, 1.73186, 0.666469, 98.3184, -0.000976562, 0.00195312, 0, -0.179688, 0.257812, -9.66406, 1.13.2022 15:46:15.174
40, 1.73186, 0.666469, 98.3184, -0.000976562, 0.000976562, 0, -0.144531, 0.282227, -9.69043, 1.13.2022 15:46:15.182
41, 1.73186, 0.666469, 98.3184, -0.000976562, 0.000976562, -0.000976562, -0.170898, 0.296875, -9.70117, 1.13.2022 15:46:15.190
42, 1.73186, 0.666469, 98.3184, -0.00195312, -0.000976562, -0.000976562, -0.182617, 0.290039, -9.71289, 1.13.2022 15:46:15.198
43, 1.73661, 0.671814, 98.328, -0.00195312, -0.00195312, 0, -0.0664062, 0.28418, -9.75098, 1.13.2022 15:46:15.206
44, 1.73114, 0.676333, 98.3182, -0.00195312, -0.00195312, 0, -0.0859375, 0.310547, -9.77051, 1.13.2022 15:46:15.214
45, 1.73114, 0.676333, 98.3182, -0.000976562, -0.00195312, 0, -0.102539, 0.331055, -9.7373, 1.13.2022 15:46:15.222
46, 1.73114, 0.676333, 98.3182, 0, -0.00195312, -0.000976562, -0.0410156, 0.303711, -9.78613, 1.13.2022 15:46:15.230
47, 1.73114, 0.676333, 98.3182, 0, -0.000976562, -0.000976562, -0.145508, 0.335938, -9.74512, 1.13.2022 15:46:15.238
48, 1.73114, 0.676333, 98.3182, 0.00195312, 0, 0, -0.0664062, 0.3125, -9.73535, 1.13.2022 15:46:15.246
49, 1.73114, 0.676333, 98.3182, 0, 0.000976562, -0.000976562, -0.0830078, 0.288086, -9.73145, 1.13.2022 15:46:15.254
50, 1.73114, 0.676333, 98.3182, 0, 0.000976562, 0, -0.135742, 0.273438, -9.72852, 1.13.2022 15:46:15.262
51, 1.73643, 0.67176, 98.3182, 0, 0.000976562, -0.000976562, -0.0878906, 0.229492, -9.70703, 1.13.2022 15:46:15.270
52, 1.73186, 0.666469, 98.3184, -0.00195312, 0, -0.000976562, -0.147461, 0.223633, -9.73242, 1.13.2022 15:46:15.278
53, 1.73204, 0.666522, 98.3282, -0.00195312, 0, -0.000976562, -0.154297, 0.279297, -9.68555, 1.13.2022 15:46:15.286
54, 1.73204, 0.666522, 98.3282, -0.00292969, -0.00195312, 0, -0.104492, 0.276367, -9.75, 1.13.2022 15:46:15.294
55, 1.73186, 0.666469, 98.3184, -0.00292969, -0.00195312, 0, -0.152344, 0.337891, -9.72656, 1.13.2022 15:46:15.302
56, 1.73186, 0.666469, 98.3184, -0.00292969, -0.00195312, 0, -0.078125, 0.329102, -9.74023, 1.13.2022 15:46:15.310
57, 1.73186, 0.666469, 98.3184, -0.00195312, -0.000976562, 0, -0.0693359, 0.329102, -9.74219, 1.13.2022 15:46:15.318
58, 1.73186, 0.666469, 98.3184, -0.00195312, -0.00195312, -0.000976562, -0.147461, 0.338867, -9.75488, 1.13.2022 15:46:15.326
59, 1.73186, 0.666469, 98.3184, 0, -0.000976562, -0.000976562, -0.0380859, 0.300781, -9.74805, 1.13.2022 15:46:15.334
60, 1.73186, 0.666469, 98.3184, 0.00195312, 0, -0.000976562, -0.128906, 0.303711, -9.76074, 1.13.2022 15:46:15.342
61, 1.73204, 0.666522, 98.3282, 0.00195312, 0, -0.000976562, -0.142578, 0.319336, -9.73145, 1.13.2022 15:46:15.350
62, 1.73204, 0.666522, 98.3282, 0.00292969, 0.000976562, 0, -0.0849609, 0.283203, -9.72656, 1.13.2022 15:46:15.358
63, 1.73186, 0.666469, 98.3184, 0.00292969, 0, 0, -0.185547, 0.271484, -9.73242, 1.13.2022 15:46:15.366
64, 1.73186, 0.666469, 98.3184, 0.00195312, 0, -0.000976562, -0.142578, 0.208984, -9.73047, 1.13.2022 15:46:15.374
65, 1.73186, 0.666469, 98.3184, 0.000976562, -0.000976562, -0.000976562, -0.140625, 0.228516, -9.73242, 1.13.2022 15:46:15.382
66, 1.73204, 0.666522, 98.3282, 0.000976562, 0, -0.000976562, -0.175781, 0.272461, -9.69043, 1.13.2022 15:46:15.390
67, 1.72675, 0.671095, 98.3282, -0.000976562, -0.000976562, -0.000976562, -0.0732422, 0.270508, -9.71094, 1.13.2022 15:46:15.398
68, 1.72675, 0.671095, 98.3282, -0.000976562, -0.000976562, -0.000976562, -0.135742, 0.302734, -9.74414, 1.13.2022 15:46:15.406
69, 1.72675, 0.671095, 98.3282, -0.00292969, -0.00195312, -0.000976562, -0.125977, 0.321289, -9.73242, 1.13.2022 15:46:15.414
70, 1.72675, 0.671095, 98.3282, -0.000976562, -0.000976562, -0.000976562, -0.0664062, 0.270508, -9.7207, 1.13.2022 15:46:15.422
71, 1.72146, 0.675668, 98.3282, -0.00195312, -0.000976562, -0.00195312, -0.155273, 0.330078, -9.76465, 1.13.2022 15:46:15.430
72, 1.72146, 0.675668, 98.3282, 0, -0.000976562, -0.000976562, -0.078125, 0.319336, -9.74902, 1.13.2022 15:46:15.438
73, 1.72146, 0.675668, 98.3282, 0.000976562, 0, -0.000976562, -0.0976562, 0.326172, -9.7373, 1.13.2022 15:46:15.446
74, 1.72146, 0.675668, 98.3282, 0.000976562, 0.000976562, 0.000976562, -0.144531, 0.337891, -9.72461, 1.13.2022 15:46:15.454
75, 1.72146, 0.675668, 98.3282, 0.000976562, -0.000976562, 0, -0.0634766, 0.283203, -9.72461, 1.13.2022 15:46:15.462
76, 1.72146, 0.675668, 98.3282, 0.000976562, 0, 0, -0.128906, 0.254883, -9.74121, 1.13.2022 15:46:15.470
77, 1.72146, 0.675668, 98.3282, 0.000976562, 0, 0, -0.113281, 0.265625, -9.70508, 1.13.2022 15:46:15.478
78, 1.72146, 0.675668, 98.3282, 0, 0, -0.000976562, -0.0683594, 0.251953, -9.73242, 1.13.2022 15:46:15.486
79, 1.72146, 0.675668, 98.3282, 0, -0.000976562, -0.000976562, -0.128906, 0.291016, -9.74512, 1.13.2022 15:46:15.494
80, 1.71689, 0.670377, 98.3284, 0, -0.000976562, 0.000976562, -0.0810547, 0.291016, -9.74316, 1.13.2022 15:46:15.502
81, 1.71671, 0.670324, 98.3186, 0, -0.000976562, 0, -0.101562, 0.306641, -9.72363, 1.13.2022 15:46:15.510
82, 1.71671, 0.670324, 98.3186, 0, -0.000976562, 0, -0.118164, 0.311523, -9.71582, 1.13.2022 15:46:15.518
83, 1.71671, 0.670324, 98.3186, 0, -0.00195312, 0, -0.0566406, 0.263672, -9.73438, 1.13.2022 15:46:15.526
84, 1.71671, 0.670324, 98.3186, 0, 0, -0.000976562, -0.148438, 0.282227, -9.77539, 1.13.2022 15:46:15.534
85, 1.722, 0.665751, 98.3186, -0.00195312, 0, -0.00195312, -0.109375, 0.295898, -9.74707, 1.13.2022 15:46:15.542
86, 1.71743, 0.66046, 98.3188, 0, 0, -0.000976562, -0.116211, 0.288086, -9.72363, 1.13.2022 15:46:15.550
87, 1.71743, 0.66046, 98.3188, 0, 0, 0, -0.189453, 0.318359, -9.7002, 1.13.2022 15:46:15.558
88, 1.71743, 0.66046, 98.3188, 0, 0, 0, -0.0898438, 0.303711, -9.69531, 1.13.2022 15:46:15.566
89, 1.71743, 0.66046, 98.3188, 0, 0, 0, -0.151367, 0.269531, -9.67676, 1.13.2022 15:46:15.574
90, 1.71743, 0.66046, 98.3188, 0, -0.000976562, 0, -0.15918, 0.292969, -9.7373, 1.13.2022 15:46:15.582
91, 1.71743, 0.66046, 98.3188, 0.000976562, -0.000976562, 0, -0.0693359, 0.264648, -9.76074, 1.13.2022 15:46:15.590
92, 1.71214, 0.665033, 98.3188, 0, 0, -0.000976562, -0.162109, 0.292969, -9.74219, 1.13.2022 15:46:15.598
93, 1.71214, 0.665033, 98.3188, -0.000976562, -0.000976562, 0, -0.12207, 0.30957, -9.80566, 1.13.2022 15:46:15.606
94, 1.71214, 0.665033, 98.3188, -0.000976562, 0, 0, -0.0654297, 0.300781, -9.68848, 1.13.2022 15:46:15.614
95, 1.71671, 0.670324, 98.3186, -0.000976562, -0.00195312, -0.000976562, -0.161133, 0.318359, -9.68652, 1.13.2022 15:46:15.622
96, 1.71671, 0.670324, 98.3186, -0.000976562, -0.000976562, -0.000976562, -0.0644531, 0.30957, -9.74316, 1.13.2022 15:46:15.630
97, 1.71671, 0.670324, 98.3186, -0.000976562, 0, -0.000976562, -0.0996094, 0.323242, -9.71875, 1.13.2022 15:46:15.638
98, 1.71671, 0.670324, 98.3186, 0.000976562, 0, 0, -0.132812, 0.296875, -9.71875, 1.13.2022 15:46:15.646
99, 1.71671, 0.670324, 98.3186, 0, 0, 0, -0.0546875, 0.280273, -9.72754, 1.13.2022 15:46:15.654
100, 1.722, 0.665751, 98.3186, 0, -0.000976562, -0.000976562, -0.142578, 0.275391, -9.70215, 1.13.2022 15:46:15.662
101, 1.722, 0.665751, 98.3186, 0, 0, 0, -0.142578, 0.283203, -9.72559, 1.13.2022 15:46:15.670
102, 1.722, 0.665751, 98.3186, 0, -0.000976562, 0, -0.0859375, 0.266602, -9.73438, 1.13.2022 15:46:15.678
103, 1.722, 0.665751, 98.3186, 0, -0.00195312, -0.000976562, -0.152344, 0.299805, -9.73438, 1.13.2022 15:46:15.686
104, 1.722, 0.665751, 98.3186, -0.00195312, -0.000976562, 0, -0.0791016, 0.259766, -9.75391, 1.13.2022 15:46:15.694
105, 1.722, 0.665751, 98.3186, -0.00195312, -0.000976562, 0, -0.101562, 0.266602, -9.71973, 1.13.2022 15:46:15.700
106, 1.722, 0.665751, 98.3186, -0.00292969, -0.000976562, -0.000976562, -0.125977, 0.294922, -9.72363, 1.13.2022 15:46:15.708
107, 1.722, 0.665751, 98.3186, -0.00195312, 0, -0.000976562, -0.0722656, 0.258789, -9.78711, 1.13.2022 15:46:15.716
108, 1.722, 0.665751, 98.3186, -0.00292969, 0.000976562, -0.000976562, -0.198242, 0.285156, -9.78906, 1.13.2022 15:46:15.724
109, 1.722, 0.665751, 98.3186, -0.000976562, 0.000976562, -0.000976562, -0.180664, 0.292969, -9.71582, 1.13.2022 15:46:15.732
110, 1.722, 0.665751, 98.3186, -0.000976562, 0.000976562, -0.000976562, -0.161133, 0.28418, -9.69238, 1.13.2022 15:46:15.740
111, 1.71671, 0.670324, 98.3186, -0.000976562, 0, -0.000976562, -0.189453, 0.336914, -9.69238, 1.13.2022 15:46:15.748
112, 1.71671, 0.670324, 98.3186, 0, -0.00195312, -0.000976562, -0.0683594, 0.299805, -9.72461, 1.13.2022 15:46:15.756
113, 1.72128, 0.675615, 98.3184, 0, -0.00292969, -0.000976562, -0.128906, 0.311523, -9.78906, 1.13.2022 15:46:15.764
114, 1.71617, 0.68024, 98.3282, 0, -0.00292969, -0.000976562, -0.0878906, 0.307617, -9.74219, 1.13.2022 15:46:15.772
115, 1.71617, 0.68024, 98.3282, 0.000976562, -0.00195312, -0.000976562, -0.0244141, 0.282227, -9.78418, 1.13.2022 15:46:15.780
116, 1.71617, 0.68024, 98.3282, 0, 0, -0.000976562, -0.115234, 0.291992, -9.77344, 1.13.2022 15:46:15.788
117, 1.71617, 0.68024, 98.3282, -0.000976562, 0, -0.000976562, -0.0791016, 0.276367, -9.75781, 1.13.2022 15:46:15.796
118, 1.71617, 0.68024, 98.3282, -0.00195312, 0, -0.000976562, -0.0996094, 0.304688, -9.73535, 1.13.2022 15:46:15.804
119, 1.71617, 0.68024, 98.3282, -0.00195312, 0.00195312, -0.000976562, -0.152344, 0.251953, -9.72168, 1.13.2022 15:46:15.812
120, 1.71617, 0.68024, 98.3282, -0.00195312, 0.000976562, 0, -0.0751953, 0.229492, -9.70215, 1.13.2022 15:46:15.820
121, 1.72146, 0.675668, 98.3282, -0.00292969, 0, -0.000976562, -0.125, 0.277344, -9.67676, 1.13.2022 15:46:15.828
122, 1.72146, 0.675668, 98.3282, -0.000976562, -0.00195312, -0.00195312, -0.130859, 0.319336, -9.75098, 1.13.2022 15:46:15.836
123, 1.71689, 0.670377, 98.3284, -0.00195312, -0.00292969, -0.000976562, -0.0166016, 0.34375, -9.76172, 1.13.2022 15:46:15.844
124, 1.71689, 0.670377, 98.3284, 0, -0.00292969, 0, -0.150391, 0.318359, -9.77148, 1.13.2022 15:46:15.852
125, 1.71689, 0.670377, 98.3284, 0.000976562, -0.000976562, -0.000976562, -0.0712891, 0.341797, -9.76758, 1.13.2022 15:46:15.860
126, 1.71689, 0.670377, 98.3284, 0.000976562, -0.000976562, -0.000976562, -0.078125, 0.3125, -9.73535, 1.13.2022 15:46:15.868
127, 1.71689, 0.670377, 98.3284, 0.000976562, 0, 0, -0.168945, 0.297852, -9.72949, 1.13.2022 15:46:15.876
128, 1.72218, 0.665804, 98.3284, 0.000976562, 0.000976562, 0, -0.104492, 0.248047, -9.74609, 1.13.2022 15:46:15.884
129, 1.72218, 0.665804, 98.3284, 0.000976562, 0, 0, -0.172852, 0.258789, -9.7002, 1.13.2022 15:46:15.892
130, 1.72218, 0.665804, 98.3284, 0.000976562, -0.000976562, -0.000976562, -0.168945, 0.263672, -9.71387, 1.13.2022 15:46:15.900
131, 1.72218, 0.665804, 98.3284, -0.00195312, 0, -0.000976562, -0.111328, 0.239258, -9.70605, 1.13.2022 15:46:15.908
132, 1.72218, 0.665804, 98.3284, -0.00195312, -0.000976562, 0, -0.183594, 0.27832, -9.73047, 1.13.2022 15:46:15.916
133, 1.71689, 0.670377, 98.3284, -0.00195312, -0.00292969, -0.000976562, -0.0859375, 0.300781, -9.76367, 1.13.2022 15:46:15.924
134, 1.71689, 0.670377, 98.3284, -0.00195312, -0.000976562, -0.000976562, -0.0761719, 0.291992, -9.71973, 1.13.2022 15:46:15.932
135, 1.71689, 0.670377, 98.3284, -0.000976562, -0.000976562, -0.000976562, -0.140625, 0.342773, -9.7832, 1.13.2022 15:46:15.940
136, 1.71689, 0.670377, 98.3284, -0.000976562, 0, -0.000976562, -0.0527344, 0.317383, -9.75488, 1.13.2022 15:46:15.948
137, 1.71689, 0.670377, 98.3284, -0.000976562, 0, 0, -0.112305, 0.34375, -9.76758, 1.13.2022 15:46:15.956
138, 1.71689, 0.670377, 98.3284, -0.000976562, -0.000976562, -0.000976562, -0.139648, 0.320312, -9.69922, 1.13.2022 15:46:15.964
139, 1.71689, 0.670377, 98.3284, 0.000976562, 0, 0, -0.102539, 0.271484, -9.73633, 1.13.2022 15:46:15.972
140, 1.71689, 0.670377, 98.3284, 0.000976562, 0, 0, -0.192383, 0.316406, -9.71191, 1.13.2022 15:46:15.980
141, 1.71689, 0.670377, 98.3284, 0.00195312, 0, 0, -0.101562, 0.285156, -9.71973, 1.13.2022 15:46:15.988
142, 1.71689, 0.670377, 98.3284, 0.000976562, -0.00195312, -0.000976562, -0.0820312, 0.277344, -9.69434, 1.13.2022 15:46:15.996
143, 1.72146, 0.675668, 98.3282, 0.000976562, -0.00195312, 0, -0.12793, 0.302734, -9.73242, 1.13.2022 15:46:16.004
144, 1.72128, 0.675615, 98.3184, -0.000976562, -0.00195312, 0, -0.0283203, 0.264648, -9.75195, 1.13.2022 15:46:16.012
145, 1.72657, 0.671042, 98.3184, -0.000976562, -0.000976562, 0, -0.107422, 0.295898, -9.74707, 1.13.2022 15:46:16.020
146, 1.72657, 0.671042, 98.3184, -0.00195312, -0.000976562, 0, -0.102539, 0.295898, -9.74219, 1.13.2022 15:46:16.028
147, 1.72657, 0.671042, 98.3184, -0.00195312, 0, 0, -0.0644531, 0.269531, -9.7627, 1.13.2022 15:46:16.036
148, 1.72657, 0.671042, 98.3184, -0.00195312, 0.000976562, 0, -0.168945, 0.286133, -9.74219, 1.13.2022 15:46:16.044
149, 1.722, 0.665751, 98.3186, -0.00195312, 0, 0, -0.113281, 0.294922, -9.71387, 1.13.2022 15:46:16.052
150, 1.72729, 0.661178, 98.3186, -0.00195312, 0, -0.000976562, -0.135742, 0.292969, -9.73535, 1.13.2022 15:46:16.060
151, 1.72729, 0.661178, 98.3186, -0.00195312, -0.000976562, 0, -0.139648, 0.304688, -9.71582, 1.13.2022 15:46:16.068
152, 1.72729, 0.661178, 98.3186, -0.000976562, -0.000976562, 0, -0.0498047, 0.280273, -9.72754, 1.13.2022 15:46:16.076
153, 1.72729, 0.661178, 98.3186, 0.000976562, -0.000976562, 0, -0.131836, 0.305664, -9.76758, 1.13.2022 15:46:16.084
154, 1.72729, 0.661178, 98.3186, 0.000976562, -0.000976562, -0.000976562, -0.133789, 0.305664, -9.76562, 1.13.2022 15:46:16.092
155, 1.72729, 0.661178, 98.3186, 0.000976562, -0.000976562, -0.000976562, -0.0673828, 0.262695, -9.77246, 1.13.2022 15:46:16.100
156, 1.72729, 0.661178, 98.3186, 0.000976562, 0, -0.000976562, -0.162109, 0.297852, -9.75098, 1.13.2022 15:46:16.108
157, 1.72729, 0.661178, 98.3186, -0.000976562, 0.000976562, -0.000976562, -0.100586, 0.264648, -9.75977, 1.13.2022 15:46:16.116
158, 1.72729, 0.661178, 98.3186, -0.000976562, 0, 0, -0.135742, 0.268555, -9.72168, 1.13.2022 15:46:16.124
159, 1.72729, 0.661178, 98.3186, -0.00195312, 0.000976562, 0, -0.173828, 0.297852, -9.72461, 1.13.2022 15:46:16.132
160, 1.72272, 0.655887, 98.3188, -0.00195312, 0, 0, -0.0830078, 0.258789, -9.72949, 1.13.2022 15:46:16.140
161, 1.72756, 0.661078, 98.3193, -0.00195312, -0.000976562, 0, -0.150391, 0.308594, -9.76953, 1.13.2022 15:46:16.148
162, 1.72756, 0.661078, 98.3193, -0.00195312, -0.000976562, -0.000976562, -0.142578, 0.365234, -9.74023, 1.13.2022 15:46:16.156
163, 1.72227, 0.665652, 98.3193, -0.00195312, -0.000976562, 0, -0.0908203, 0.30957, -9.74023, 1.13.2022 15:46:16.164
164, 1.72227, 0.665652, 98.3193, -0.000976562, -0.000976562, 0, -0.149414, 0.329102, -9.7334, 1.13.2022 15:46:16.172
165, 1.72227, 0.665652, 98.3193, -0.000976562, 0, 0.000976562, -0.0673828, 0.307617, -9.76367, 1.13.2022 15:46:16.180
166, 1.72756, 0.661078, 98.3193, -0.000976562, 0, -0.000976562, -0.107422, 0.301758, -9.78223, 1.13.2022 15:46:16.188
167, 1.73213, 0.666369, 98.319, -0.000976562, 0, 0, -0.168945, 0.326172, -9.72852, 1.13.2022 15:46:16.196
168, 1.73213, 0.666369, 98.319, 0, -0.000976562, 0, -0.0830078, 0.269531, -9.73926, 1.13.2022 15:46:16.204
169, 1.73213, 0.666369, 98.319, -0.000976562, 0, -0.000976562, -0.149414, 0.292969, -9.73535, 1.13.2022 15:46:16.212
170, 1.73213, 0.666369, 98.319, -0.000976562, 0, 0, -0.142578, 0.295898, -9.73535, 1.13.2022 15:46:16.220
171, 1.7367, 0.67166, 98.3188, -0.000976562, -0.000976562, 0, -0.0898438, 0.263672, -9.72754, 1.13.2022 15:46:16.228
172, 1.7367, 0.67166, 98.3188, -0.000976562, -0.000976562, 0, -0.15625, 0.304688, -9.70801, 1.13.2022 15:46:16.236
173, 1.7367, 0.67166, 98.3188, -0.000976562, -0.000976562, 0, -0.0751953, 0.260742, -9.70898, 1.13.2022 15:46:16.244
174, 1.7367, 0.67166, 98.3188, -0.00195312, -0.000976562, 0, -0.0976562, 0.283203, -9.74512, 1.13.2022 15:46:16.252
175, 1.7367, 0.67166, 98.3188, -0.00195312, 0, 0, -0.145508, 0.299805, -9.73438, 1.13.2022 15:46:16.260
176, 1.7367, 0.67166, 98.3188, -0.00195312, 0, 0, -0.0566406, 0.273438, -9.73438, 1.13.2022 15:46:16.268
177, 1.7367, 0.67166, 98.3188, -0.000976562, 0, 0, -0.144531, 0.326172, -9.72656, 1.13.2022 15:46:16.276
178, 1.7367, 0.67166, 98.3188, 0, -0.000976562, 0.000976562, -0.142578, 0.317383, -9.74609, 1.13.2022 15:46:16.284
179, 1.7367, 0.67166, 98.3188, 0, 0, 0, -0.102539, 0.287109, -9.76367, 1.13.2022 15:46:16.292
180, 1.7367, 0.67166, 98.3188, 0, -0.000976562, -0.000976562, -0.170898, 0.304688, -9.72266, 1.13.2022 15:46:16.300
181, 1.73598, 0.681524, 98.3186, 0, -0.000976562, 0, -0.0888672, 0.290039, -9.7832, 1.13.2022 15:46:16.308
182, 1.73598, 0.681524, 98.3186, -0.000976562, -0.000976562, -0.000976562, -0.119141, 0.295898, -9.76562, 1.13.2022 15:46:16.316
183, 1.73598, 0.681524, 98.3186, -0.000976562, -0.000976562, -0.000976562, -0.150391, 0.300781, -9.76074, 1.13.2022 15:46:16.324
184, 1.73598, 0.681524, 98.3186, -0.000976562, -0.000976562, -0.000976562, -0.0332031, 0.271484, -9.75879, 1.13.2022 15:46:16.332
185, 1.73598, 0.681524, 98.3186, -0.000976562, 0, -0.000976562, -0.107422, 0.267578, -9.75, 1.13.2022 15:46:16.340
186, 1.73598, 0.681524, 98.3186, -0.00195312, 0, -0.000976562, -0.114258, 0.292969, -9.74707, 1.13.2022 15:46:16.348
187, 1.73598, 0.681524, 98.3186, -0.00195312, 0, -0.000976562, -0.0712891, 0.287109, -9.71777, 1.13.2022 15:46:16.356
188, 1.74127, 0.676951, 98.3186, -0.000976562, 0, 0, -0.168945, 0.311523, -9.71289, 1.13.2022 15:46:16.364
189, 1.7367, 0.67166, 98.3188, -0.000976562, -0.000976562, 0.000976562, -0.0644531, 0.297852, -9.75, 1.13.2022 15:46:16.372
190, 1.7367, 0.67166, 98.3188, -0.000976562, -0.000976562, 0, -0.108398, 0.296875, -9.7002, 1.13.2022 15:46:16.380
191, 1.7367, 0.67166, 98.3188, 0, 0, 0, -0.134766, 0.31543, -9.69238, 1.13.2022 15:46:16.388
192, 1.7367, 0.67166, 98.3188, 0.000976562, -0.00292969, -0.000976562, -0.0576172, 0.291016, -9.75293, 1.13.2022 15:46:16.396
193, 1.7367, 0.67166, 98.3188, 0.000976562, -0.00195312, 0, -0.162109, 0.317383, -9.75098, 1.13.2022 15:46:16.404
194, 1.7367, 0.67166, 98.3188, 0.000976562, -0.000976562, 0.000976562, -0.109375, 0.310547, -9.75879, 1.13.2022 15:46:16.412
195, 1.7367, 0.67166, 98.3188, 0.000976562, -0.000976562, 0, -0.0693359, 0.250977, -9.78223, 1.13.2022 15:46:16.420
196, 1.7367, 0.67166, 98.3188, 0.000976562, 0, 0, -0.137695, 0.297852, -9.7207, 1.13.2022 15:46:16.428
197, 1.7367, 0.67166, 98.3188, 0, 0, -0.000976562, -0.0800781, 0.275391, -9.71484, 1.13.2022 15:46:16.436
198, 1.73213, 0.666369, 98.319, 0, 0, -0.000976562, -0.119141, 0.288086, -9.73047, 1.13.2022 15:46:16.444
199, 1.73213, 0.666369, 98.319, 0, 0, -0.000976562, -0.161133, 0.294922, -9.7041, 1.13.2022 15:46:16.452
200, 1.73213, 0.666369, 98.319, 0, -0.000976562, -0.000976562, -0.0615234, 0.24707, -9.72363, 1.13.2022 15:46:16.460
201, 1.73213, 0.666369, 98.319, -0.000976562, -0.000976562, -0.000976562, -0.15918, 0.285156, -9.72266, 1.13.2022 15:46:16.468
202, 1.73213, 0.666369, 98.319, -0.000976562, -0.000976562, 0, -0.116211, 0.299805, -9.7373, 1.13.2022 15:46:16.476
203, 1.73213, 0.666369, 98.319, -0.000976562, -0.000976562, -0.00195312, -0.0859375, 0.305664, -9.75195, 1.13.2022 15:46:16.484
204, 1.73213, 0.666369, 98.319, -0.000976562, -0.000976562, 0, -0.166992, 0.307617, -9.74316, 1.13.2022 15:46:16.492
205, 1.73213, 0.666369, 98.319, 0, 0, 0, -0.0761719, 0.294922, -9.73828, 1.13.2022 15:46:16.500
206, 1.73213, 0.666369, 98.319, 0, 0, 0, -0.119141, 0.283203, -9.72363, 1.13.2022 15:46:16.508
207, 1.73213, 0.666369, 98.319, -0.000976562, 0, 0, -0.168945, 0.297852, -9.74121, 1.13.2022 15:46:16.516
208, 1.72756, 0.661078, 98.3193, 0.000976562, 0, -0.000976562, -0.0693359, 0.248047, -9.75195, 1.13.2022 15:46:16.524
209, 1.72756, 0.661078, 98.3193, 0, 0, -0.000976562, -0.135742, 0.300781, -9.76562, 1.13.2022 15:46:16.532
210, 1.72756, 0.661078, 98.3193, 0.000976562, 0, -0.000976562, -0.0830078, 0.297852, -9.75488, 1.13.2022 15:46:16.540
211, 1.72729, 0.661178, 98.3186, -0.000976562, -0.000976562, -0.00195312, -0.0625, 0.277344, -9.76465, 1.13.2022 15:46:16.548
212, 1.72729, 0.661178, 98.3186, -0.000976562, -0.000976562, 0, -0.15918, 0.3125, -9.74805, 1.13.2022 15:46:16.556
213, 1.72729, 0.661178, 98.3186, -0.000976562, 0, 0, -0.0712891, 0.28125, -9.73926, 1.13.2022 15:46:16.564
214, 1.72729, 0.661178, 98.3186, 0, 0, -0.000976562, -0.0898438, 0.283203, -9.72656, 1.13.2022 15:46:16.572
215, 1.72729, 0.661178, 98.3186, 0, 0, 0, -0.119141, 0.3125, -9.74902, 1.13.2022 15:46:16.580
216, 1.72272, 0.655887, 98.3188, -0.000976562, -0.000976562, -0.000976562, -0.0800781, 0.290039, -9.72461, 1.13.2022 15:46:16.588
217, 1.72272, 0.655887, 98.3188, 0, 0, -0.000976562, -0.145508, 0.30957, -9.73926, 1.13.2022 15:46:16.596
218, 1.72272, 0.655887, 98.3188, 0, 0, -0.000976562, -0.125977, 0.314453, -9.7207, 1.13.2022 15:46:16.604
219, 1.72272, 0.655887, 98.3188, 0, -0.000976562, -0.000976562, -0.0996094, 0.287109, -9.71191, 1.13.2022 15:46:16.612
220, 1.72272, 0.655887, 98.3188, 0, -0.000976562, 0, -0.180664, 0.326172, -9.73535, 1.13.2022 15:46:16.620
221, 1.72272, 0.655887, 98.3188, -0.000976562, -0.00195312, 0, -0.0654297, 0.298828, -9.70508, 1.13.2022 15:46:16.628
222, 1.72272, 0.655887, 98.3188, 0.000976562, -0.00195312, -0.000976562, -0.125977, 0.300781, -9.74219, 1.13.2022 15:46:16.636
223, 1.72272, 0.655887, 98.3188, 0.000976562, -0.000976562, 0, -0.111328, 0.292969, -9.72168, 1.13.2022 15:46:16.644
224, 1.72272, 0.655887, 98.3188, 0, -0.000976562, -0.000976562, -0.0644531, 0.269531, -9.75586, 1.13.2022 15:46:16.652
225, 1.73258, 0.656605, 98.3186, -0.000976562, 0, -0.000976562, -0.173828, 0.307617, -9.73145, 1.13.2022 15:46:16.660
226, 1.73258, 0.656605, 98.3186, -0.00292969, 0, 0, -0.12793, 0.308594, -9.69727, 1.13.2022 15:46:16.668
227, 1.73258, 0.656605, 98.3186, -0.000976562, -0.00195312, 0.000976562, -0.0927734, 0.288086, -9.7168, 1.13.2022 15:46:16.676
228, 1.73258, 0.656605, 98.3186, -0.000976562, -0.000976562, 0, -0.15625, 0.316406, -9.70312, 1.13.2022 15:46:16.682
229, 1.73258, 0.656605, 98.3186, 0, -0.000976562, 0, -0.0634766, 0.290039, -9.71289, 1.13.2022 15:46:16.690
230, 1.73258, 0.656605, 98.3186, 0, 0, 0, -0.121094, 0.288086, -9.74219, 1.13.2022 15:46:16.698
231, 1.73258, 0.656605, 98.3186, 0, -0.000976562, -0.000976562, -0.147461, 0.288086, -9.73535, 1.13.2022 15:46:16.706
232, 1.73258, 0.656605, 98.3186, 0, -0.00195312, -0.000976562, -0.0673828, 0.289062, -9.77441, 1.13.2022 15:46:16.714
233, 1.73715, 0.661896, 98.3184, 0, 0, 0, -0.147461, 0.288086, -9.72754, 1.13.2022 15:46:16.722
234, 1.73715, 0.661896, 98.3184, 0, -0.000976562, 0, -0.104492, 0.299805, -9.72852, 1.13.2022 15:46:16.730
235, 1.73715, 0.661896, 98.3184, 0.000976562, 0, -0.000976562, -0.0810547, 0.277344, -9.76465, 1.13.2022 15:46:16.738
236, 1.73715, 0.661896, 98.3184, 0, 0, -0.000976562, -0.154297, 0.292969, -9.73926, 1.13.2022 15:46:16.746
237, 1.73258, 0.656605, 98.3186, 0.000976562, -0.000976562, 0, -0.0644531, 0.266602, -9.74414, 1.13.2022 15:46:16.754
238, 1.73258, 0.656605, 98.3186, 0, 0, 0, -0.111328, 0.27832, -9.72852, 1.13.2022 15:46:16.762
239, 1.73258, 0.656605, 98.3186, 0, 0, 0, -0.12207, 0.277344, -9.77637, 1.13.2022 15:46:16.770
240, 1.73258, 0.656605, 98.3186, 0, -0.000976562, 0, -0.0576172, 0.283203, -9.74805, 1.13.2022 15:46:16.778
241, 1.73285, 0.656505, 98.3192, -0.000976562, -0.000976562, 0, -0.168945, 0.304688, -9.73145, 1.13.2022 15:46:16.786
242, 1.73285, 0.656505, 98.3192, 0, 0, -0.000976562, -0.121094, 0.288086, -9.72363, 1.13.2022 15:46:16.794
243, 1.73258, 0.656605, 98.3186, 0, 0, -0.000976562, -0.0966797, 0.294922, -9.70996, 1.13.2022 15:46:16.802
244, 1.73258, 0.656605, 98.3186, 0, 0, 0, -0.132812, 0.318359, -9.70605, 1.13.2022 15:46:16.810
245, 1.72827, 0.651215, 98.3194, 0, 0, 0, -0.0449219, 0.294922, -9.73633, 1.13.2022 15:46:16.818
246, 1.72827, 0.651215, 98.3194, 0, 0, 0, -0.116211, 0.30957, -9.73047, 1.13.2022 15:46:16.826
247, 1.72827, 0.651215, 98.3194, 0, -0.000976562, 0, -0.130859, 0.307617, -9.75586, 1.13.2022 15:46:16.834
248, 1.72827, 0.651215, 98.3194, 0, -0.000976562, 0, -0.0664062, 0.273438, -9.73926, 1.13.2022 15:46:16.842
249, 1.72827, 0.651215, 98.3194, 0, -0.000976562, -0.000976562, -0.172852, 0.299805, -9.70801, 1.13.2022 15:46:16.850
250, 1.72827, 0.651215, 98.3194, 0, 0, -0.000976562, -0.0751953, 0.290039, -9.7168, 1.13.2022 15:46:16.858
251, 1.72827, 0.651215, 98.3194, 0, -0.000976562, 0, -0.0878906, 0.267578, -9.75293, 1.13.2022 15:46:16.866
252, 1.72827, 0.651215, 98.3194, 0.000976562, -0.000976562, 0, -0.157227, 0.273438, -9.72363, 1.13.2022 15:46:16.874
253, 1.72827, 0.651215, 98.3194, 0, 0.000976562, -0.000976562, -0.0615234, 0.244141, -9.71875, 1.13.2022 15:46:16.882
254, 1.7237, 0.645924, 98.3196, -0.00195312, 0, -0.000976562, -0.12207, 0.28125, -9.75684, 1.13.2022 15:46:16.890
255, 1.7237, 0.645924, 98.3196, 0, -0.000976562, -0.000976562, -0.0927734, 0.295898, -9.75977, 1.13.2022 15:46:16.898
256, 1.72344, 0.646022, 98.319, -0.00195312, 0, -0.00195312, -0.0527344, 0.274414, -9.74414, 1.13.2022 15:46:16.906
257, 1.72344, 0.646022, 98.319, 0.000976562, -0.000976562, -0.000976562, -0.162109, 0.30957, -9.73145, 1.13.2022 15:46:16.914
258, 1.71887, 0.640731, 98.3192, 0, -0.000976562, 0, -0.0898438, 0.306641, -9.7002, 1.13.2022 15:46:16.922
259, 1.71887, 0.640731, 98.3192, -0.00195312, -0.000976562, 0, -0.112305, 0.276367, -9.74023, 1.13.2022 15:46:16.930
260, 1.71887, 0.640731, 98.3192, 0, -0.000976562, 0, -0.161133, 0.294922, -9.7207, 1.13.2022 15:46:16.938
261, 1.71887, 0.640731, 98.3192, 0, -0.000976562, 0, -0.0810547, 0.307617, -9.73535, 1.13.2022 15:46:16.946
262, 1.71887, 0.640731, 98.3192, 0.000976562, -0.000976562, 0, -0.109375, 0.286133, -9.73145, 1.13.2022 15:46:16.954
263, 1.71887, 0.640731, 98.3192, 0.000976562, -0.000976562, -0.000976562, -0.111328, 0.296875, -9.7168, 1.13.2022 15:46:16.962
264, 1.71887, 0.640731, 98.3192, 0.000976562, 0, 0, -0.0644531, 0.280273, -9.78125, 1.13.2022 15:46:16.970
265, 1.71429, 0.63544, 98.3194, 0.000976562, 0.000976562, 0, -0.164062, 0.311523, -9.72656, 1.13.2022 15:46:16.978
266, 1.71429, 0.63544, 98.3194, 0, 0, -0.000976562, -0.0761719, 0.27832, -9.74316, 1.13.2022 15:46:16.986
267, 1.71429, 0.63544, 98.3194, 0, -0.000976562, -0.000976562, -0.111328, 0.265625, -9.69141, 1.13.2022 15:46:16.994
268, 1.71429, 0.63544, 98.3194, 0, -0.000976562, -0.000976562, -0.164062, 0.311523, -9.71094, 1.13.2022 15:46:17.002
269, 1.71429, 0.63544, 98.3194, 0.000976562, 0, 0, -0.0615234, 0.276367, -9.72754, 1.13.2022 15:46:17.010
270, 1.71429, 0.63544, 98.3194, 0, -0.000976562, 0.000976562, -0.119141, 0.283203, -9.74023, 1.13.2022 15:46:17.018
271, 1.71429, 0.63544, 98.3194, 0, -0.000976562, 0, -0.120117, 0.303711, -9.78418, 1.13.2022 15:46:17.026
272, 1.71429, 0.63544, 98.3194, -0.00195312, 0, 0, -0.0332031, 0.256836, -9.72852, 1.13.2022 15:46:17.034
273, 1.71429, 0.63544, 98.3194, 0, 0, -0.000976562, -0.157227, 0.324219, -9.72656, 1.13.2022 15:46:17.042
274, 1.71429, 0.63544, 98.3194, 0, 0, -0.000976562, -0.0810547, 0.289062, -9.75781, 1.13.2022 15:46:17.050
275, 1.70972, 0.630149, 98.3196, 0, 0, -0.000976562, -0.107422, 0.302734, -9.74219, 1.13.2022 15:46:17.058
276, 1.70972, 0.630149, 98.3196, 0, -0.000976562, 0, -0.166016, 0.294922, -9.71777, 1.13.2022 15:46:17.066
277, 1.70972, 0.630149, 98.3196, 0, 0, -0.000976562, -0.0859375, 0.261719, -9.74121, 1.13.2022 15:46:17.074
278, 1.70972, 0.630149, 98.3196, -0.00195312, -0.000976562, -0.000976562, -0.154297, 0.27832, -9.7207, 1.13.2022 15:46:17.082
279, 1.70972, 0.630149, 98.3196, -0.00195312, 0, -0.000976562, -0.118164, 0.290039, -9.71387, 1.13.2022 15:46:17.090
280, 1.70972, 0.630149, 98.3196, -0.00195312, -0.000976562, 0, -0.0878906, 0.274414, -9.74805, 1.13.2022 15:46:17.098
281, 1.71429, 0.63544, 98.3194, -0.00195312, -0.00195312, 0, -0.180664, 0.292969, -9.72949, 1.13.2022 15:46:17.106
282, 1.71429, 0.63544, 98.3194, -0.00195312, -0.00195312, 0, -0.0927734, 0.298828, -9.76367, 1.13.2022 15:46:17.114
283, 1.70901, 0.640013, 98.3194, 0, -0.000976562, 0, -0.119141, 0.270508, -9.77148, 1.13.2022 15:46:17.122
284, 1.70901, 0.640013, 98.3194, 0, 0, 0, -0.143555, 0.289062, -9.75684, 1.13.2022 15:46:17.130
285, 1.70901, 0.640013, 98.3194, 0, 0, -0.000976562, -0.0644531, 0.27832, -9.73438, 1.13.2022 15:46:17.138
286, 1.70901, 0.640013, 98.3194, 0, 0, 0, -0.12793, 0.275391, -9.70508, 1.13.2022 15:46:17.146
287, 1.70901, 0.640013, 98.3194, 0, 0, 0, -0.116211, 0.311523, -9.72266, 1.13.2022 15:46:17.154
288, 1.70372, 0.644586, 98.3194, 0, -0.000976562, -0.000976562, -0.09375, 0.277344, -9.77441, 1.13.2022 15:46:17.162
289, 1.70372, 0.644586, 98.3194, 0, -0.000976562, -0.000976562, -0.155273, 0.307617, -9.74609, 1.13.2022 15:46:17.170
290, 1.70372, 0.644586, 98.3194, 0, -0.000976562, -0.000976562, -0.0664062, 0.286133, -9.73438, 1.13.2022 15:46:17.178
291, 1.70372, 0.644586, 98.3194, 0, -0.000976562, -0.000976562, -0.078125, 0.276367, -9.73145, 1.13.2022 15:46:17.186
292, 1.70372, 0.644586, 98.3194, 0, 0, -0.000976562, -0.161133, 0.288086, -9.71582, 1.13.2022 15:46:17.194
293, 1.70372, 0.644586, 98.3194, 0.000976562, -0.000976562, -0.000976562, -0.0429688, 0.291016, -9.76758, 1.13.2022 15:46:17.202
294, 1.70372, 0.644586, 98.3194, 0, 0, -0.000976562, -0.136719, 0.303711, -9.68945, 1.13.2022 15:46:17.210
295, 1.70372, 0.644586, 98.3194, 0, 0, -0.000976562, -0.124023, 0.302734, -9.73047, 1.13.2022 15:46:17.218
296, 1.70372, 0.644586, 98.3194, 0, 0, -0.000976562, -0.0830078, 0.258789, -9.72266, 1.13.2022 15:46:17.226
297, 1.70372, 0.644586, 98.3194, 0, -0.000976562, -0.000976562, -0.178711, 0.31543, -9.76172, 1.13.2022 15:46:17.234
298, 1.70372, 0.644586, 98.3194, 0, 0, -0.000976562, -0.0996094, 0.28125, -9.73828, 1.13.2022 15:46:17.242
299, 1.70372, 0.644586, 98.3194, 0.000976562, -0.000976562, 0, -0.12793, 0.283203, -9.71875, 1.13.2022 15:46:17.250
300, 1.70372, 0.644586, 98.3194, 0, -0.000976562, 0, -0.145508, 0.328125, -9.78613, 1.13.2022 15:46:17.258
301, 1.70372, 0.644586, 98.3194, -0.000976562, 0, 0, -0.0498047, 0.287109, -9.71777, 1.13.2022 15:46:17.266
302, 1.70372, 0.644586, 98.3194, 0, -0.000976562, -0.000976562, -0.175781, 0.286133, -9.72949, 1.13.2022 15:46:17.274
303, 1.70829, 0.649877, 98.3192, 0, 0, 0, -0.129883, 0.298828, -9.69727, 1.13.2022 15:46:17.282
304, 1.70829, 0.649877, 98.3192, 0, 0, -0.000976562, -0.078125, 0.299805, -9.73145, 1.13.2022 15:46:17.290
305, 1.70829, 0.649877, 98.3192, -0.000976562, 0, 0, -0.173828, 0.302734, -9.73145, 1.13.2022 15:46:17.298
306, 1.70829, 0.649877, 98.3192, 0, -0.000976562, 0, -0.12207, 0.269531, -9.76465, 1.13.2022 15:46:17.306
307, 1.703, 0.654451, 98.3192, 0, -0.000976562, -0.000976562, -0.12207, 0.277344, -9.75977, 1.13.2022 15:46:17.314
308, 1.70757, 0.659742, 98.319, -0.000976562, 0, 0, -0.185547, 0.299805, -9.73438, 1.13.2022 15:46:17.322
309, 1.70757, 0.659742, 98.319, 0, 0, 0, -0.0380859, 0.274414, -9.76562, 1.13.2022 15:46:17.330
310, 1.70757, 0.659742, 98.319, -0.000976562, -0.000976562, -0.000976562, -0.139648, 0.290039, -9.71191, 1.13.2022 15:46:17.338
311, 1.70757, 0.659742, 98.319, 0.000976562, 0, 0, -0.125977, 0.295898, -9.74023, 1.13.2022 15:46:17.346
312, 1.70757, 0.659742, 98.319, 0, 0, -0.000976562, -0.0722656, 0.277344, -9.78418, 1.13.2022 15:46:17.354
313, 1.71214, 0.665033, 98.3188, 0, -0.000976562, 0, -0.155273, 0.325195, -9.75488, 1.13.2022 15:46:17.362
314, 1.71214, 0.665033, 98.3188, 0, -0.000976562, 0, -0.0859375, 0.302734, -9.74023, 1.13.2022 15:46:17.370
315, 1.71214, 0.665033, 98.3188, 0, 0, 0, -0.114258, 0.296875, -9.77051, 1.13.2022 15:46:17.378
316, 1.71214, 0.665033, 98.3188, 0.000976562, -0.000976562, 0, -0.116211, 0.318359, -9.70605, 1.13.2022 15:46:17.386
317, 1.71214, 0.665033, 98.3188, 0, -0.000976562, 0, -0.0644531, 0.271484, -9.72949, 1.13.2022 15:46:17.394
318, 1.71214, 0.665033, 98.3188, 0, 0, 0, -0.162109, 0.310547, -9.75098, 1.13.2022 15:46:17.402
319, 1.71214, 0.665033, 98.3188, 0, -0.000976562, 0, -0.12793, 0.285156, -9.70898, 1.13.2022 15:46:17.410
320, 1.71214, 0.665033, 98.3188, -0.000976562, -0.000976562, -0.000976562, -0.104492, 0.263672, -9.72266, 1.13.2022 15:46:17.418
321, 1.71671, 0.670324, 98.3186, -0.000976562, -0.000976562, -0.000976562, -0.164062, 0.307617, -9.74805, 1.13.2022 15:46:17.426
322, 1.71671, 0.670324, 98.3186, 0, -0.000976562, 0, -0.0878906, 0.280273, -9.70801, 1.13.2022 15:46:17.434
323, 1.71671, 0.670324, 98.3186, -0.00195312, -0.000976562, -0.000976562, -0.0927734, 0.27832, -9.7334, 1.13.2022 15:46:17.442
324, 1.71671, 0.670324, 98.3186, -0.00195312, -0.000976562, 0, -0.12793, 0.308594, -9.7041, 1.13.2022 15:46:17.450
325, 1.71671, 0.670324, 98.3186, -0.000976562, -0.000976562, -0.000976562, -0.0634766, 0.296875, -9.72168, 1.13.2022 15:46:17.458
326, 1.71671, 0.670324, 98.3186, -0.000976562, 0, -0.000976562, -0.133789, 0.31543, -9.74902, 1.13.2022 15:46:17.466
327, 1.71671, 0.670324, 98.3186, 0.000976562, -0.000976562, 0, -0.0986328, 0.279297, -9.69141, 1.13.2022 15:46:17.474
328, 1.71671, 0.670324, 98.3186, 0, -0.000976562, 0, -0.0517578, 0.27832, -9.71582, 1.13.2022 15:46:17.482
329, 1.71671, 0.670324, 98.3186, 0, -0.000976562, 0, -0.155273, 0.332031, -9.75977, 1.13.2022 15:46:17.490
330, 1.71671, 0.670324, 98.3186, -0.000976562, 0, -0.000976562, -0.0693359, 0.305664, -9.75684, 1.13.2022 15:46:17.498
331, 1.71671, 0.670324, 98.3186, 0.000976562, 0, -0.000976562, -0.109375, 0.276367, -9.72461, 1.13.2022 15:46:17.506
332, 1.722, 0.665751, 98.3186, 0, 0, 0, -0.142578, 0.283203, -9.73047, 1.13.2022 15:46:17.514
333, 1.722, 0.665751, 98.3186, 0, 0, 0, -0.0566406, 0.275391, -9.69629, 1.13.2022 15:46:17.522
334, 1.722, 0.665751, 98.3186, 0, 0, 0, -0.152344, 0.28125, -9.72559, 1.13.2022 15:46:17.530
335, 1.71743, 0.66046, 98.3188, 0.000976562, -0.000976562, 0, -0.111328, 0.287109, -9.71191, 1.13.2022 15:46:17.538
336, 1.71743, 0.66046, 98.3188, 0, -0.000976562, 0.000976562, -0.0546875, 0.267578, -9.76074, 1.13.2022 15:46:17.546
337, 1.71743, 0.66046, 98.3188, 0, -0.000976562, 0, -0.164062, 0.288086, -9.7373, 1.13.2022 15:46:17.554
338, 1.71743, 0.66046, 98.3188, -0.000976562, 0, -0.000976562, -0.0878906, 0.285156, -9.72656, 1.13.2022 15:46:17.562
339, 1.71743, 0.66046, 98.3188, -0.000976562, -0.000976562, -0.000976562, -0.123047, 0.287109, -9.70215, 1.13.2022 15:46:17.570
340, 1.71743, 0.66046, 98.3188, 0, -0.000976562, 0, -0.12793, 0.311523, -9.71582, 1.13.2022 15:46:17.578
341, 1.71743, 0.66046, 98.3188, 0, 0, 0, -0.0830078, 0.270508, -9.71289, 1.13.2022 15:46:17.586
342, 1.71286, 0.655169, 98.319, -0.000976562, 0, -0.000976562, -0.152344, 0.320312, -9.75977, 1.13.2022 15:46:17.594
343, 1.71286, 0.655169, 98.319, -0.000976562, -0.000976562, -0.000976562, -0.107422, 0.307617, -9.74902, 1.13.2022 15:46:17.602
344, 1.71286, 0.655169, 98.319, 0.000976562, 0, 0, -0.078125, 0.302734, -9.73828, 1.13.2022 15:46:17.610
345, 1.71286, 0.655169, 98.319, 0.000976562, -0.000976562, 0, -0.162109, 0.295898, -9.7627, 1.13.2022 15:46:17.618
346, 1.71286, 0.655169, 98.319, 0.000976562, 0, -0.000976562, -0.0761719, 0.269531, -9.75781, 1.13.2022 15:46:17.626
347, 1.71286, 0.655169, 98.319, 0, -0.000976562, 0, -0.102539, 0.268555, -9.73145, 1.13.2022 15:46:17.634
348, 1.71815, 0.650595, 98.319, -0.000976562, 0, -0.000976562, -0.132812, 0.299805, -9.70703, 1.13.2022 15:46:17.642
349, 1.71815, 0.650595, 98.319, -0.000976562, -0.000976562, 0, -0.0634766, 0.30957, -9.71973, 1.13.2022 15:46:17.650
350, 1.71815, 0.650595, 98.319, -0.000976562, -0.000976562, 0, -0.15918, 0.302734, -9.74609, 1.13.2022 15:46:17.656
351, 1.71841, 0.650497, 98.3197, 0, -0.000976562, 0, -0.0976562, 0.335938, -9.73242, 1.13.2022 15:46:17.664
352, 1.71841, 0.650497, 98.3197, 0, -0.000976562, 0, -0.0878906, 0.286133, -9.74121, 1.13.2022 15:46:17.672
353, 1.71841, 0.650497, 98.3197, 0, -0.000976562, 0, -0.168945, 0.285156, -9.71582, 1.13.2022 15:46:17.680
354, 1.71841, 0.650497, 98.3197, -0.000976562, -0.000976562, 0, -0.0625, 0.262695, -9.75879, 1.13.2022 15:46:17.688
355, 1.71841, 0.650497, 98.3197, -0.00195312, 0, 0, -0.130859, 0.30957, -9.72559, 1.13.2022 15:46:17.696
356, 1.71841, 0.650497, 98.3197, -0.000976562, -0.000976562, 0, -0.140625, 0.3125, -9.74609, 1.13.2022 15:46:17.704
357, 1.71841, 0.650497, 98.3197, -0.000976562, -0.000976562, 0, -0.0625, 0.274414, -9.7627, 1.13.2022 15:46:17.712
358, 1.71841, 0.650497, 98.3197, -0.00195312, 0, 0, -0.176758, 0.287109, -9.76074, 1.13.2022 15:46:17.720
359, 1.71841, 0.650497, 98.3197, 0, 0, 0, -0.125977, 0.285156, -9.71875, 1.13.2022 15:46:17.728
360, 1.71841, 0.650497, 98.3197, -0.00195312, 0, 0, -0.078125, 0.274414, -9.74316, 1.13.2022 15:46:17.736
361, 1.72298, 0.655788, 98.3195, -0.000976562, -0.000976562, 0, -0.140625, 0.292969, -9.72559, 1.13.2022 15:46:17.744
362, 1.72298, 0.655788, 98.3195, -0.000976562, -0.000976562, 0, -0.0683594, 0.263672, -9.71094, 1.13.2022 15:46:17.752
363, 1.72298, 0.655788, 98.3195, -0.000976562, -0.00195312, 0, -0.145508, 0.273438, -9.73047, 1.13.2022 15:46:17.760
364, 1.72298, 0.655788, 98.3195, -0.000976562, -0.000976562, 0, -0.121094, 0.313477, -9.71387, 1.13.2022 15:46:17.768
365, 1.72298, 0.655788, 98.3195, 0, -0.000976562, 0, -0.0732422, 0.283203, -9.73145, 1.13.2022 15:46:17.776
366, 1.72298, 0.655788, 98.3195, -0.000976562, 0, 0, -0.185547, 0.307617, -9.73145, 1.13.2022 15:46:17.784
367, 1.72298, 0.655788, 98.3195, -0.00195312, -0.000976562, 0, -0.0996094, 0.314453, -9.71875, 1.13.2022 15:46:17.792
368, 1.72298, 0.655788, 98.3195, -0.00195312, 0, 0, -0.0947266, 0.273438, -9.73828, 1.13.2022 15:46:17.800
369, 1.72298, 0.655788, 98.3195, 0, 0.000976562, 0, -0.143555, 0.313477, -9.76465, 1.13.2022 15:46:17.808
370, 1.72298, 0.655788, 98.3195, -0.000976562, 0, 0, -0.0517578, 0.27832, -9.7207, 1.13.2022 15:46:17.816
371, 1.72298, 0.655788, 98.3195, 0, -0.000976562, -0.000976562, -0.138672, 0.289062, -9.75684, 1.13.2022 15:46:17.824
372, 1.72298, 0.655788, 98.3195, -0.000976562, -0.000976562, 0, -0.114258, 0.294922, -9.7334, 1.13.2022 15:46:17.832
373, 1.72298, 0.655788, 98.3195, -0.000976562, -0.000976562, 0, -0.0585938, 0.249023, -9.7041, 1.13.2022 15:46:17.840
374, 1.71769, 0.660361, 98.3195, -0.000976562, 0, -0.000976562, -0.164062, 0.292969, -9.73438, 1.13.2022 15:46:17.848
375, 1.71769, 0.660361, 98.3195, -0.000976562, 0, -0.000976562, -0.119141, 0.302734, -9.74023, 1.13.2022 15:46:17.856
376, 1.71769, 0.660361, 98.3195, -0.000976562, 0, -0.000976562, -0.109375, 0.266602, -9.71777, 1.13.2022 15:46:17.864
377, 1.71312, 0.65507, 98.3197, 0, 0, 0, -0.152344, 0.319336, -9.74316, 1.13.2022 15:46:17.872
378, 1.71312, 0.65507, 98.3197, -0.000976562, 0, 0, -0.0732422, 0.271484, -9.72949, 1.13.2022 15:46:17.880
379, 1.71312, 0.65507, 98.3197, 0, 0, 0, -0.125977, 0.307617, -9.73242, 1.13.2022 15:46:17.888
380, 1.71312, 0.65507, 98.3197, 0, -0.000976562, 0, -0.12793, 0.341797, -9.70117, 1.13.2022 15:46:17.896
381, 1.71312, 0.65507, 98.3197, -0.000976562, -0.00195312, 0, -0.0732422, 0.283203, -9.73438, 1.13.2022 15:46:17.904
382, 1.71769, 0.660361, 98.3195, -0.00195312, 0, 0, -0.180664, 0.321289, -9.72168, 1.13.2022 15:46:17.912
383, 1.71769, 0.660361, 98.3195, -0.00195312, 0, 0, -0.0996094, 0.282227, -9.70801, 1.13.2022 15:46:17.920
384, 1.71769, 0.660361, 98.3195, -0.000976562, 0, 0, -0.112305, 0.27832, -9.74023, 1.13.2022 15:46:17.928
385, 1.71769, 0.660361, 98.3195, -0.000976562, 0, 0, -0.140625, 0.3125, -9.73242, 1.13.2022 15:46:17.936
386, 1.71769, 0.660361, 98.3195, -0.000976562, 0, -0.000976562, -0.0400391, 0.297852, -9.73633, 1.13.2022 15:46:17.944
387, 1.72298, 0.655788, 98.3195, -0.00195312, -0.000976562, 0, -0.135742, 0.292969, -9.73535, 1.13.2022 15:46:17.952
388, 1.72298, 0.655788, 98.3195, -0.000976562, -0.000976562, 0, -0.137695, 0.30957, -9.73438, 1.13.2022 15:46:17.960
389, 1.72756, 0.661078, 98.3193, -0.000976562, -0.000976562, -0.000976562, -0.0693359, 0.271484, -9.74121, 1.13.2022 15:46:17.968
390, 1.72756, 0.661078, 98.3193, -0.00195312, 0, -0.000976562, -0.121094, 0.306641, -9.70898, 1.13.2022 15:46:17.976
391, 1.72756, 0.661078, 98.3193, -0.000976562, 0, 0, -0.0859375, 0.307617, -9.73828, 1.13.2022 15:46:17.984
392, 1.72756, 0.661078, 98.3193, 0, 0, 0, -0.104492, 0.305664, -9.75684, 1.13.2022 15:46:17.992
393, 1.72756, 0.661078, 98.3193, -0.000976562, 0, 0, -0.142578, 0.333984, -9.75488, 1.13.2022 15:46:18.000
394, 1.73285, 0.656505, 98.3192, 0, 0, 0, -0.0449219, 0.266602, -9.73926, 1.13.2022 15:46:18.008
395, 1.73285, 0.656505, 98.3192, 0, -0.000976562, 0, -0.142578, 0.274414, -9.74219, 1.13.2022 15:46:18.016
396, 1.73285, 0.656505, 98.3192, -0.000976562, 0, 0, -0.0898438, 0.319336, -9.73242, 1.13.2022 15:46:18.024
397, 1.73285, 0.656505, 98.3192, 0, 0, 0, -0.0849609, 0.291992, -9.69824, 1.13.2022 15:46:18.032
398, 1.72827, 0.651215, 98.3194, -0.000976562, -0.000976562, 0, -0.179688, 0.303711, -9.68652, 1.13.2022 15:46:18.040
399, 1.73285, 0.656505, 98.3192, -0.000976562, -0.000976562, 0, -0.0849609, 0.301758, -9.71875, 1.13.2022 15:46:18.048
400, 1.73814, 0.651932, 98.3192, -0.00195312, -0.000976562, 0, -0.0996094, 0.307617, -9.74023, 1.13.2022 15:46:18.056
401, 1.73814, 0.651932, 98.3192, -0.000976562, -0.000976562, 0, -0.161133, 0.314453, -9.72461, 1.13.2022 15:46:18.064
402, 1.73814, 0.651932, 98.3192, 0, -0.000976562, 0, -0.0830078, 0.290039, -9.70996, 1.13.2022 15:46:18.072
403, 1.73814, 0.651932, 98.3192, 0.000976562, 0, -0.000976562, -0.147461, 0.286133, -9.74902, 1.13.2022 15:46:18.080
404, 1.73814, 0.651932, 98.3192, 0, 0, -0.000976562, -0.155273, 0.305664, -9.76074, 1.13.2022 15:46:18.088
405, 1.73814, 0.651932, 98.3192, 0, 0, 0, -0.0693359, 0.291016, -9.75977, 1.13.2022 15:46:18.096
406, 1.73814, 0.651932, 98.3192, 0, -0.000976562, 0, -0.164062, 0.314453, -9.72461, 1.13.2022 15:46:18.104
407, 1.73814, 0.651932, 98.3192, -0.000976562, -0.000976562, 0, -0.0996094, 0.299805, -9.72559, 1.13.2022 15:46:18.112
408, 1.74271, 0.657223, 98.319, -0.000976562, 0, 0, -0.119141, 0.297852, -9.74902, 1.13.2022 15:46:18.120
409, 1.74271, 0.657223, 98.319, -0.000976562, 0, -0.000976562, -0.168945, 0.280273, -9.71582, 1.13.2022 15:46:18.128
410, 1.74271, 0.657223, 98.319, -0.000976562, 0, -0.000976562, -0.0751953, 0.259766, -9.68066, 1.13.2022 15:46:18.136
411, 1.74271, 0.657223, 98.319, -0.000976562, 0, -0.000976562, -0.166016, 0.313477, -9.70312, 1.13.2022 15:46:18.144
412, 1.74271, 0.657223, 98.319, -0.000976562, 0, 0, -0.0996094, 0.28125, -9.73633, 1.13.2022 15:46:18.152
413, 1.74271, 0.657223, 98.319, -0.000976562, 0, -0.000976562, -0.0927734, 0.288086, -9.74512, 1.13.2022 15:46:18.160
414, 1.74728, 0.662514, 98.3188, -0.000976562, -0.000976562, -0.000976562, -0.168945, 0.307617, -9.73438, 1.13.2022 15:46:18.168
415, 1.74728, 0.662514, 98.3188, -0.000976562, -0.000976562, -0.000976562, -0.0732422, 0.275391, -9.71777, 1.13.2022 15:46:18.176
416, 1.74728, 0.662514, 98.3188, -0.000976562, -0.000976562, 0, -0.0878906, 0.292969, -9.73633, 1.13.2022 15:46:18.184
417, 1.74199, 0.667087, 98.3188, -0.000976562, -0.000976562, 0, -0.149414, 0.283203, -9.72559, 1.13.2022 15:46:18.192
418, 1.74199, 0.667087, 98.3188, -0.000976562, -0.000976562, 0, -0.0664062, 0.25, -9.72559, 1.13.2022 15:46:18.200
419, 1.74199, 0.667087, 98.3188, 0, -0.000976562, -0.000976562, -0.154297, 0.274414, -9.7373, 1.13.2022 15:46:18.208
420, 1.74199, 0.667087, 98.3188, -0.000976562, 0, 0, -0.134766, 0.298828, -9.7041, 1.13.2022 15:46:18.216
421, 1.74199, 0.667087, 98.3188, 0, 0.000976562, -0.000976562, -0.100586, 0.286133, -9.75195, 1.13.2022 15:46:18.224
422, 1.7367, 0.67166, 98.3188, 0, 0, 0, -0.166016, 0.285156, -9.69727, 1.13.2022 15:46:18.232
423, 1.7367, 0.67166, 98.3188, -0.000976562, -0.000976562, 0, -0.0761719, 0.297852, -9.7334, 1.13.2022 15:46:18.240
424, 1.7367, 0.67166, 98.3188, -0.000976562, -0.000976562, -0.000976562, -0.114258, 0.272461, -9.75488, 1.13.2022 15:46:18.248
425, 1.7367, 0.67166, 98.3188, 0, -0.00195312, 0, -0.12793, 0.302734, -9.73242, 1.13.2022 15:46:18.256
426, 1.73141, 0.676233, 98.3189, -0.00195312, -0.000976562, 0, -0.0732422, 0.302734, -9.72852, 1.13.2022 15:46:18.264
427, 1.73141, 0.676233, 98.3189, -0.000976562, -0.000976562, 0, -0.166992, 0.300781, -9.74414, 1.13.2022 15:46:18.272
428, 1.73141, 0.676233, 98.3189, 0, -0.000976562, -0.000976562, -0.101562, 0.290039, -9.72363, 1.13.2022 15:46:18.280
429, 1.73141, 0.676233, 98.3189, -0.000976562, -0.000976562, -0.000976562, -0.104492, 0.28125, -9.73633, 1.13.2022 15:46:18.288
430, 1.73141, 0.676233, 98.3189, -0.000976562, -0.00195312, 0, -0.162109, 0.302734, -9.72949, 1.13.2022 15:46:18.296
431, 1.72612, 0.680806, 98.3189, 0, -0.000976562, 0, -0.0498047, 0.271484, -9.73926, 1.13.2022 15:46:18.304
432, 1.72612, 0.680806, 98.3189, 0, -0.000976562, 0, -0.114258, 0.288086, -9.72656, 1.13.2022 15:46:18.312
433, 1.72155, 0.675515, 98.3191, 0, 0, 0, -0.130859, 0.279297, -9.74512, 1.13.2022 15:46:18.320
434, 1.72155, 0.675515, 98.3191, -0.000976562, -0.000976562, 0, -0.0742188, 0.265625, -9.77441, 1.13.2022 15:46:18.328
435, 1.72155, 0.675515, 98.3191, -0.000976562, -0.000976562, 0, -0.142578, 0.300781, -9.74219, 1.13.2022 15:46:18.336
436, 1.72155, 0.675515, 98.3191, -0.00195312, 0, 0, -0.128906, 0.28125, -9.75195, 1.13.2022 15:46:18.344
437, 1.72155, 0.675515, 98.3191, -0.000976562, 0, -0.000976562, -0.102539, 0.254883, -9.73438, 1.13.2022 15:46:18.352
438, 1.72155, 0.675515, 98.3191, -0.000976562, 0, -0.000976562, -0.145508, 0.300781, -9.74219, 1.13.2022 15:46:18.360
439, 1.72155, 0.675515, 98.3191, -0.00195312, -0.000976562, 0, -0.0429688, 0.28125, -9.7373, 1.13.2022 15:46:18.368
440, 1.71626, 0.680089, 98.3191, -0.000976562, -0.000976562, 0, -0.130859, 0.280273, -9.70996, 1.13.2022 15:46:18.376
441, 1.71169, 0.674798, 98.3193, 0, -0.000976562, 0, -0.121094, 0.297852, -9.74902, 1.13.2022 15:46:18.384
442, 1.71169, 0.674798, 98.3193, -0.000976562, -0.000976562, -0.000976562, -0.0771484, 0.262695, -9.77734, 1.13.2022 15:46:18.392
443, 1.71142, 0.674897, 98.3186, 0, -0.000976562, 0, -0.155273, 0.295898, -9.74902, 1.13.2022 15:46:18.400
444, 1.71169, 0.674798, 98.3193, -0.000976562, -0.000976562, 0, -0.0927734, 0.288086, -9.73828, 1.13.2022 15:46:18.408
445, 1.71169, 0.674798, 98.3193, -0.000976562, -0.000976562, 0, -0.0888672, 0.275391, -9.78125, 1.13.2022 15:46:18.416
446, 1.70712, 0.669507, 98.3195, -0.000976562, 0, 0, -0.173828, 0.319336, -9.72461, 1.13.2022 15:46:18.424
447, 1.70712, 0.669507, 98.3195, -0.000976562, -0.000976562, 0, -0.0898438, 0.288086, -9.7168, 1.13.2022 15:46:18.432
448, 1.70712, 0.669507, 98.3195, -0.000976562, 0, 0, -0.114258, 0.305664, -9.74414, 1.13.2022 15:46:18.440
449, 1.70712, 0.669507, 98.3195, -0.000976562, -0.000976562, -0.000976562, -0.147461, 0.324219, -9.74316, 1.13.2022 15:46:18.448
450, 1.70712, 0.669507, 98.3195, -0.000976562, -0.000976562, 0, -0.0732422, 0.296875, -9.7168, 1.13.2022 15:46:18.456
451, 1.70712, 0.669507, 98.3195, 0, -0.000976562, 0, -0.157227, 0.292969, -9.72266, 1.13.2022 15:46:18.464
452, 1.70712, 0.669507, 98.3195, -0.000976562, 0, -0.000976562, -0.106445, 0.291992, -9.7002, 1.13.2022 15:46:18.472
453, 1.70712, 0.669507, 98.3195, -0.00195312, 0, 0, -0.0976562, 0.271484, -9.73828, 1.13.2022 15:46:18.480
454, 1.70712, 0.669507, 98.3195, -0.00195312, -0.000976562, 0, -0.162109, 0.300781, -9.76074, 1.13.2022 15:46:18.488
455, 1.70712, 0.669507, 98.3195, -0.00195312, -0.000976562, 0, -0.0761719, 0.311523, -9.7334, 1.13.2022 15:46:18.496
456, 1.70712, 0.669507, 98.3195, -0.000976562, -0.000976562, -0.000976562, -0.154297, 0.306641, -9.71777, 1.13.2022 15:46:18.504
457, 1.71169, 0.674798, 98.3193, 0, -0.000976562, 0.000976562, -0.135742, 0.304688, -9.72559, 1.13.2022 15:46:18.512
458, 1.71169, 0.674798, 98.3193, 0, -0.000976562, 0, -0.0634766, 0.294922, -9.71777, 1.13.2022 15:46:18.520
459, 1.71169, 0.674798, 98.3193, -0.000976562, -0.000976562, 0, -0.170898, 0.30957, -9.72949, 1.13.2022 15:46:18.528
460, 1.71698, 0.670225, 98.3193, -0.00195312, 0, 0.000976562, -0.116211, 0.297852, -9.74512, 1.13.2022 15:46:18.536
461, 1.71698, 0.670225, 98.3193, 0, 0, 0, -0.107422, 0.302734, -9.75195, 1.13.2022 15:46:18.544
462, 1.71698, 0.670225, 98.3193, -0.000976562, -0.000976562, -0.000976562, -0.161133, 0.321289, -9.70996, 1.13.2022 15:46:18.552
463, 1.72155, 0.675515, 98.3191, -0.000976562, -0.000976562, 0.000976562, -0.0703125, 0.289062, -9.70312, 1.13.2022 15:46:18.560
464, 1.72155, 0.675515, 98.3191, -0.00195312, -0.000976562, 0, -0.139648, 0.275391, -9.71387, 1.13.2022 15:46:18.568
465, 1.72155, 0.675515, 98.3191, 0, 0, 0.000976562, -0.109375, 0.296875, -9.71387, 1.13.2022 15:46:18.576
466, 1.72155, 0.675515, 98.3191, -0.00195312, 0, -0.000976562, -0.0761719, 0.28125, -9.75293, 1.13.2022 15:46:18.584
467, 1.72155, 0.675515, 98.3191, -0.000976562, 0, 0, -0.172852, 0.296875, -9.69922, 1.13.2022 15:46:18.592
468, 1.72155, 0.675515, 98.3191, 0, 0, -0.000976562, -0.0751953, 0.303711, -9.70996, 1.13.2022 15:46:18.600
469, 1.73141, 0.676233, 98.3189, 0.000976562, -0.000976562, -0.000976562, -0.106445, 0.294922, -9.70703, 1.13.2022 15:46:18.608
470, 1.73141, 0.676233, 98.3189, 0, -0.000976562, -0.000976562, -0.173828, 0.304688, -9.72461, 1.13.2022 15:46:18.616
471, 1.73141, 0.676233, 98.3189, -0.000976562, 0, 0, -0.078125, 0.283203, -9.74121, 1.13.2022 15:46:18.624
472, 1.73141, 0.676233, 98.3189, 0, -0.000976562, 0, -0.138672, 0.276367, -9.75488, 1.13.2022 15:46:18.630
473, 1.73141, 0.676233, 98.3189, -0.000976562, -0.000976562, -0.000976562, -0.154297, 0.292969, -9.71875, 1.13.2022 15:46:18.638
474, 1.73141, 0.676233, 98.3189, -0.000976562, -0.000976562, -0.000976562, -0.0546875, 0.302734, -9.73828, 1.13.2022 15:46:18.646
475, 1.73141, 0.676233, 98.3189, 0, 0, -0.000976562, -0.170898, 0.326172, -9.72168, 1.13.2022 15:46:18.654
476, 1.73141, 0.676233, 98.3189, -0.00195312, 0, -0.000976562, -0.101562, 0.311523, -9.72852, 1.13.2022 15:46:18.662
477, 1.73141, 0.676233, 98.3189, 0, -0.000976562, 0, -0.121094, 0.283203, -9.72656, 1.13.2022 15:46:18.670
478, 1.73598, 0.681524, 98.3186, 0, -0.000976562, 0, -0.145508, 0.295898, -9.73926, 1.13.2022 15:46:18.678
479, 1.73598, 0.681524, 98.3186, -0.000976562, -0.000976562, 0, -0.0693359, 0.266602, -9.74414, 1.13.2022 15:46:18.686
480, 1.73598, 0.681524, 98.3186, -0.000976562, 0, 0, -0.130859, 0.279297, -9.74219, 1.13.2022 15:46:18.694
481, 1.73598, 0.681524, 98.3186, 0, -0.00195312, 0, -0.137695, 0.288086, -9.73242, 1.13.2022 15:46:18.702
482, 1.73598, 0.681524, 98.3186, 0, -0.00195312, 0, -0.109375, 0.280273, -9.70996, 1.13.2022 15:46:18.710
483, 1.73069, 0.686097, 98.3187, -0.000976562, -0.000976562, 0, -0.178711, 0.292969, -9.74121, 1.13.2022 15:46:18.718
484, 1.73069, 0.686097, 98.3187, -0.00195312, -0.000976562, 0.000976562, -0.0751953, 0.301758, -9.71484, 1.13.2022 15:46:18.726
485, 1.73069, 0.686097, 98.3187, -0.000976562, -0.000976562, 0, -0.0976562, 0.27832, -9.74121, 1.13.2022 15:46:18.734
486, 1.73069, 0.686097, 98.3187, -0.00195312, -0.000976562, 0, -0.145508, 0.30957, -9.7373, 1.13.2022 15:46:18.742
487, 1.73069, 0.686097, 98.3187, -0.000976562, -0.000976562, -0.000976562, -0.0742188, 0.289062, -9.76465, 1.13.2022 15:46:18.750
488, 1.73069, 0.686097, 98.3187, 0, -0.000976562, -0.000976562, -0.128906, 0.303711, -9.76758, 1.13.2022 15:46:18.758
489, 1.73069, 0.686097, 98.3187, -0.000976562, -0.000976562, -0.000976562, -0.130859, 0.295898, -9.74707, 1.13.2022 15:46:18.766
490, 1.73069, 0.686097, 98.3187, -0.000976562, -0.000976562, -0.000976562, -0.078125, 0.261719, -9.7373, 1.13.2022 15:46:18.774
491, 1.73069, 0.686097, 98.3187, -0.000976562, -0.000976562, 0, -0.15918, 0.306641, -9.7041, 1.13.2022 15:46:18.782
492, 1.73069, 0.686097, 98.3187, -0.000976562, -0.000976562, -0.000976562, -0.111328, 0.28418, -9.68848, 1.13.2022 15:46:18.790
493, 1.73069, 0.686097, 98.3187, 0, -0.000976562, 0, -0.0947266, 0.298828, -9.70703, 1.13.2022 15:46:18.798
494, 1.73069, 0.686097, 98.3187, -0.000976562, 0, -0.000976562, -0.147461, 0.3125, -9.73242, 1.13.2022 15:46:18.806
495, 1.73069, 0.686097, 98.3187, 0, -0.000976562, -0.000976562, -0.0712891, 0.291992, -9.71289, 1.13.2022 15:46:18.814
496, 1.73069, 0.686097, 98.3187, -0.000976562, -0.000976562, -0.000976562, -0.125977, 0.294922, -9.71387, 1.13.2022 15:46:18.822
497, 1.73069, 0.686097, 98.3187, -0.00195312, -0.00195312, -0.000976562, -0.114258, 0.30957, -9.73242, 1.13.2022 15:46:18.830
498, 1.73069, 0.686097, 98.3187, -0.000976562, -0.000976562, 0, -0.0859375, 0.276367, -9.73828, 1.13.2022 15:46:18.838
499, 1.73069, 0.686097, 98.3187, -0.000976562, -0.000976562, 0, -0.15918, 0.311523, -9.71289, 1.13.2022 15:46:18.846
500, 1.73069, 0.686097, 98.3187, -0.00195312, -0.000976562, 0, -0.078125, 0.313477, -9.71875, 1.13.2022 15:46:18.854
501, 1.73069, 0.686097, 98.3187, -0.00195312, -0.000976562, 0, -0.0664062, 0.28418, -9.74805, 1.13.2022 15:46:18.862
502, 1.73598, 0.681524, 98.3186, -0.000976562, -0.000976562, 0, -0.157227, 0.314453, -9.73145, 1.13.2022 15:46:18.870
503, 1.73598, 0.681524, 98.3186, -0.00195312, -0.000976562, -0.000976562, -0.0742188, 0.269531, -9.76074, 1.13.2022 15:46:18.878
504, 1.73598, 0.681524, 98.3186, -0.00195312, -0.000976562, -0.000976562, -0.139648, 0.306641, -9.72266, 1.13.2022 15:46:18.886
505, 1.73572, 0.681625, 98.318, -0.000976562, -0.000976562, -0.000976562, -0.118164, 0.296875, -9.70898, 1.13.2022 15:46:18.894
506, 1.73572, 0.681625, 98.318, -0.000976562, -0.000976562, -0.000976562, -0.0761719, 0.256836, -9.73242, 1.13.2022 15:46:18.902
507, 1.73572, 0.681625, 98.318, -0.000976562, 0, -0.000976562, -0.164062, 0.275391, -9.71582, 1.13.2022 15:46:18.910
508, 1.73572, 0.681625, 98.318, 0, 0, 0, -0.0878906, 0.27832, -9.71777, 1.13.2022 15:46:18.918
509, 1.73114, 0.676333, 98.3182, 0.000976562, 0.000976562, 0, -0.0849609, 0.280273, -9.70117, 1.13.2022 15:46:18.926
510, 1.73114, 0.676333, 98.3182, -0.000976562, 0.000976562, 0, -0.132812, 0.27832, -9.72852, 1.13.2022 15:46:18.934
511, 1.73114, 0.676333, 98.3182, 0.000976562, -0.000976562, 0, -0.0615234, 0.272461, -9.69922, 1.13.2022 15:46:18.942
512, 1.73114, 0.676333, 98.3182, -0.000976562, -0.000976562, -0.000976562, -0.128906, 0.251953, -9.73145, 1.13.2022 15:46:18.950
513, 1.72657, 0.671042, 98.3184, -0.000976562, -0.000976562, -0.000976562, -0.102539, 0.316406, -9.73535, 1.13.2022 15:46:18.958
514, 1.72657, 0.671042, 98.3184, -0.000976562, -0.000976562, 0, -0.114258, 0.286133, -9.74023, 1.13.2022 15:46:18.966
515, 1.72657, 0.671042, 98.3184, -0.000976562, -0.000976562, 0, -0.181641, 0.322266, -9.75684, 1.13.2022 15:46:18.974
516, 1.72657, 0.671042, 98.3184, -0.000976562, -0.000976562, 0, -0.0712891, 0.285156, -9.71777, 1.13.2022 15:46:18.982
517, 1.722, 0.665751, 98.3186, -0.000976562, -0.000976562, 0, -0.0996094, 0.303711, -9.7002, 1.13.2022 15:46:18.990
518, 1.722, 0.665751, 98.3186, -0.000976562, -0.000976562, 0, -0.137695, 0.304688, -9.73242, 1.13.2022 15:46:18.998
519, 1.72227, 0.665652, 98.3193, -0.000976562, -0.000976562, 0, -0.0498047, 0.290039, -9.73633, 1.13.2022 15:46:19.006
520, 1.722, 0.665751, 98.3186, -0.000976562, -0.000976562, -0.000976562, -0.15625, 0.316406, -9.71289, 1.13.2022 15:46:19.014
521, 1.722, 0.665751, 98.3186, -0.00195312, -0.000976562, 0, -0.125, 0.293945, -9.69238, 1.13.2022 15:46:19.022
522, 1.72756, 0.661078, 98.3193, -0.000976562, 0.000976562, 0, -0.0810547, 0.288086, -9.74316, 1.13.2022 15:46:19.030
523, 1.72756, 0.661078, 98.3193, -0.000976562, -0.000976562, 0, -0.168945, 0.290039, -9.7207, 1.13.2022 15:46:19.038
524, 1.72756, 0.661078, 98.3193, -0.000976562, 0.000976562, 0, -0.0683594, 0.303711, -9.70801, 1.13.2022 15:46:19.046
525, 1.72756, 0.661078, 98.3193, -0.00195312, 0.000976562, 0, -0.0976562, 0.317383, -9.74414, 1.13.2022 15:46:19.054
526, 1.72756, 0.661078, 98.3193, -0.00195312, -0.000976562, 0, -0.125977, 0.332031, -9.75098, 1.13.2022 15:46:19.062
527, 1.72756, 0.661078, 98.3193, -0.000976562, -0.000976562, 0, -0.0810547, 0.286133, -9.74805, 1.13.2022 15:46:19.070
528, 1.73285, 0.656505, 98.3192, -0.000976562, 0.000976562, 0, -0.148438, 0.305664, -9.76562, 1.13.2022 15:46:19.078
529, 1.73285, 0.656505, 98.3192, -0.000976562, -0.000976562, 0, -0.12207, 0.289062, -9.75684, 1.13.2022 15:46:19.086
530, 1.73285, 0.656505, 98.3192, -0.000976562, 0.000976562, 0, -0.105469, 0.287109, -9.76367, 1.13.2022 15:46:19.094
531, 1.73285, 0.656505, 98.3192, -0.000976562, 0.000976562, 0, -0.162109, 0.319336, -9.73145, 1.13.2022 15:46:19.102
532, 1.73285, 0.656505, 98.3192, -0.000976562, 0.000976562, 0, -0.0810547, 0.276367, -9.74316, 1.13.2022 15:46:19.110
533, 1.73285, 0.656505, 98.3192, 0.000976562, -0.000976562, -0.000976562, -0.109375, 0.286133, -9.75488, 1.13.2022 15:46:19.118
534, 1.73285, 0.656505, 98.3192, -0.000976562, -0.000976562, -0.000976562, -0.131836, 0.291992, -9.76855, 1.13.2022 15:46:19.126
535, 1.73285, 0.656505, 98.3192, -0.00195312, -0.000976562, -0.000976562, -0.0712891, 0.261719, -9.74219, 1.13.2022 15:46:19.134
536, 1.73285, 0.656505, 98.3192, -0.000976562, 0.000976562, 0, -0.149414, 0.290039, -9.7041, 1.13.2022 15:46:19.142
537, 1.73285, 0.656505, 98.3192, 0.000976562, 0.000976562, 0, -0.118164, 0.279297, -9.69043, 1.13.2022 15:46:19.150
538, 1.73285, 0.656505, 98.3192, -0.000976562, -0.000976562, 0, -0.0830078, 0.283203, -9.7334, 1.13.2022 15:46:19.158
539, 1.73285, 0.656505, 98.3192, -0.000976562, 0.000976562, -0.000976562, -0.15625, 0.313477, -9.70605, 1.13.2022 15:46:19.166
540, 1.73285, 0.656505, 98.3192, -0.000976562, 0.000976562, -0.000976562, -0.0800781, 0.275391, -9.71484, 1.13.2022 15:46:19.174
541, 1.73285, 0.656505, 98.3192, 0, -0.000976562, -0.000976562, -0.0947266, 0.273438, -9.71289, 1.13.2022 15:46:19.182
542, 1.73285, 0.656505, 98.3192, 0, 0, -0.000976562, -0.140625, 0.311523, -9.72461, 1.13.2022 15:46:19.190
543, 1.73285, 0.656505, 98.3192, 0, -0.000976562, 0, -0.0566406, 0.292969, -9.73438, 1.13.2022 15:46:19.198
544, 1.73285, 0.656505, 98.3192, 0.000976562, -0.000976562, 0.000976562, -0.155273, 0.285156, -9.77539, 1.13.2022 15:46:19.206
545, 1.72827, 0.651215, 98.3194, 0, 0, -0.000976562, -0.128906, 0.303711, -9.76367, 1.13.2022 15:46:19.214
546, 1.72827, 0.651215, 98.3194, 0.000976562, -0.000976562, -0.000976562, -0.0957031, 0.274414, -9.76953, 1.13.2022 15:46:19.222
547, 1.72827, 0.651215, 98.3194, 0, -0.000976562, -0.000976562, -0.143555, 0.301758, -9.77734, 1.13.2022 15:46:19.230
548, 1.72827, 0.651215, 98.3194, 0.000976562, -0.000976562, -0.000976562, -0.0898438, 0.283203, -9.71973, 1.13.2022 15:46:19.238
549, 1.72801, 0.651314, 98.3188, 0, -0.00195312, -0.000976562, -0.109375, 0.28418, -9.75, 1.13.2022 15:46:19.246
550, 1.72272, 0.655887, 98.3188, 0, -0.000976562, -0.000976562, -0.12793, 0.319336, -9.7207, 1.13.2022 15:46:19.254
551, 1.72272, 0.655887, 98.3188, 0.000976562, 0, -0.000976562, -0.0595703, 0.274414, -9.74902, 1.13.2022 15:46:19.262
552, 1.72272, 0.655887, 98.3188, 0.000976562, -0.000976562, 0, -0.138672, 0.28418, -9.75195, 1.13.2022 15:46:19.270
553, 1.72272, 0.655887, 98.3188, -0.00195312, 0, 0, -0.109375, 0.270508, -9.70801, 1.13.2022 15:46:19.278
554, 1.72272, 0.655887, 98.3188, 0, 0, 0, -0.119141, 0.286133, -9.74707, 1.13.2022 15:46:19.286
555, 1.72272, 0.655887, 98.3188, 0.00195312, -0.000976562, -0.000976562, -0.154297, 0.333984, -9.74121, 1.13.2022 15:46:19.294
556, 1.72272, 0.655887, 98.3188, 0, -0.000976562, -0.000976562, -0.0498047, 0.268555, -9.72559, 1.13.2022 15:46:19.302
557, 1.72272, 0.655887, 98.3188, -0.00195312, 0, 0, -0.12207, 0.287109, -9.76367, 1.13.2022 15:46:19.310
558, 1.72272, 0.655887, 98.3188, 0, -0.000976562, 0, -0.145508, 0.3125, -9.74414, 1.13.2022 15:46:19.318
559, 1.72272, 0.655887, 98.3188, 0.000976562, -0.000976562, 0, -0.0810547, 0.279297, -9.74805, 1.13.2022 15:46:19.326
560, 1.72272, 0.655887, 98.3188, 0.000976562, -0.000976562, 0, -0.168945, 0.317383, -9.74316, 1.13.2022 15:46:19.334
561, 1.72272, 0.655887, 98.3188, 0.000976562, 0, 0, -0.0976562, 0.295898, -9.74512, 1.13.2022 15:46:19.342
562, 1.72272, 0.655887, 98.3188, 0, -0.000976562, 0, -0.102539, 0.266602, -9.74121, 1.13.2022 15:46:19.350
563, 1.72272, 0.655887, 98.3188, -0.00195312, -0.000976562, 0, -0.188477, 0.298828, -9.76465, 1.13.2022 15:46:19.358
564, 1.72272, 0.655887, 98.3188, -0.00195312, -0.000976562, 0, -0.0712891, 0.271484, -9.74121, 1.13.2022 15:46:19.366
565, 1.71743, 0.66046, 98.3188, 0, -0.000976562, -0.000976562, -0.121094, 0.299805, -9.70703, 1.13.2022 15:46:19.374
566, 1.71743, 0.66046, 98.3188, 0, -0.000976562, 0, -0.142578, 0.311523, -9.72754, 1.13.2022 15:46:19.382
567, 1.71743, 0.66046, 98.3188, -0.00195312, -0.000976562, 0, -0.0332031, 0.285156, -9.71777, 1.13.2022 15:46:19.390
568, 1.71743, 0.66046, 98.3188, -0.00195312, -0.000976562, 0, -0.171875, 0.305664, -9.76758, 1.13.2022 15:46:19.398
569, 1.71743, 0.66046, 98.3188, 0, -0.000976562, -0.000976562, -0.112305, 0.289062, -9.75488, 1.13.2022 15:46:19.406
570, 1.71743, 0.66046, 98.3188, 0, -0.000976562, 0, -0.0927734, 0.293945, -9.76367, 1.13.2022 15:46:19.414
571, 1.71743, 0.66046, 98.3188, 0, 0, 0, -0.168945, 0.320312, -9.75293, 1.13.2022 15:46:19.422
572, 1.722, 0.665751, 98.3186, 0, 0, 0.000976562, -0.0849609, 0.294922, -9.7168, 1.13.2022 15:46:19.430
573, 1.72227, 0.665652, 98.3193, -0.000976562, 0, 0, -0.125977, 0.28418, -9.74707, 1.13.2022 15:46:19.438
574, 1.72227, 0.665652, 98.3193, -0.000976562, -0.00195312, 0, -0.0976562, 0.314453, -9.73242, 1.13.2022 15:46:19.446
575, 1.72227, 0.665652, 98.3193, -0.000976562, -0.000976562, -0.000976562, -0.0566406, 0.28125, -9.73438, 1.13.2022 15:46:19.454
576, 1.72227, 0.665652, 98.3193, -0.000976562, -0.000976562, -0.000976562, -0.164062, 0.30957, -9.72949, 1.13.2022 15:46:19.462
577, 1.722, 0.665751, 98.3186, -0.00195312, 0, -0.000976562, -0.128906, 0.269531, -9.73828, 1.13.2022 15:46:19.470
578, 1.72729, 0.661178, 98.3186, -0.000976562, 0, -0.000976562, -0.102539, 0.292969, -9.75, 1.13.2022 15:46:19.478
579, 1.72729, 0.661178, 98.3186, -0.000976562, 0, -0.000976562, -0.12793, 0.296875, -9.69922, 1.13.2022 15:46:19.486
580, 1.72729, 0.661178, 98.3186, -0.000976562, 0, 0, -0.0498047, 0.275391, -9.72266, 1.13.2022 15:46:19.494
581, 1.72729, 0.661178, 98.3186, -0.000976562, -0.000976562, -0.000976562, -0.121094, 0.292969, -9.74707, 1.13.2022 15:46:19.502
582, 1.72729, 0.661178, 98.3186, -0.00195312, -0.000976562, -0.000976562, -0.135742, 0.299805, -9.73535, 1.13.2022 15:46:19.510
583, 1.72729, 0.661178, 98.3186, -0.000976562, -0.000976562, -0.00195312, -0.102539, 0.294922, -9.73047, 1.13.2022 15:46:19.518
584, 1.72729, 0.661178, 98.3186, -0.00195312, -0.000976562, 0, -0.172852, 0.306641, -9.70312, 1.13.2022 15:46:19.526
585, 1.72729, 0.661178, 98.3186, -0.000976562, 0, 0, -0.0732422, 0.296875, -9.7168, 1.13.2022 15:46:19.534
586, 1.72729, 0.661178, 98.3186, -0.000976562, 0, 0, -0.124023, 0.259766, -9.7334, 1.13.2022 15:46:19.542
587, 1.72729, 0.661178, 98.3186, -0.000976562, -0.00195312, 0, -0.168945, 0.304688, -9.71777, 1.13.2022 15:46:19.550
588, 1.72729, 0.661178, 98.3186, -0.000976562, -0.000976562, -0.000976562, -0.078125, 0.273438, -9.73438, 1.13.2022 15:46:19.558
589, 1.72729, 0.661178, 98.3186, -0.000976562, -0.000976562, 0, -0.12207, 0.291016, -9.76172, 1.13.2022 15:46:19.566
590, 1.72729, 0.661178, 98.3186, -0.000976562, 0, 0, -0.116211, 0.293945, -9.70215, 1.13.2022 15:46:19.574
591, 1.72729, 0.661178, 98.3186, -0.00195312, 0, 0, -0.0908203, 0.291016, -9.75195, 1.13.2022 15:46:19.582
592, 1.73186, 0.666469, 98.3184, -0.000976562, -0.000976562, -0.000976562, -0.154297, 0.329102, -9.7334, 1.13.2022 15:46:19.590
593, 1.73186, 0.666469, 98.3184, -0.000976562, -0.000976562, 0, -0.0878906, 0.27832, -9.73438, 1.13.2022 15:46:19.598
594, 1.73186, 0.666469, 98.3184, -0.000976562, -0.000976562, -0.000976562, -0.0849609, 0.28125, -9.72949, 1.13.2022 15:46:19.604
595, 1.73186, 0.666469, 98.3184, 0, -0.00195312, 0, -0.147461, 0.304688, -9.72559, 1.13.2022 15:46:19.612
596, 1.73186, 0.666469, 98.3184, -0.00195312, -0.000976562, 0, -0.0732422, 0.275391, -9.72461, 1.13.2022 15:46:19.620
597, 1.73186, 0.666469, 98.3184, -0.000976562, -0.000976562, 0, -0.170898, 0.291992, -9.70117, 1.13.2022 15:46:19.628
598, 1.73186, 0.666469, 98.3184, -0.000976562, -0.000976562, 0, -0.132812, 0.308594, -9.70898, 1.13.2022 15:46:19.636
599, 1.72657, 0.671042, 98.3184, -0.000976562, -0.000976562, 0, -0.0947266, 0.297852, -9.73828, 1.13.2022 15:46:19.644
600, 1.72657, 0.671042, 98.3184, -0.000976562, 0, 0, -0.171875, 0.295898, -9.73926, 1.13.2022 15:46:19.652
601, 1.72657, 0.671042, 98.3184, -0.000976562, 0, 0, -0.103516, 0.289062, -9.69043, 1.13.2022 15:46:19.660
602, 1.72657, 0.671042, 98.3184, -0.000976562, 0, 0, -0.0898438, 0.269531, -9.68652, 1.13.2022 15:46:19.668
603, 1.72657, 0.671042, 98.3184, -0.000976562, -0.000976562, -0.000976562, -0.164062, 0.291016, -9.73047, 1.13.2022 15:46:19.676
604, 1.72657, 0.671042, 98.3184, -0.00195312, -0.000976562, 0, -0.0878906, 0.268555, -9.71484, 1.13.2022 15:46:19.684
605, 1.72657, 0.671042, 98.3184, 0, -0.000976562, -0.000976562, -0.125977, 0.292969, -9.73242, 1.13.2022 15:46:19.692
606, 1.72657, 0.671042, 98.3184, 0.000976562, -0.000976562, 0, -0.152344, 0.302734, -9.73926, 1.13.2022 15:46:19.700
607, 1.72657, 0.671042, 98.3184, 0.000976562, -0.000976562, -0.000976562, -0.0976562, 0.295898, -9.75195, 1.13.2022 15:46:19.708
608, 1.72586, 0.680906, 98.3182, -0.000976562, -0.00195312, 0.000976562, -0.15918, 0.304688, -9.72754, 1.13.2022 15:46:19.716
609, 1.72586, 0.680906, 98.3182, -0.000976562, -0.000976562, 0, -0.0703125, 0.287109, -9.69336, 1.13.2022 15:46:19.724
610, 1.72586, 0.680906, 98.3182, 0, 0, 0, -0.114258, 0.259766, -9.73828, 1.13.2022 15:46:19.732
611, 1.72586, 0.680906, 98.3182, 0, 0, -0.000976562, -0.154297, 0.299805, -9.71582, 1.13.2022 15:46:19.740
612, 1.72586, 0.680906, 98.3182, -0.000976562, -0.000976562, 0, -0.0380859, 0.27832, -9.72559, 1.13.2022 15:46:19.748
613, 1.72586, 0.680906, 98.3182, 0.000976562, 0, -0.000976562, -0.137695, 0.292969, -9.73535, 1.13.2022 15:46:19.756
614, 1.72586, 0.680906, 98.3182, 0, -0.000976562, -0.000976562, -0.0996094, 0.307617, -9.73047, 1.13.2022 15:46:19.764
615, 1.72586, 0.680906, 98.3182, 0, -0.000976562, 0, -0.0712891, 0.288086, -9.73828, 1.13.2022 15:46:19.772
616, 1.72128, 0.675615, 98.3184, 0, 0, -0.000976562, -0.154297, 0.329102, -9.72656, 1.13.2022 15:46:19.780
617, 1.72128, 0.675615, 98.3184, 0, -0.000976562, -0.000976562, -0.0761719, 0.299805, -9.72168, 1.13.2022 15:46:19.788
618, 1.72128, 0.675615, 98.3184, 0, -0.000976562, 0, -0.119141, 0.304688, -9.73535, 1.13.2022 15:46:19.796
619, 1.72128, 0.675615, 98.3184, 0, 0, 0, -0.144531, 0.304688, -9.72754, 1.13.2022 15:46:19.804
620, 1.72128, 0.675615, 98.3184, -0.000976562, -0.000976562, 0, -0.0546875, 0.28125, -9.74805, 1.13.2022 15:46:19.812
621, 1.72657, 0.671042, 98.3184, 0, 0, -0.000976562, -0.12793, 0.313477, -9.71094, 1.13.2022 15:46:19.820
622, 1.72657, 0.671042, 98.3184, 0, -0.00195312, 0, -0.106445, 0.306641, -9.71875, 1.13.2022 15:46:19.828
623, 1.72657, 0.671042, 98.3184, 0, -0.000976562, 0, -0.0732422, 0.294922, -9.72656, 1.13.2022 15:46:19.836
624, 1.72657, 0.671042, 98.3184, 0, -0.00195312, -0.000976562, -0.150391, 0.325195, -9.76465, 1.13.2022 15:46:19.844
625, 1.72657, 0.671042, 98.3184, -0.000976562, -0.000976562, 0, -0.0810547, 0.304688, -9.7334, 1.13.2022 15:46:19.852
626, 1.73186, 0.666469, 98.3184, 0, 0, 0, -0.104492, 0.300781, -9.75684, 1.13.2022 15:46:19.860
627, 1.73186, 0.666469, 98.3184, 0, 0.000976562, 0, -0.00390625, 0.336914, -9.84961, 1.13.2022 15:46:19.868
628, 1.73742, 0.661796, 98.319, 0, 0.000976562, 0.000976562, 0.144531, 0.279297, -9.69043, 1.13.2022 15:46:19.876
629, 1.73814, 0.651932, 98.3192, 0, -0.000976562, 0, -0.0703125, 0.292969, -9.82812, 1.13.2022 15:46:19.884
630, 1.73356, 0.646641, 98.3194, 0.000976562, 0.000976562, -0.000976562, 0, 0.310547, -9.61133, 1.13.2022 15:46:19.892
631, 1.73428, 0.636778, 98.3196, 0, 0.000976562, -0.000976562, 0.0117188, 0.251953, -9.74316, 1.13.2022 15:46:19.900
632, 1.74029, 0.622341, 98.3198, 0.000976562, -0.000976562, -0.000976562, -0.0332031, 0.318359, -9.63184, 1.13.2022 15:46:19.908
633, 1.74101, 0.612477, 98.32, -0.000976562, -0.00195312, -0.00195312, 0.0898438, 0.280273, -9.82129, 1.13.2022 15:46:19.916
634, 1.74146, 0.60271, 98.3195, 0, 0.00292969, -0.000976562, 0.226562, 0.331055, -9.60547, 1.13.2022 15:46:19.924
635, 1.74316, 0.582886, 98.3205, 0.000976562, -0.00390625, 0, 0.0478516, 0.34668, -9.77637, 1.13.2022 15:46:19.932
636, 1.74459, 0.563158, 98.3209, 0, 0, 0.00195312, 0.152344, 0.269531, -9.7666, 1.13.2022 15:46:19.940
637, 1.74603, 0.543431, 98.3213, -0.000976562, 0, 0.00292969, 0.0244141, 0.330078, -9.69922, 1.13.2022 15:46:19.948
638, 1.74746, 0.523704, 98.3216, 0.000976562, -0.000976562, 0.00195312, 0.0341797, 0.25293, -9.68262, 1.13.2022 15:46:19.956
639, 1.74871, 0.503916, 98.3122, 0, -0.000976562, 0, 0.0478516, 0.238281, -9.75391, 1.13.2022 15:46:19.964
640, 1.74557, 0.478897, 98.3127, -0.000976562, 0, -0.00195312, 0.197266, 0.308594, -9.80176, 1.13.2022 15:46:19.972
641, 1.74772, 0.449305, 98.3133, 0, 0.000976562, -0.00195312, 0.373047, 0.336914, -9.7041, 1.13.2022 15:46:19.980
642, 1.74988, 0.419713, 98.3138, 0, -0.00390625, -0.000976562, 0.126953, 0.345703, -9.84668, 1.13.2022 15:46:19.988
643, 1.75203, 0.390122, 98.3143, 0, 0.000976562, 0.000976562, 0.226562, 0.375, -9.61133, 1.13.2022 15:46:19.996
644, 1.75418, 0.36053, 98.3148, -0.000976562, -0.00195312, 0.00195312, 0.294922, 0.34375, -9.94824, 1.13.2022 15:46:20.004
645, 1.75704, 0.321075, 98.3155, -0.00195312, 0.00488281, 0.00488281, 0.466797, 0.272461, -9.63672, 1.13.2022 15:46:20.012
646, 1.76017, 0.281536, 98.3168, -0.00195312, -0.000976562, 0.00390625, 0.40625, 0.28418, -9.71582, 1.13.2022 15:46:20.020
647, 1.76355, 0.232148, 98.3078, -0.000976562, -0.00195312, 0.00390625, 0.416992, 0.230469, -9.75, 1.13.2022 15:46:20.028
648, 1.76184, 0.187403, 98.3086, -0.00195312, -0.000976562, 0.00292969, 0.342773, 0.289062, -9.7832, 1.13.2022 15:46:20.036
649, 1.76542, 0.138084, 98.3093, -0.00488281, -0.000976562, 0.00195312, 0.675781, 0.313477, -9.69043, 1.13.2022 15:46:20.044
650, 1.76829, 0.0986297, 98.3099, -0.00488281, -0.00488281, 0.00195312, 0.69043, 0.331055, -9.70508, 1.13.2022 15:46:20.052
651, 1.77047, 0.0688859, 98.3012, -0.00390625, -0.0078125, 0.00292969, 0.449219, 0.358398, -9.81836, 1.13.2022 15:46:20.060
652, 1.77191, 0.0491586, 98.3015, -0.00488281, -0.00390625, 0.00390625, 0.635742, 0.239258, -9.67578, 1.13.2022 15:46:20.068
653, 1.77262, 0.0392949, 98.3017, -0.00683594, -0.00683594, 0.00195312, 0.68457, 0.328125, -9.75391, 1.13.2022 15:46:20.076
654, 1.77862, 0.0248572, 98.3018, -0.00585938, -0.00585938, 0.00292969, 0.764648, 0.27832, -9.54199, 1.13.2022 15:46:20.084
655, 1.77934, 0.0149935, 98.3019, -0.00585938, -0.0117188, 0.00292969, 0.633789, 0.349609, -9.92285, 1.13.2022 15:46:20.092
656, 1.78466, 0.0102658, 98.2928, -0.0078125, -0.00488281, 0.00390625, 0.695312, 0.458984, -9.57617, 1.13.2022 15:46:20.100
657, 1.78538, 0.000402127, 98.2929, -0.00878906, -0.00976562, 0.00683594, 0.78418, 0.28418, -9.74512, 1.13.2022 15:46:20.108
658, 1.79066, 359.996, 98.2929, -0.0107422, -0.00683594, 0.00585938, 0.770508, 0.185547, -9.7334, 1.13.2022 15:46:20.116
659, 1.79573, 359.991, 98.2831, -0.0107422, -0.00585938, 0.00292969, 0.77832, 0.28418, -9.8252, 1.13.2022 15:46:20.124
660, 1.7967, 359.981, 98.2839, -0.0107422, -0.00585938, 0.000976562, 0.759766, 0.226562, -9.64258, 1.13.2022 15:46:20.132
661, 1.80727, 359.972, 98.2839, -0.0126953, -0.00878906, -0.000976562, 0.40625, 0.335938, -9.8418, 1.13.2022 15:46:20.140
662, 1.81256, 359.967, 98.2839, -0.0107422, -0.00585938, -0.00390625, 0.390625, 0.316406, -9.76367, 1.13.2022 15:46:20.148
663, 1.81781, 359.963, 98.293, -0.00878906, -0.00683594, -0.00488281, 0.633789, 0.545898, -9.93457, 1.13.2022 15:46:20.156
664, 1.81853, 359.953, 98.2931, -0.00488281, 0, 0.00195312, 0.962891, 0.621094, -9.83105, 1.13.2022 15:46:20.164
665, 1.81927, 359.943, 98.2841, 0, -0.00390625, 0.00976562, 1.03223, 0.574219, -9.80078, 1.13.2022 15:46:20.172
666, 1.81999, 359.933, 98.2843, 0.00488281, 0.000976562, 0.0136719, 0.852539, 0.490234, -9.85449, 1.13.2022 15:46:20.180
667, 1.81087, 359.923, 98.2754, 0.00976562, 0.0107422, 0.015625, 0.854492, 0.426758, -9.70898, 1.13.2022 15:46:20.188
668, 1.80703, 359.907, 98.2665, 0.00976562, 0.0136719, 0.015625, 0.871094, 0.40625, -9.73828, 1.13.2022 15:46:20.196
669, 1.80295, 359.892, 98.257, 0.0117188, 0.015625, 0.0117188, 0.93457, 0.570312, -10.0615, 1.13.2022 15:46:20.204
670, 1.80461, 359.872, 98.2579, 0.0126953, 0.0136719, 0.0117188, 0.912109, 0.399414, -9.83594, 1.13.2022 15:46:20.212
671, 1.79595, 359.852, 98.2485, 0.00976562, 0.015625, 0.0107422, 1.01758, 0.293945, -9.51465, 1.13.2022 15:46:20.220
672, 1.79211, 359.836, 98.2396, 0.00878906, 0.00585938, 0.00976562, 0.724609, 0.40332, -9.4834, 1.13.2022 15:46:20.228
673, 1.78824, 359.821, 98.2399, 0.00683594, 0.0078125, 0.0107422, 1.05762, 0.0947266, -9.49707, 1.13.2022 15:46:20.236
674, 1.78897, 359.811, 98.2309, 0.00292969, 0.00585938, 0.0117188, 1.09961, 0.331055, -9.57617, 1.13.2022 15:46:20.244
675, 1.7851, 359.796, 98.2311, 0.00390625, -0.00292969, 0.0146484, 0.916016, 0.321289, -9.86719, 1.13.2022 15:46:20.252
676, 1.78054, 359.791, 98.2221, 0.00390625, -0.00292969, 0.0195312, 1.07031, 0.314453, -9.64746, 1.13.2022 15:46:20.260
677, 1.78126, 359.781, 98.2131, 0.00292969, -0.00292969, 0.0214844, 1.02832, 0.179688, -9.55176, 1.13.2022 15:46:20.268
678, 1.78198, 359.771, 98.204, 0.00488281, -0.00195312, 0.0117188, 1.06738, 0.258789, -9.7998, 1.13.2022 15:46:20.276
679, 1.77789, 359.755, 98.1945, 0.00878906, -0.000976562, 0.00195312, 1.01465, 0.374023, -9.81543, 1.13.2022 15:46:20.284
680, 1.77401, 359.74, 98.1947, 0.0117188, 0.00488281, -0.00390625, 1.01758, 0.456055, -9.66406, 1.13.2022 15:46:20.292
681, 1.76508, 359.73, 98.2048, 0.0146484, 0.00292969, -0.00683594, 0.875977, 0.631836, -9.84863, 1.13.2022 15:46:20.300
682, 1.76121, 359.715, 98.205, 0.0185547, 0.00488281, -0.00585938, 0.865234, 0.277344, -9.92871, 1.13.2022 15:46:20.308
683, 1.75711, 359.7, 98.2046, 0.0126953, 0.0117188, -0.00292969, 0.983398, 0.431641, -9.73242, 1.13.2022 15:46:20.316
684, 1.75324, 359.684, 98.2049, 0.00585938, -0.00488281, -0.000976562, 0.938477, 0.426758, -9.56934, 1.13.2022 15:46:20.324
685, 1.74866, 359.679, 98.205, 0.00292969, -0.0185547, 0.00390625, 0.708008, 0.102539, -9.74902, 1.13.2022 15:46:20.332
686, 1.75418, 359.674, 98.2056, -0.0117188, -0.0253906, 0.00683594, 0.852539, -0.102539, -9.21582, 1.13.2022 15:46:20.340
687, 1.75923, 359.67, 98.1958, -0.0273438, -0.0292969, 0.0078125, 0.911133, -0.171875, -9.13867, 1.13.2022 15:46:20.348
688, 1.77367, 359.676, 98.1956, -0.0361328, -0.03125, 0.00292969, 0.853516, -0.0556641, -9.98535, 1.13.2022 15:46:20.356
689, 1.79363, 359.677, 98.1959, -0.0361328, -0.0332031, -0.00292969, 1.1543, -0.165039, -10.5146, 1.13.2022 15:46:20.364
690, 1.80325, 359.678, 98.1952, -0.0341797, -0.0292969, -0.0078125, 0.741211, 0.169922, -10.7256, 1.13.2022 15:46:20.372
691, 1.81863, 359.674, 98.2048, -0.0253906, -0.00195312, -0.0117188, 0.888672, 0.40625, -9.9209, 1.13.2022 15:46:20.380
692, 1.8299, 359.655, 98.2049, -0.015625, 0.0234375, -0.0117188, 1.12109, 0.53418, -9.48633, 1.13.2022 15:46:20.388
693, 1.83202, 359.626, 98.2145, -0.00195312, 0.0283203, -0.0136719, 0.896484, 0.935547, -9.54297, 1.13.2022 15:46:20.396
694, 1.82886, 359.601, 98.2148, 0.0166016, 0.03125, -0.0117188, 0.68457, 0.848633, -9.90723, 1.13.2022 15:46:20.404
695, 1.82112, 359.57, 98.2244, 0.0253906, 0.0380859, -0.00976562, 0.44043, 1.00781, -9.83789, 1.13.2022 15:46:20.412
696, 1.8081, 359.545, 98.2249, 0.0322266, 0.0371094, -0.0117188, 0.594727, 0.941406, -8.91406, 1.13.2022 15:46:20.420
697, 1.79051, 359.514, 98.2346, 0.0410156, 0.0146484, -0.0146484, 0.621094, 0.484375, -8.88184, 1.13.2022 15:46:20.428
698, 1.77151, 359.503, 98.2441, 0.0410156, -0.00292969, -0.0205078, 0.826172, 0.332031, -9.00977, 1.13.2022 15:46:20.436
699, 1.75251, 359.492, 98.2536, 0.0341797, -0.0224609, -0.0224609, 0.770508, 0.351562, -9.75293, 1.13.2022 15:46:20.444
700, 1.74266, 359.491, 98.2629, 0.03125, -0.0292969, -0.0244141, 0.920898, 0.0625, -10.417, 1.13.2022 15:46:20.452
701, 1.73303, 359.49, 98.2728, 0.0185547, -0.0429688, -0.0175781, 0.895508, 0.0117188, -10.0811, 1.13.2022 15:46:20.460
702, 1.73233, 359.5, 98.2819, 0.000976562, -0.0439453, -0.00976562, 0.648438, 0.0332031, -10.1494, 1.13.2022 15:46:20.468
703, 1.73233, 359.5, 98.2819, -0.0214844, -0.0263672, -0.00488281, 1.03711, -0.0869141, -9.43555, 1.13.2022 15:46:20.476
704, 1.74747, 359.497, 98.2818, -0.0341797, -0.0117188, -0.00390625, 1.00195, -0.304688, -9.92383, 1.13.2022 15:46:20.484
705, 1.76311, 359.483, 98.2811, -0.0400391, -0.000976562, -0.0078125, 0.629883, -0.207031, -11.4834, 1.13.2022 15:46:20.492
706, 1.7845, 359.465, 98.2909, -0.0439453, 0.0380859, -0.0078125, 1.04785, 0.12793, -10.2334, 1.13.2022 15:46:20.500
707, 1.80179, 359.431, 98.2911, -0.0400391, 0.0429688, -0.00292969, 1.01855, 0.199219, -9.31641, 1.13.2022 15:46:20.508
708, 1.81907, 359.398, 98.2912, -0.0263672, 0.0361328, -0.00292969, 0.836914, 0.348633, -8.91992, 1.13.2022 15:46:20.516
709, 1.8265, 359.364, 98.2915, -0.00878906, 0.0371094, -0.00292969, 0.404297, 0.835938, -9.0459, 1.13.2022 15:46:20.524
710, 1.8236, 359.339, 98.3016, 0.0146484, 0.0400391, -0.00878906, 0.772461, 0.600586, -9.11035, 1.13.2022 15:46:20.532
711, 1.81566, 359.309, 98.3014, 0.0273438, 0.0078125, -0.0195312, 0.676758, 0.936523, -9.16113, 1.13.2022 15:46:20.540
712, 1.79668, 359.297, 98.3108, 0.0400391, -0.0214844, -0.0292969, 0.498047, 0.849609, -9.02637, 1.13.2022 15:46:20.548
713, 1.78709, 359.297, 98.3299, 0.0371094, -0.0322266, -0.0332031, 0.599609, 0.932617, -10.3125, 1.13.2022 15:46:20.556
714, 1.76668, 359.305, 98.3391, 0.0361328, -0.0595703, -0.0273438, 0.957031, 0.723633, -8.93262, 1.13.2022 15:46:20.562
715, 1.75084, 359.319, 98.3483, 0.0244141, -0.0771484, -0.0185547, 0.388672, 0.415039, -10.3281, 1.13.2022 15:46:20.570
716, 1.74943, 359.339, 98.3573, 0.00488281, -0.0537109, -0.0117188, 0.704102, 0.180664, -9.70703, 1.13.2022 15:46:20.578
717, 1.74414, 359.344, 98.3573, 0.00976562, -0.0244141, -0.0126953, 0.356445, -0.152344, -11.7227, 1.13.2022 15:46:20.586
718, 1.74031, 359.329, 98.3666, 0.000976562, 0.0185547, -0.0117188, 1.24609, -0.149414, -10.7471, 1.13.2022 15:46:20.594
719, 1.74704, 359.304, 98.3668, -0.00976562, 0.0185547, -0.00195312, 0.837891, 0.227539, -9.84473, 1.13.2022 15:46:20.602
720, 1.75377, 359.28, 98.367, -0.00585938, 0.0322266, 0.00488281, 0.290039, 0.135742, -8.82227, 1.13.2022 15:46:20.610
721, 1.75136, 359.245, 98.3673, -0.00292969, 0.0693359, 0.00488281, 0.393555, -0.0761719, -8.75488, 1.13.2022 15:46:20.618
722, 1.75496, 359.196, 98.3677, 0.000976562, 0.0673828, -0.00292969, 0.357422, 0.262695, -8.64551, 1.13.2022 15:46:20.626
723, 1.75255, 359.161, 98.368, -0.000976562, 0.0380859, -0.0078125, -0.0400391, 0.280273, -10.7031, 1.13.2022 15:46:20.634
724, 1.75953, 359.137, 98.3779, -0.0185547, -0.0078125, -0.0078125, -0.166992, 0.899414, -9.8457, 1.13.2022 15:46:20.642
725, 1.76939, 359.138, 98.3779, -0.0185547, -0.0458984, -0.000976562, 0.227539, 0.015625, -8.30273, 1.13.2022 15:46:20.650
726, 1.77781, 359.158, 98.3776, -0.03125, -0.09375, 0.00390625, 0.114258, -0.0742188, -7.92383, 1.13.2022 15:46:20.658
727, 1.79584, 359.179, 98.3675, -0.0400391, -0.0820312, 0.00292969, -0.0791016, 0.611328, -10.2422, 1.13.2022 15:46:20.666
728, 1.80955, 359.195, 98.3672, -0.0205078, -0.0410156, -0.00585938, 0.0449219, 0.0302734, -12.3604, 1.13.2022 15:46:20.674
729, 1.8151, 359.191, 98.377, -0.0117188, 0.00878906, -0.0175781, -3.0791, 0.000976562, -16.416, 1.13.2022 15:46:20.682
730, 1.8178, 359.151, 98.3858, 0.0078125, 0.112305, -0.0429688, -7.9043, 1.69043, -23.4092, 1.13.2022 15:46:20.690
731, 1.82148, 359.038, 98.4057, -0.0126953, 0.366211, -0.0166016, -0.632812, 1.01074, -17.998, 1.13.2022 15:46:20.698
732, 1.82418, 358.869, 98.4167, -0.015625, 0.30957, 0.0126953, 1.83691, 2.06348, -8.91699, 1.13.2022 15:46:20.706
733, 1.81359, 358.74, 98.4076, 0.0644531, 0.21875, 0.00683594, -1.92578, 0.767578, -7.67383, 1.13.2022 15:46:20.714
734, 1.78975, 358.594, 98.409, 0.0712891, 0.393555, 0.0224609, -2.64746, -0.0869141, -6.47168, 1.13.2022 15:46:20.722
735, 1.76772, 358.354, 98.4011, 0.00976562, 0.631836, 0.0537109, -1.24707, 0.464844, -2.32422, 1.13.2022 15:46:20.730
736, 1.77225, 358.017, 98.3827, -0.0117188, 0.788086, 0.0615234, 2.52246, -0.416016, 2.55859, 1.13.2022 15:46:20.738
737, 1.77152, 357.684, 98.3641, 0.000976562, 0.630859, 0.0478516, 6.05176, -2.31445, 2.49902, 1.13.2022 15:46:20.746
738, 1.79257, 357.463, 98.3545, -0.105469, 0.301758, 0.0253906, -0.444336, 2.21191, -14.8457, 1.13.2022 15:46:20.754
739, 1.82034, 357.355, 98.3546, -0.00488281, 0.142578, 0.0136719, -2.98926, -1.17676, -26.6592, 1.13.2022 15:46:20.762
740, 1.84103, 357.272, 98.345, -0.0703125, 0.188477, 0.0390625, -4.27539, 0.756836, -18.9248, 1.13.2022 15:46:20.770
741, 1.88024, 357.136, 98.326, -0.125977, 0.364258, 0.0458984, 2.86133, -3.54297, -4.38574, 1.13.2022 15:46:20.778
742, 1.95395, 357.007, 98.317, -0.185547, 0.176758, 0.03125, 6.88379, 0.273438, 7.33398, 1.13.2022 15:46:20.786
743, 2.02259, 357.012, 98.2993, -0.133789, -0.235352, 0.00976562, 0.388672, 0.0390625, -0.880859, 1.13.2022 15:46:20.794
744, 2.0729, 357.135, 98.2908, -0.0820312, -0.317383, 0.00292969, -3.375, 1.74707, -4.60254, 1.13.2022 15:46:20.802
745, 2.10648, 357.216, 98.2824, -0.0439453, -0.0732422, 0.0234375, 1.29004, -0.394531, -3.47266, 1.13.2022 15:46:20.810
746, 2.10944, 357.241, 98.2734, 0.0205078, -0.0683594, 0.0205078, 4.96973, 0.0742188, -7.63281, 1.13.2022 15:46:20.818
747, 2.09528, 357.364, 98.2641, 0.0371094, -0.5, -0.0185547, -0.603516, 1.82129, -12.3877, 1.13.2022 15:46:20.826
748, 2.0631, 357.605, 98.2733, 0.112305, -0.581055, -0.0351562, -3.42578, 1.61816, -15.1074, 1.13.2022 15:46:20.834
749, 2.00784, 357.819, 98.273, 0.110352, -0.380859, -0.0273438, 0.857422, -0.24707, -10.4678, 1.13.2022 15:46:20.842
750, 1.96928, 358.01, 98.2815, 0.0556641, -0.472656, -0.0361328, 3.18945, 3.2793, 0.494141, 1.13.2022 15:46:20.850
751, 1.91086, 358.274, 98.2997, 0.201172, -0.704102, -0.0566406, 1.27539, 1.08496, -2.70117, 1.13.2022 15:46:20.858
752, 1.8207, 358.63, 98.3165, 0.212891, -0.892578, -0.0732422, -5.13184, -0.724609, -16.4199, 1.13.2022 15:46:20.866
753, 1.74772, 358.952, 98.3329, 0.0996094, -0.511719, -0.0458984, -5.70215, 3.04297, 29.0801, 1.13.2022 15:46:20.874
754, 1.7233, 359.084, 98.3413, 0.00488281, -0.0966797, -0.00976562, 4.61523, 2.58496, -27.1631, 1.13.2022 15:46:20.882
755, 1.71442, 359.138, 98.341, 0.0458984, -0.163086, -0.0146484, 6.21582, 1.09863, -8.47461, 1.13.2022 15:46:20.890
756, 1.69141, 359.251, 98.3494, 0.0712891, -0.365234, -0.0361328, 3.47656, -1.66309, -10.6836, 1.13.2022 15:46:20.898
757, 1.66865, 359.428, 98.3663, 0.0371094, -0.408203, -0.0351562, -5.16406, 0.96875, -11.5986, 1.13.2022 15:46:20.906
758, 1.66268, 359.507, 98.365, 0.015625, 0.0273438, -0.000976562, -4.33691, -0.635742, -7.87207, 1.13.2022 15:46:20.914
759, 1.67009, 359.408, 98.3665, -0.0566406, 0.368164, 0.0361328, 2.12988, -2.19141, 2.91992, 1.13.2022 15:46:20.922
760, 1.71041, 359.262, 98.3492, -0.113281, 0.245117, 0.0361328, 2.875, 0.628906, 3.82422, 1.13.2022 15:46:20.930
761, 1.751, 359.18, 98.3404, -0.0644531, 0.0810547, 0.03125, -4.55566, 2.44629, -13.4883, 1.13.2022 15:46:20.938
762, 1.77852, 359.073, 98.3227, -0.0419922, 0.380859, 0.0517578, 5.00488, -1.98535, -22.3613, 1.13.2022 15:46:20.946
763, 1.81587, 358.966, 98.3049, -0.107422, 0.0595703, 0.0488281, -3.39551, 2.49219, -28.0605, 1.13.2022 15:46:20.954
764, 1.84263, 358.933, 98.2768, -0.0283203, 0.0693359, 0.0390625, -1.34668, -0.915039, -6.1377, 1.13.2022 15:46:20.962
765, 1.86721, 358.865, 98.2588, -0.0605469, 0.191406, 0.0537109, 0.455078, -2.00977, -4.18848, 1.13.2022 15:46:20.970
766, 1.90784, 358.784, 98.2414, -0.131836, 0.160156, 0.0576172, 0.185547, 1.11523, -2.66699, 1.13.2022 15:46:20.978
767, 1.94793, 358.702, 98.2135, -0.0439453, 0.169922, 0.0478516, 2.7832, 1.99512, 0.328125, 1.13.2022 15:46:20.986
768, 1.93933, 358.681, 98.1953, 0.0957031, -0.0986328, 0.0322266, 0.814453, -1.18652, -6.5127, 1.13.2022 15:46:20.994
769, 1.90932, 358.753, 98.1859, 0.0380859, -0.228516, 0.0263672, -4.81348, 3.2373, -16.0605, 1.13.2022 15:46:21.002
770, 1.90038, 358.807, 98.1673, 0.00585938, -0.0195312, 0.0419922, 0.685547, 1.25195, -12.6982, 1.13.2022 15:46:21.010
771, 1.89265, 358.841, 98.1481, 0.0419922, -0.170898, 0.0419922, -0.313477, 0.249023, -10.9268, 1.13.2022 15:46:21.018
772, 1.87609, 358.928, 98.1194, 0.0351562, -0.227539, 0.0361328, -1.28125, 0.416992, -15.1748, 1.13.2022 15:46:21.026
773, 1.86054, 359.006, 98.1006, 0.03125, -0.111328, 0.0410156, 2.28516, 0.655273, -9.05273, 1.13.2022 15:46:21.034
774, 1.84641, 359.064, 98.0819, 0.0507812, -0.166992, 0.0419922, 0.973633, 0.123047, -9.96582, 1.13.2022 15:46:21.042
775, 1.82221, 359.122, 98.0626, 0.0390625, -0.0986328, 0.0380859, 0.640625, 0.105469, -10.1709, 1.13.2022 15:46:21.050
776, 1.81018, 359.15, 98.0441, 0.0283203, -0.0214844, 0.0458984, -1.30664, 0.0732422, -12.1885, 1.13.2022 15:46:21.058
777, 1.80205, 359.12, 98.0162, 0.0136719, 0.12207, 0.0576172, -0.583008, 0.259766, -6.94824, 1.13.2022 15:46:21.066
778, 1.79756, 359.04, 97.9893, 0.0117188, 0.227539, 0.0625, 1.83105, -0.68457, -7.30371, 1.13.2022 15:46:21.074
779, 1.80288, 358.96, 97.9623, -0.0263672, 0.111328, 0.0595703, -0.691406, 1.18359, -10.9297, 1.13.2022 15:46:21.082
780, 1.81119, 358.906, 97.9344, -0.0195312, 0.0996094, 0.0605469, -2.0332, -0.880859, -15.3848, 1.13.2022 15:46:21.090
781, 1.82954, 358.852, 97.907, -0.0458984, 0.136719, 0.0664062, 0.341797, 0.642578, -7.11328, 1.13.2022 15:46:21.098
782, 1.84718, 358.808, 97.8796, -0.0166016, 0.0185547, 0.0605469, -1.04395, -0.783203, -7.55176, 1.13.2022 15:46:21.106
783, 1.85663, 358.809, 97.8513, -0.0400391, -0.0292969, 0.0556641, -0.301758, -0.233398, -7.02832, 1.13.2022 15:46:21.114
784, 1.87441, 358.839, 97.8332, -0.0253906, -0.109375, 0.0419922, -0.193359, -0.686523, -3.99316, 1.13.2022 15:46:21.122
785, 1.88584, 358.884, 97.8138, -0.0341797, -0.0888672, 0.0419922, -0.78418, 0.919922, -10.7393, 1.13.2022 15:46:21.130
786, 1.89788, 358.919, 97.7853, -0.00878906, -0.0732422, 0.0449219, 0.710938, 0.322266, -10.707, 1.13.2022 15:46:21.138
787, 1.89576, 358.949, 97.7667, 0.0166016, -0.0810547, 0.0380859, -1.97461, 0.615234, -16.5654, 1.13.2022 15:46:21.146
788, 1.87397, 358.977, 97.7574, 0.0732422, -0.0410156, 0.00292969, -2.63867, 0.0576172, -12.8545, 1.13.2022 15:46:21.154
789, 1.83324, 358.994, 97.7668, 0.0996094, -0.0214844, -0.03125, -6.36914, 0.168945, -18.3174, 1.13.2022 15:46:21.162
790, 1.79383, 358.992, 97.7763, 0.102539, 0.0488281, -0.03125, -5.08887, 0.893555, -14.8311, 1.13.2022 15:46:21.170
791, 1.75117, 358.964, 97.7859, 0.0712891, 0.0869141, 0.00488281, -2.53418, 2.46191, -10.0947, 1.13.2022 15:46:21.178
792, 1.71366, 358.932, 97.7771, 0.105469, 0.0556641, 0.0263672, -1.64062, 1.99316, -6.50781, 1.13.2022 15:46:21.186
793, 1.66034, 358.913, 97.7683, 0.132812, 0.0664062, 0.0419922, -1.66602, 0.431641, -5.70996, 1.13.2022 15:46:21.194
794, 1.60343, 358.869, 97.7405, 0.102539, 0.130859, 0.0576172, -1.37988, -0.0898438, -5.97266, 1.13.2022 15:46:21.202
795, 1.57234, 358.812, 97.7132, 0.0410156, 0.155273, 0.0703125, 0.12207, -1.05469, -4.75977, 1.13.2022 15:46:21.210
796, 1.57583, 358.752, 97.6759, -0.0517578, 0.108398, 0.0917969, -0.0410156, 1.41211, -5.49414, 1.13.2022 15:46:21.218
797, 1.59187, 358.728, 97.6299, -0.0292969, 0.0263672, 0.108398, -1.16699, -0.702148, -9.98438, 1.13.2022 15:46:21.226
798, 1.61054, 358.739, 97.5836, -0.0419922, -0.0136719, 0.125977, -1.65527, -2.12891, -12.0078, 1.13.2022 15:46:21.234
799, 1.64927, 358.74, 97.5183, -0.121094, 0.0136719, 0.139648, 0.0341797, -1.11719, -9.86426, 1.13.2022 15:46:21.242
800, 1.70185, 358.758, 97.4528, -0.133789, -0.0595703, 0.132812, 0.458984, -1.70508, -7.56543, 1.13.2022 15:46:21.250
801, 1.7631, 358.796, 97.3964, -0.117188, -0.0917969, 0.124023, 0.545898, -2.57422, -7.94043, 1.13.2022 15:46:21.258
802, 1.81409, 358.843, 97.3404, -0.125977, -0.0791016, 0.121094, 0.557617, -1.71484, -7.78711, 1.13.2022 15:46:21.266
803, 1.8708, 358.875, 97.2838, -0.113281, -0.0322266, 0.114258, 0.707031, 0.823242, -9.44141, 1.13.2022 15:46:21.274
804, 1.90379, 358.891, 97.2273, -0.0732422, -0.0166016, 0.113281, 0.958008, 0.828125, -11.1006, 1.13.2022 15:46:21.282
805, 1.94232, 358.903, 97.1807, -0.105469, -0.000976562, 0.118164, 0.806641, 1.69336, -10.6562, 1.13.2022 15:46:21.290
806, 1.99652, 358.9, 97.1247, -0.121094, 0.0175781, 0.121094, 0.916992, 2.38379, -8.75879, 1.13.2022 15:46:21.298
807, 2.04525, 358.902, 97.0681, -0.0849609, 0.00976562, 0.123047, 0.0917969, 1.70703, -9.67578, 1.13.2022 15:46:21.306
808, 2.07484, 358.893, 97.0117, -0.0869141, 0.0419922, 0.118164, 0.763672, 1.2207, -8.81934, 1.13.2022 15:46:21.314
809, 2.11977, 358.88, 96.9558, -0.112305, 0.0488281, 0.110352, 1.57422, 1.44141, -6.94336, 1.13.2022 15:46:21.322
810, 2.17436, 358.868, 96.9085, -0.105469, 0.015625, 0.107422, 1.44238, 1.11719, -7.52148, 1.13.2022 15:46:21.330
811, 2.21815, 358.874, 96.8615, -0.0849609, -0.0244141, 0.108398, 1.21289, 1.06348, -7.55273, 1.13.2022 15:46:21.338
812, 2.24627, 358.895, 96.8146, -0.0605469, -0.0371094, 0.104492, 1.05078, 0.261719, -8.27637, 1.13.2022 15:46:21.346
813, 2.27963, 358.911, 96.7676, -0.0800781, -0.0224609, 0.0966797, 2.04004, 0.268555, -7.34668, 1.13.2022 15:46:21.354
814, 2.31738, 358.932, 96.72, -0.09375, -0.0615234, 0.0869141, 1.7959, 0.277344, -7.78906, 1.13.2022 15:46:21.362
815, 2.36012, 358.958, 96.682, -0.0859375, -0.0732422, 0.0820312, 2.10059, -0.203125, -7.3418, 1.13.2022 15:46:21.370
816, 2.39681, 358.999, 96.6433, -0.0683594, -0.0771484, 0.0742188, 2.10742, 1.29883, -9.44043, 1.13.2022 15:46:21.378
817, 2.39496, 359.028, 96.615, 0.0605469, -0.046875, 0.0517578, 1.2793, 2.05078, -19.1006, 1.13.2022 15:46:21.386
818, 2.33776, 359.069, 96.596, 0.208984, -0.135742, 0.0234375, 1.03027, -1.4248, -13.9658, 1.13.2022 15:46:21.394
819, 2.25073, 359.119, 96.5872, 0.15625, -0.0644531, 0.0078125, -2.04883, -0.320312, -20.6367, 1.13.2022 15:46:21.402
820, 2.1863, 359.12, 96.5879, 0.145508, 0.0576172, -0.0107422, 1.39453, 4.48145, -6.76465, 1.13.2022 15:46:21.410
821, 2.0827, 359.109, 96.5886, 0.31543, 0.00683594, -0.0146484, -0.395508, 0.960938, -6.08203, 1.13.2022 15:46:21.418
822, 1.92949, 359.105, 96.5994, 0.355469, 0.0244141, -0.0078125, 0.175781, -0.0664062, -6.97266, 1.13.2022 15:46:21.426
823, 1.78756, 359.073, 96.6003, 0.264648, 0.0976562, -0.000976562, -0.0732422, 2.02051, -9.44238, 1.13.2022 15:46:21.434
824, 1.70156, 359.018, 96.6013, 0.130859, 0.144531, 0.0078125, -0.0449219, 1.87402, -17.0576, 1.13.2022 15:46:21.442
825, 1.65969, 358.971, 96.6018, 0.0585938, 0.0625, 0.00292969, 0.285156, 0.458008, -11.4854, 1.13.2022 15:46:21.450
826, 1.6358, 358.955, 96.5927, 0.0556641, 0.0332031, 0.00292969, -0.769531, -1.7627, -9.24121, 1.13.2022 15:46:21.458
827, 1.63171, 358.94, 96.5928, -0.0380859, 0.0302734, 0.00878906, -0.40918, -2.49219, -6.51465, 1.13.2022 15:46:21.466
828, 1.68164, 358.933, 96.5926, -0.158203, 0.0117188, 0.0126953, 0.644531, -0.472656, -2.30469, 1.13.2022 15:46:21.474
829, 1.75533, 358.942, 96.5828, -0.162109, -0.0400391, 0.00683594, -0.0771484, -2.36035, -7.18262, 1.13.2022 15:46:21.482
830, 1.82273, 358.975, 96.5821, -0.145508, -0.106445, -0.00683594, -1.75391, -1.18359, -17.9844, 1.13.2022 15:46:21.490
831, 1.88547, 359.004, 96.5815, -0.104492, -0.015625, -0.0078125, 0.693359, -1.50977, -12.9092, 1.13.2022 15:46:21.498
832, 1.91945, 359.02, 96.5909, -0.0566406, -0.0332031, -0.00976562, 1.10156, 0.805664, -9.67188, 1.13.2022 15:46:21.506
833, 1.93726, 359.051, 96.59, -0.0205078, -0.0898438, -0.0146484, 0.803711, 0.704102, -9.7793, 1.13.2022 15:46:21.514
834, 1.94571, 359.082, 96.5995, -0.0195312, -0.0576172, -0.0126953, -1.0127, 1.61621, -8.62402, 1.13.2022 15:46:21.522
835, 1.94514, 359.091, 96.5994, 0.0214844, 0.0322266, -0.00195312, -0.248047, 1.32129, -6.7002, 1.13.2022 15:46:21.530
836, 1.93176, 359.066, 96.5997, 0.0517578, 0.0839844, 0.00585938, 0.99707, 1.4248, -9.41992, 1.13.2022 15:46:21.538
837, 1.91315, 359.045, 96.6001, 0.0263672, 0.0195312, 0.00390625, -0.658203, 2.58203, -12.0518, 1.13.2022 15:46:21.544
838, 1.89863, 359.039, 96.6003, 0.0224609, 0.00683594, 0, -0.6875, 0.6875, -11.2344, 1.13.2022 15:46:21.552
839, 1.89863, 359.039, 96.6003, 0.00292969, -0.00683594, 0, -0.787109, -0.158203, -8.35059, 1.13.2022 15:46:21.560
840, 1.89341, 359.044, 96.6003, 0.0126953, 0.00878906, 0.000976562, -0.99707, 0.547852, -11.3271, 1.13.2022 15:46:21.568
841, 1.88354, 359.043, 96.6003, 0.0263672, 0, 0.00195312, 0.80957, -0.341797, -7.25684, 1.13.2022 15:46:21.576
842, 1.87832, 359.048, 96.6003, 0.015625, -0.0244141, 0, -0.682617, -0.0556641, -11, 1.13.2022 15:46:21.584
843, 1.8731, 359.053, 96.6003, 0.0175781, 0.0205078, -0.00292969, 1.02539, -0.359375, -8.86719, 1.13.2022 15:46:21.592
844, 1.86323, 359.052, 96.6004, 0.0185547, 0.0078125, 0.00292969, -0.537109, 0.439453, -11.5879, 1.13.2022 15:46:21.600
845, 1.85365, 359.042, 96.5907, 0.0234375, 0.0429688, 0.0078125, 0.40625, 0.822266, -9.61816, 1.13.2022 15:46:21.608
846, 1.84435, 359.031, 96.5909, 0.0166016, -0.00292969, 0.0078125, -0.738281, 0.668945, -10.582, 1.13.2022 15:46:21.616
847, 1.83934, 359.036, 96.5914, 0.00292969, -0.00585938, 0.00488281, -1.08398, -0.282227, -8.9707, 1.13.2022 15:46:21.624
848, 1.844, 359.041, 96.5913, -0.0253906, 0.0117188, 0.00292969, 0.243164, -0.438477, -6.7666, 1.13.2022 15:46:21.632
849, 1.85795, 359.057, 96.5911, -0.0273438, -0.0654297, -0.00878906, -0.454102, -0.327148, -7.65918, 1.13.2022 15:46:21.640
850, 1.87056, 359.092, 96.5902, -0.03125, -0.0654297, -0.0166016, -1.68652, 0.547852, -13.9717, 1.13.2022 15:46:21.648
851, 1.88479, 359.108, 96.5998, -0.0273438, -0.00390625, -0.0205078, 0.972656, 0.0888672, -10.8311, 1.13.2022 15:46:21.656
852, 1.89414, 359.118, 96.6089, -0.015625, -0.0410156, -0.015625, -0.0185547, 0.422852, -12.2207, 1.13.2022 15:46:21.664
853, 1.89278, 359.138, 96.6082, 0.0078125, -0.0234375, -0.00878906, 0.679688, 0.571289, -8.11328, 1.13.2022 15:46:21.672
854, 1.89221, 359.148, 96.6081, 0.0185547, -0.00683594, 0.00488281, -0.885742, 1.15332, -8.8252, 1.13.2022 15:46:21.680
855, 1.87848, 359.132, 96.6089, 0.03125, 0.0810547, 0.0175781, -0.878906, 0.87207, -7.99023, 1.13.2022 15:46:21.688
856, 1.86539, 359.097, 96.5995, 0.0371094, 0.102539, 0.0078125, -0.227539, -0.634766, -9.72852, 1.13.2022 15:46:21.696
857, 1.83553, 359.105, 96.6188, 0.0830078, -0.111328, -0.078125, -3.84863, 0.84668, -13.0098, 1.13.2022 15:46:21.704
858, 1.77781, 359.167, 96.6746, 0.188477, -0.132812, -0.18457, -3.83203, -1.5791, -15.6592, 1.13.2022 15:46:21.712
859, 1.69953, 359.248, 96.7775, 0.147461, -0.186523, -0.248047, -2.2041, -1.0918, -8.95605, 1.13.2022 15:46:21.720
860, 1.64314, 359.375, 96.8889, 0.0957031, -0.321289, -0.257812, -2.32227, 1.56055, -6.30664, 1.13.2022 15:46:21.728
861, 1.58932, 359.537, 96.9998, 0.155273, -0.345703, -0.246094, 1.01367, 1.7793, -2.44922, 1.13.2022 15:46:21.736
862, 1.50775, 359.742, 97.1011, 0.203125, -0.5, -0.222656, 0.306641, -0.172852, -1.64355, 1.13.2022 15:46:21.744
863, 1.4278, 359.99, 97.1824, 0.140625, -0.55957, -0.189453, -2.13867, 0.598633, -9.23828, 1.13.2022 15:46:21.752
864, 1.39769, 0.232301, 97.2542, 0.00292969, -0.448242, -0.149414, 0.220703, 1.09082, -9.88379, 1.13.2022 15:46:21.760
865, 1.41478, 0.432308, 97.3169, -0.0898438, -0.37793, -0.113281, 0.227539, 0.0146484, -17.959, 1.13.2022 15:46:21.768
866, 1.46836, 0.599827, 97.3599, -0.148438, -0.311523, -0.0976562, 1.75293, -2.18457, -8.49902, 1.13.2022 15:46:21.776
867, 1.53822, 0.743671, 97.4027, -0.162109, -0.275391, -0.0966797, 0.821289, -1.73633, -16.5078, 1.13.2022 15:46:21.784
868, 1.61896, 0.868433, 97.4354, -0.193359, -0.222656, -0.0888672, 0.00488281, -2.27637, -13.6211, 1.13.2022 15:46:21.792
869, 1.70852, 0.939226, 97.4791, -0.208008, -0.0693359, -0.0820312, -0.614258, -1.46582, -5.94043, 1.13.2022 15:46:21.800
870, 1.79716, 0.945561, 97.5145, -0.202148, 0.0751953, -0.0683594, -0.0341797, -0.975586, -6.79785, 1.13.2022 15:46:21.808
871, 1.88427, 0.897297, 97.5412, -0.162109, 0.163086, -0.0527344, -0.842773, 0.454102, -8.57129, 1.13.2022 15:46:21.816
872, 1.9399, 0.80221, 97.5606, -0.100586, 0.283203, -0.0322266, -0.00976562, 1.59375, -9.31641, 1.13.2022 15:46:21.824
873, 1.97788, 0.676055, 97.5719, -0.0654297, 0.298828, -0.00878906, 0.405273, 2.48633, -12.4463, 1.13.2022 15:46:21.832
874, 2.00142, 0.543992, 97.5836, -0.0576172, 0.296875, 0.00292969, -1.95312, 3.23828, -15.1641, 1.13.2022 15:46:21.840
875, 2.01649, 0.391368, 97.5866, -0.0234375, 0.40332, 0, -0.204102, 0.158203, -11.4902, 1.13.2022 15:46:21.848
876, 2.02887, 0.204059, 97.5993, -0.0361328, 0.429688, -0.0195312, -0.475586, 1.06836, -7.28711, 1.13.2022 15:46:21.856
877, 2.04653, 0.0121462, 97.6118, -0.0292969, 0.451172, -0.0361328, -0.520508, 1.67383, -4.2959, 1.13.2022 15:46:21.864
878, 2.0454, 359.809, 97.6436, 0.0107422, 0.452148, -0.0371094, -1.60645, 0.450195, -6.69043, 1.13.2022 15:46:21.872
879, 2.03489, 359.596, 97.6654, 0.0410156, 0.508789, -0.0292969, -1.89062, -0.110352, -8.1709, 1.13.2022 15:46:21.880
880, 2.00669, 359.351, 97.6782, 0.0625, 0.609375, -0.0205078, 5.77344, -2.3457, -11.1289, 1.13.2022 15:46:21.888
881, 1.97788, 359.191, 97.6987, 0.0693359, 0.125977, -0.0410156, -4.99219, 5.13477, -18.7451, 1.13.2022 15:46:21.896
882, 1.93195, 359.139, 97.7181, 0.141602, 0.120117, -0.0380859, -5.03711, -1.4082, -21.082, 1.13.2022 15:46:21.904
883, 1.89813, 359.057, 97.7381, 0.00585938, 0.276367, -0.00976562, -2.13379, 1.4834, -8.91699, 1.13.2022 15:46:21.912
884, 1.90246, 358.924, 97.749, -0.0136719, 0.353516, -0.00488281, 3.52148, -0.543945, 1.20898, 1.13.2022 15:46:21.920
885, 1.89244, 358.849, 97.749, 0.0361328, -0.00585938, -0.0214844, 3.38574, -0.119141, 5.73535, 1.13.2022 15:46:21.928
886, 1.86839, 358.917, 97.7677, 0.0917969, -0.251953, -0.0361328, -2.54492, -1.02734, -4.85547, 1.13.2022 15:46:21.936
887, 1.84182, 359.015, 97.7758, 0.0136719, -0.133789, -0.0263672, -3.02441, -0.955078, -10.1182, 1.13.2022 15:46:21.944
888, 1.84312, 359.069, 97.7845, -0.0439453, -0.0673828, -0.0244141, 1.0791, 0.316406, -8.42383, 1.13.2022 15:46:21.952
889, 1.85686, 359.16, 97.7929, -0.00292969, -0.272461, -0.0292969, -2.66797, -0.758789, -15.2695, 1.13.2022 15:46:21.960
890, 1.85961, 359.269, 97.8016, -0.0107422, -0.19043, -0.0117188, -0.412109, 0.27832, -19.2285, 1.13.2022 15:46:21.968
891, 1.87239, 359.369, 97.7998, -0.03125, -0.199219, -0.00195312, 1.5, -0.300781, -8.05371, 1.13.2022 15:46:21.976
892, 1.88014, 359.474, 97.7986, -0.0244141, -0.210938, -0.0078125, 0.746094, -0.345703, -7.34375, 1.13.2022 15:46:21.984
893, 1.88262, 359.583, 97.7972, 0.0166016, -0.237305, -0.00585938, -0.189453, 1.18555, -10.3193, 1.13.2022 15:46:21.992
894, 1.86604, 359.681, 97.7961, 0.0263672, -0.157227, 0.0185547, -3.58398, 1.14355, -13.6904, 1.13.2022 15:46:22.000
895, 1.85878, 359.715, 97.7773, 0.0224609, 0.0625, 0.0400391, -0.700195, 0.666992, -5.07617, 1.13.2022 15:46:22.008
896, 1.84107, 359.684, 97.7596, 0.0302734, 0.104492, 0.0498047, -0.208008, 0.954102, -7.22363, 1.13.2022 15:46:22.016
897, 1.82904, 359.638, 97.7321, 0.0273438, 0.113281, 0.0566406, -0.725586, 1.25391, -11.5371, 1.13.2022 15:46:22.024
898, 1.81724, 359.592, 97.7144, 0.0166016, 0.158203, 0.0634766, -0.788086, 0.256836, -13.5732, 1.13.2022 15:46:22.032
899, 1.81659, 359.527, 97.6875, -0.00976562, 0.140625, 0.0654297, -0.936523, 1.16504, -12.3135, 1.13.2022 15:46:22.040
900, 1.81394, 359.492, 97.6603, 0.00585938, 0.0546875, 0.0546875, -3.10059, -0.750977, -11.7461, 1.13.2022 15:46:22.048
901, 1.81499, 359.472, 97.6323, -0.0205078, 0.0888672, 0.0488281, -1.55664, -1.12988, -6.5625, 1.13.2022 15:46:22.056
902, 1.83665, 359.443, 97.6139, -0.0517578, 0.0761719, 0.0449219, -0.768555, -0.97168, -6.06543, 1.13.2022 15:46:22.064
903, 1.85151, 359.439, 97.5947, -0.0283203, -0.00488281, 0.0332031, -0.332031, 0.0126953, -5.65137, 1.13.2022 15:46:22.072
904, 1.84952, 359.468, 97.576, 0.0175781, -0.0820312, 0.0302734, -1.65332, -0.289062, -10.7334, 1.13.2022 15:46:22.080
905, 1.8469, 359.507, 97.5663, -0.00195312, -0.0419922, 0.0458984, -1.15723, 0.948242, -12.0889, 1.13.2022 15:46:22.088
906, 1.84032, 359.531, 97.5384, 0.0146484, -0.0195312, 0.0615234, 0.178711, 1.68555, -11.0059, 1.13.2022 15:46:22.096
907, 1.82848, 359.56, 97.5106, 0.0400391, -0.0703125, 0.0703125, -0.914062, 1.97754, -10.6846, 1.13.2022 15:46:22.104
908, 1.80592, 359.597, 97.4728, 0.0400391, -0.0371094, 0.0869141, -0.885742, 0.823242, -9.32812, 1.13.2022 15:46:22.112
909, 1.79452, 359.616, 97.426, 0.0224609, 0.00292969, 0.102539, -1.03125, 1.03906, -8.3584, 1.13.2022 15:46:22.120
910, 1.77938, 359.619, 97.3799, 0.0234375, 0.0292969, 0.110352, -0.717773, 0.537109, -9.3623, 1.13.2022 15:46:22.128
911, 1.77366, 359.623, 97.3233, 0.0205078, 0.00683594, 0.114258, -1.37402, 0.0458984, -11.1582, 1.13.2022 15:46:22.136
912, 1.76292, 359.631, 97.2672, 0.00195312, 0.0117188, 0.118164, -1.10742, -0.136719, -10.0225, 1.13.2022 15:46:22.144
913, 1.76251, 359.64, 97.2214, 0, -0.00195312, 0.119141, -0.756836, -0.412109, -8.24023, 1.13.2022 15:46:22.152
914, 1.76566, 359.664, 97.165, 0.000976562, -0.0478516, 0.12207, -1.1377, -0.417969, -8.02148, 1.13.2022 15:46:22.160
915, 1.76799, 359.698, 97.0985, -0.0117188, -0.0546875, 0.128906, -1.04785, -0.292969, -9.08984, 1.13.2022 15:46:22.168
916, 1.77082, 359.732, 97.0424, -0.0234375, -0.0478516, 0.138672, -0.969727, 0.120117, -10.7754, 1.13.2022 15:46:22.176
917, 1.78332, 359.767, 96.9763, -0.0195312, -0.0458984, 0.144531, -1.0498, 0.196289, -11.9834, 1.13.2022 15:46:22.184
918, 1.79146, 359.796, 96.9108, -0.015625, -0.0292969, 0.143555, -0.838867, 0.168945, -11.8057, 1.13.2022 15:46:22.192
919, 1.79011, 359.815, 96.845, -0.0117188, -0.00976562, 0.137695, -0.889648, 0.401367, -9.78418, 1.13.2022 15:46:22.200
920, 1.79924, 359.824, 96.7792, -0.00585938, 0.0205078, 0.130859, -0.868164, 0.563477, -8.80664, 1.13.2022 15:46:22.208
921, 1.79907, 359.823, 96.7229, 0.00195312, 0.0507812, 0.125977, -1.12891, 0.698242, -9.04688, 1.13.2022 15:46:22.216
922, 1.79507, 359.807, 96.6673, 0.00488281, 0.0742188, 0.124023, -1.21484, 1.05566, -9.73926, 1.13.2022 15:46:22.224
923, 1.79138, 359.781, 96.6113, 0.0107422, 0.078125, 0.118164, -0.818359, 0.880859, -10.1445, 1.13.2022 15:46:22.232
924, 1.78733, 359.766, 96.565, 0.0136719, 0.0439453, 0.107422, -1.23535, 0.65332, -9.7998, 1.13.2022 15:46:22.240
925, 1.77726, 359.764, 96.5181, 0.00976562, 0.0332031, 0.0966797, -0.936523, 0.204102, -8.8623, 1.13.2022 15:46:22.248
926, 1.77705, 359.764, 96.471, 0.0078125, 0.0126953, 0.0888672, -0.660156, -0.0585938, -8.15625, 1.13.2022 15:46:22.256
927, 1.7661, 359.782, 96.4336, 0.0205078, -0.0214844, 0.0859375, -0.825195, -0.392578, -9.30566, 1.13.2022 15:46:22.264
928, 1.75981, 359.806, 96.396, 0.0253906, -0.03125, 0.0820312, -0.87793, -0.511719, -10.5293, 1.13.2022 15:46:22.272
929, 1.7481, 359.834, 96.3579, 0.0205078, -0.0244141, 0.0820312, -0.669922, -0.179688, -10.543, 1.13.2022 15:46:22.280
930, 1.73664, 359.863, 96.3204, 0.0253906, -0.0283203, 0.0820312, -0.631836, 0.0498047, -10.1309, 1.13.2022 15:46:22.288
931, 1.72474, 359.891, 96.2724, 0.0253906, -0.0273438, 0.0849609, -0.811523, 0.208984, -10.0928, 1.13.2022 15:46:22.296
932, 1.71386, 359.91, 96.2349, 0.0117188, -0.00390625, 0.0917969, -1.10156, 0.410156, -9.50879, 1.13.2022 15:46:22.304
933, 1.71339, 359.919, 96.1974, -0.00488281, 0.0146484, 0.0947266, -0.920898, 0.352539, -9.2627, 1.13.2022 15:46:22.312
934, 1.71271, 359.929, 96.1501, -0.0136719, 0.0136719, 0.0908203, -1.09766, 0.0488281, -10.0645, 1.13.2022 15:46:22.320
935, 1.72213, 359.938, 96.1124, -0.0205078, 0.000976562, 0.0830078, -1.40039, -0.0498047, -10.1992, 1.13.2022 15:46:22.328
936, 1.73623, 359.953, 96.0745, -0.0302734, 0.00488281, 0.0771484, -0.926758, -0.150391, -9.25488, 1.13.2022 15:46:22.336
937, 1.7501, 359.968, 96.0362, -0.0273438, -0.0136719, 0.0712891, -1.05664, -0.106445, -8.93555, 1.13.2022 15:46:22.344
938, 1.75381, 359.993, 96.0076, -0.0175781, -0.0273438, 0.0673828, -1.09863, -0.0742188, -8.98828, 1.13.2022 15:46:22.352
939, 1.7622, 0.0225827, 95.979, -0.0117188, -0.0332031, 0.0654297, -0.891602, 0.279297, -9.62695, 1.13.2022 15:46:22.360
940, 1.76521, 0.0568716, 95.9404, -0.00292969, -0.0361328, 0.0654297, -0.757812, 0.670898, -9.9248, 1.13.2022 15:46:22.368
941, 1.76377, 0.0860438, 95.9119, 0.00390625, -0.0429688, 0.0683594, -0.754883, 0.772461, -10.3096, 1.13.2022 15:46:22.376
942, 1.75715, 0.119901, 95.8833, 0.00195312, -0.0341797, 0.0712891, -0.673828, 0.760742, -9.99902, 1.13.2022 15:46:22.384
943, 1.76072, 0.144314, 95.8448, 0.000976562, -0.0214844, 0.0751953, -0.661133, 0.756836, -9.67871, 1.13.2022 15:46:22.392
944, 1.75936, 0.173336, 95.8069, 0.00195312, -0.0126953, 0.0791016, -0.737305, 0.501953, -9.79785, 1.13.2022 15:46:22.400
945, 1.75847, 0.192632, 95.7784, -0.00195312, -0.00488281, 0.0791016, -0.972656, 0.287109, -10.1328, 1.13.2022 15:46:22.408
946, 1.75789, 0.201981, 95.7402, -0.00390625, 0.00878906, 0.0761719, -0.930664, 0.00488281, -10.0586, 1.13.2022 15:46:22.416
947, 1.76225, 0.216433, 95.7024, 0.000976562, 0.00488281, 0.0673828, -1.01074, -0.258789, -10.1006, 1.13.2022 15:46:22.424
948, 1.75645, 0.230628, 95.6736, 0.00585938, 0.00488281, 0.0556641, -1.11914, -0.317383, -9.72461, 1.13.2022 15:46:22.432
949, 1.75112, 0.244814, 95.6551, 0.00683594, 0.00390625, 0.0439453, -1.05176, -0.208984, -9.43652, 1.13.2022 15:46:22.440
950, 1.74529, 0.259166, 95.6357, 0.00976562, 0.00390625, 0.03125, -0.945312, -0.0986328, -9.37598, 1.13.2022 15:46:22.448
951, 1.73967, 0.273589, 95.6261, 0.00976562, -0.000976562, 0.0175781, -1.16895, 0.179688, -9.77637, 1.13.2022 15:46:22.456
952, 1.73875, 0.293193, 95.6164, 0.0078125, -0.00195312, 0.00585938, -1.0127, 0.319336, -9.98242, 1.13.2022 15:46:22.464
953, 1.73308, 0.307768, 95.6163, 0.00488281, 0.000976562, -0.000976562, -0.948242, 0.390625, -9.7334, 1.13.2022 15:46:22.472
954, 1.73211, 0.327523, 95.6159, 0.00195312, -0.000976562, -0.00683594, -0.96582, 0.273438, -9.73438, 1.13.2022 15:46:22.480
955, 1.73109, 0.34743, 95.625, 0.00195312, 0.00292969, -0.00976562, -0.881836, 0.132812, -9.69922, 1.13.2022 15:46:22.488
956, 1.73061, 0.357308, 95.6248, 0.000976562, 0.00683594, -0.00683594, -0.989258, 0.194336, -9.72656, 1.13.2022 15:46:22.496
957, 1.72514, 0.371945, 95.6345, 0.00292969, 0.00976562, -0.00488281, -0.900391, 0.192383, -9.84863, 1.13.2022 15:46:22.504
958, 1.72465, 0.381822, 95.6343, 0.00292969, 0.00878906, -0.00292969, -0.907227, 0.234375, -9.80957, 1.13.2022 15:46:22.512
959, 1.72343, 0.401666, 95.6335, 0.00292969, 0.00585938, 0, -0.935547, 0.332031, -9.55566, 1.13.2022 15:46:22.520
960, 1.71802, 0.416151, 95.6338, 0.000976562, 0.00195312, 0.00292969, -0.851562, 0.291992, -9.47363, 1.13.2022 15:46:22.526
961, 1.72222, 0.43121, 95.6335, 0, -0.000976562, 0.00390625, -0.90918, 0.224609, -9.64453, 1.13.2022 15:46:22.534
962, 1.72106, 0.450906, 95.6232, -0.00488281, -0.00195312, 0.00390625, -0.78125, 0.137695, -9.68164, 1.13.2022 15:46:22.542
963, 1.72009, 0.470662, 95.6229, -0.00488281, -0.00390625, -0.000976562, -0.636719, 0.0390625, -9.85254, 1.13.2022 15:46:22.550
964, 1.71931, 0.490476, 95.6324, -0.00390625, -0.00390625, -0.00683594, -0.641602, 0.148438, -9.74512, 1.13.2022 15:46:22.558
965, 1.72326, 0.505629, 95.6315, -0.00390625, -0.000976562, -0.00878906, -0.532227, 0.361328, -9.7666, 1.13.2022 15:46:22.566
966, 1.72229, 0.525385, 95.6312, -0.00292969, 0.00292969, -0.0078125, -0.47168, 0.348633, -9.73535, 1.13.2022 15:46:22.574
967, 1.72199, 0.535319, 95.6409, -0.00292969, 0.00488281, -0.00390625, -0.573242, 0.46582, -9.80176, 1.13.2022 15:46:22.582
968, 1.72102, 0.555075, 95.6405, -0.00292969, 0.00488281, -0.000976562, -0.516602, 0.370117, -9.72949, 1.13.2022 15:46:22.590
969, 1.72053, 0.564952, 95.6403, -0.00488281, 0.00488281, 0.000976562, -0.514648, 0.291992, -9.5752, 1.13.2022 15:46:22.598
970, 1.71956, 0.584708, 95.6399, -0.00488281, 0.000976562, 0.00195312, -0.446289, 0.118164, -9.63086, 1.13.2022 15:46:22.606
971, 1.72377, 0.599768, 95.6395, -0.00488281, -0.000976562, 0, -0.310547, 0.0917969, -9.64551, 1.13.2022 15:46:22.614
972, 1.7228, 0.619524, 95.6392, -0.00488281, -0.00195312, -0.00390625, -0.34375, 0.207031, -9.65625, 1.13.2022 15:46:22.622
973, 1.727, 0.634584, 95.6388, -0.00585938, -0.00585938, -0.00683594, -0.287109, 0.290039, -9.80078, 1.13.2022 15:46:22.630
974, 1.72577, 0.65444, 95.6379, -0.00585938, -0.00585938, -0.0078125, -0.279297, 0.364258, -9.77539, 1.13.2022 15:46:22.638
975, 1.73016, 0.669552, 95.6474, -0.00683594, -0.00585938, -0.00683594, -0.288086, 0.374023, -9.7207, 1.13.2022 15:46:22.646
976, 1.72918, 0.689308, 95.647, -0.00488281, -0.00390625, -0.00292969, -0.195312, 0.375, -9.76758, 1.13.2022 15:46:22.654
977, 1.72821, 0.709064, 95.6466, -0.00390625, -0.00195312, 0, -0.15918, 0.34668, -9.83984, 1.13.2022 15:46:22.662
978, 1.73242, 0.724125, 95.6462, -0.00488281, 0.000976562, 0.000976562, -0.0859375, 0.297852, -9.75, 1.13.2022 15:46:22.670
979, 1.73193, 0.734003, 95.646, -0.00195312, 0, 0.000976562, -0.0732422, 0.227539, -9.71387, 1.13.2022 15:46:22.678
980, 1.73095, 0.75376, 95.6456, -0.000976562, 0.000976562, 0, -0.170898, 0.316406, -9.70312, 1.13.2022 15:46:22.686
981, 1.73047, 0.763638, 95.6453, -0.00292969, 0.000976562, -0.000976562, -0.0292969, 0.290039, -9.63281, 1.13.2022 15:46:22.694
982, 1.73467, 0.778699, 95.6449, -0.000976562, -0.000976562, -0.00292969, 0.0117188, 0.321289, -9.63477, 1.13.2022 15:46:22.702
983, 1.729, 0.793272, 95.6447, -0.000976562, -0.00292969, -0.00390625, -0.0742188, 0.336914, -9.7793, 1.13.2022 15:46:22.710
984, 1.73294, 0.808441, 95.6438, -0.00292969, -0.00195312, -0.000976562, 0.0996094, 0.329102, -9.76172, 1.13.2022 15:46:22.718
985, 1.72745, 0.82306, 95.6535, -0.000976562, -0.00390625, 0.000976562, 0.0791016, 0.347656, -9.7373, 1.13.2022 15:46:22.726
986, 1.73175, 0.837969, 95.6437, -0.000976562, -0.00292969, 0.00292969, 0.0849609, 0.321289, -9.82715, 1.13.2022 15:46:22.734
987, 1.72608, 0.852542, 95.6435, 0, -0.000976562, 0.00488281, 0.205078, 0.307617, -9.77344, 1.13.2022 15:46:22.742
988, 1.73029, 0.867604, 95.6431, 0, 0.000976562, 0.00390625, 0.138672, 0.335938, -9.76172, 1.13.2022 15:46:22.750
989, 1.7298, 0.877482, 95.6428, 0.000976562, 0.00195312, 0.00292969, 0.189453, 0.349609, -9.82812, 1.13.2022 15:46:22.758
990, 1.72931, 0.887361, 95.6426, 0, 0.00488281, 0.00195312, 0.208008, 0.291016, -9.70508, 1.13.2022 15:46:22.766
991, 1.72882, 0.897239, 95.6424, 0, 0.00488281, 0.000976562, 0.158203, 0.302734, -9.69238, 1.13.2022 15:46:22.774
992, 1.72834, 0.907118, 95.6422, -0.000976562, 0.00195312, 0, 0.224609, 0.253906, -9.73047, 1.13.2022 15:46:22.782
993, 1.72785, 0.916996, 95.642, 0, 0.000976562, -0.000976562, 0.139648, 0.300781, -9.69629, 1.13.2022 15:46:22.790
994, 1.72218, 0.93157, 95.6418, 0, -0.000976562, 0, 0.179688, 0.320312, -9.71094, 1.13.2022 15:46:22.798
995, 1.72169, 0.941449, 95.6415, 0.000976562, -0.00292969, 0.000976562, 0.216797, 0.294922, -9.75977, 1.13.2022 15:46:22.806
996, 1.72148, 0.951214, 95.6418, 0.000976562, -0.00292969, 0.00195312, 0.158203, 0.351562, -9.72656, 1.13.2022 15:46:22.814
997, 1.72082, 0.961054, 95.6317, 0.000976562, -0.00292969, 0.00292969, 0.234375, 0.357422, -9.74414, 1.13.2022 15:46:22.822
998, 1.72503, 0.976115, 95.6313, 0, -0.00195312, 0.00292969, 0.177734, 0.303711, -9.79199, 1.13.2022 15:46:22.830
999, 1.72454, 0.985994, 95.631, 0.000976562, 0, 0.00195312, 0.117188, 0.314453, -9.74609, 1.13.2022 15:46:22.838
1000, 1.71936, 0.99069, 95.6311, 0.000976562, 0.000976562, 0.00195312, 0.199219, 0.295898, -9.69336, 1.13.2022 15:46:22.846
1001, 1.71888, 1.00057, 95.6308, 0.000976562, -0.000976562, 0.000976562, 0.0605469, 0.279297, -9.70117, 1.13.2022 15:46:22.854
1002, 1.71839, 1.01045, 95.6306, 0, 0, 0, 0.0507812, 0.255859, -9.69922, 1.13.2022 15:46:22.862
1003, 1.7179, 1.02033, 95.6304, 0, -0.000976562, 0, 0.0537109, 0.25293, -9.69629, 1.13.2022 15:46:22.870
1004, 1.71742, 1.03021, 95.6302, -0.000976562, -0.00195312, -0.000976562, -0.0800781, 0.287109, -9.71484, 1.13.2022 15:46:22.878
1005, 1.71693, 1.04008, 95.6299, -0.000976562, -0.00390625, 0, -0.0371094, 0.288086, -9.66797, 1.13.2022 15:46:22.886
1006, 1.71644, 1.04996, 95.6297, 0.000976562, -0.00488281, 0, -0.0830078, 0.301758, -9.7168, 1.13.2022 15:46:22.894
1007, 1.71596, 1.05984, 95.6295, 0.000976562, -0.00488281, 0, -0.124023, 0.322266, -9.76953, 1.13.2022 15:46:22.902
1008, 1.71547, 1.06972, 95.6293, 0.000976562, -0.00390625, 0, -0.0908203, 0.303711, -9.77832, 1.13.2022 15:46:22.910
1009, 1.71498, 1.0796, 95.629, 0, -0.00292969, 0, -0.19043, 0.327148, -9.75195, 1.13.2022 15:46:22.918
1010, 1.7098, 1.0843, 95.629, 0.000976562, -0.000976562, 0, -0.205078, 0.31543, -9.76855, 1.13.2022 15:46:22.926
1011, 1.70932, 1.09418, 95.6288, 0.000976562, 0, 0, -0.200195, 0.243164, -9.72852, 1.13.2022 15:46:22.934
1012, 1.71401, 1.09936, 95.6286, 0.000976562, 0.000976562, -0.000976562, -0.333984, 0.262695, -9.74414, 1.13.2022 15:46:22.942
1013, 1.70883, 1.10405, 95.6286, 0.000976562, 0.00292969, -0.00195312, -0.21875, 0.1875, -9.72461, 1.13.2022 15:46:22.950
1014, 1.70834, 1.11393, 95.6283, -0.00195312, 0, -0.00488281, -0.245117, 0.233398, -9.74219, 1.13.2022 15:46:22.958
1015, 1.7132, 1.11915, 95.638, -0.00195312, -0.000976562, -0.00878906, -0.3125, 0.3125, -9.74316, 1.13.2022 15:46:22.966
1016, 1.70774, 1.12397, 95.6375, 0, -0.00195312, -0.0078125, -0.25, 0.370117, -9.7334, 1.13.2022 15:46:22.974
1017, 1.70725, 1.13384, 95.6373, -0.000976562, -0.00195312, -0.00390625, -0.294922, 0.412109, -9.70996, 1.13.2022 15:46:22.982
1018, 1.70676, 1.14372, 95.6371, 0, -0.00195312, 0, -0.271484, 0.317383, -9.74219, 1.13.2022 15:46:22.990
1019, 1.71146, 1.14891, 95.6368, 0.000976562, -0.00195312, 0.00390625, -0.238281, 0.204102, -9.72656, 1.13.2022 15:46:22.998
1020, 1.70628, 1.1536, 95.6368, 0, -0.00195312, 0.00390625, -0.300781, 0.232422, -9.77148, 1.13.2022 15:46:23.006
1021, 1.70607, 1.16336, 95.637, 0, -0.00195312, 0, -0.229492, 0.234375, -9.77539, 1.13.2022 15:46:23.014
1022, 1.71048, 1.16867, 95.6363, 0, 0, -0.00390625, -0.21582, 0.291992, -9.70996, 1.13.2022 15:46:23.022
1023, 1.7053, 1.17336, 95.6363, 0, 0, -0.00683594, -0.288086, 0.376953, -9.73047, 1.13.2022 15:46:23.030
1024, 1.70497, 1.18327, 95.646, 0, 0, -0.00390625, -0.172852, 0.333008, -9.7002, 1.13.2022 15:46:23.038
1025, 1.70497, 1.18327, 95.646, 0, 0, -0.000976562, -0.249023, 0.323242, -9.69727, 1.13.2022 15:46:23.046
1026, 1.70448, 1.19315, 95.6457, 0, 0, 0.000976562, -0.1875, 0.242188, -9.72656, 1.13.2022 15:46:23.054
1027, 1.70918, 1.19833, 95.6455, 0, 0, 0.00292969, -0.135742, 0.21875, -9.73926, 1.13.2022 15:46:23.062
1028, 1.70384, 1.203, 95.6356, 0, -0.000976562, 0.00292969, -0.173828, 0.291016, -9.75098, 1.13.2022 15:46:23.070
1029, 1.70335, 1.21288, 95.6354, 0, 0, 0, -0.0761719, 0.321289, -9.74023, 1.13.2022 15:46:23.078
1030, 1.70335, 1.21288, 95.6354, 0, -0.000976562, -0.00292969, -0.139648, 0.333008, -9.70605, 1.13.2022 15:46:23.086
1031, 1.70286, 1.22276, 95.6352, -0.000976562, 0, -0.00292969, -0.132812, 0.352539, -9.72168, 1.13.2022 15:46:23.094
1032, 1.70302, 1.22279, 95.645, -0.000976562, 0, -0.00195312, -0.0214844, 0.257812, -9.75879, 1.13.2022 15:46:23.102
1033, 1.70253, 1.23267, 95.6448, 0, -0.000976562, 0, -0.298828, 0.305664, -9.66113, 1.13.2022 15:46:23.110
