Seq, Rot x, Rot y, Rot z, Vel x, Vel y, Vel z, Acc x, Acc y, Acc z, Time(m.d.y h:m:s.ms)
0, 1.96143, 0.382034, 220.57, 0.000976562, -0.000976562, -0.000976562, -0.0722656, 0.333984, -9.82031, 12.8.2021 17:43:23.816
1, 1.96143, 0.382034, 220.57, 0.000976562, -0.000976562, 0, -0.0488281, 0.338867, -9.84375, 12.8.2021 17:43:23.817
2, 1.96143, 0.382034, 220.57, 0.000976562, -0.000976562, 0, -0.0986328, 0.353516, -9.83105, 12.8.2021 17:43:23.825
3, 1.96143, 0.382034, 220.57, 0.000976562, -0.000976562, 0, -0.0273438, 0.324219, -9.83789, 12.8.2021 17:43:23.833
4, 1.95487, 0.379609, 220.57, 0, -0.000976562, 0, -0.0683594, 0.332031, -9.83887, 12.8.2021 17:43:23.841
5, 1.95487, 0.379609, 220.57, 0, -0.000976562, -0.000976562, -0.101562, 0.345703, -9.81934, 12.8.2021 17:43:23.850
6, 1.95487, 0.379609, 220.57, -0.00195312, -0.00195312, 0, -0.015625, 0.321289, -9.81641, 12.8.2021 17:43:23.857
7, 1.95487, 0.379609, 220.57, 0, -0.000976562, 0, -0.0839844, 0.347656, -9.80566, 12.8.2021 17:43:23.865
8, 1.95487, 0.379609, 220.57, 0, -0.000976562, -0.000976562, -0.0634766, 0.351562, -9.8457, 12.8.2021 17:43:23.873
9, 1.95487, 0.379609, 220.57, -0.000976562, -0.000976562, -0.000976562, -0.0195312, 0.332031, -9.77637, 12.8.2021 17:43:23.881
10, 1.95487, 0.379609, 220.57, -0.000976562, -0.000976562, 0, -0.126953, 0.359375, -9.7832, 12.8.2021 17:43:23.887
11, 1.95487, 0.379609, 220.57, -0.00195312, 0.000976562, -0.000976562, -0.0556641, 0.342773, -9.81543, 12.8.2021 17:43:23.895
12, 1.95487, 0.379609, 220.57, -0.000976562, 0.000976562, -0.000976562, -0.0498047, 0.330078, -9.86523, 12.8.2021 17:43:23.903
13, 1.95487, 0.379609, 220.57, -0.000976562, -0.000976562, -0.000976562, -0.113281, 0.361328, -9.84668, 12.8.2021 17:43:23.911
14, 1.95487, 0.379609, 220.57, -0.00195312, -0.000976562, -0.000976562, -0.0302734, 0.335938, -9.83496, 12.8.2021 17:43:23.919
15, 1.95487, 0.379609, 220.57, -0.000976562, -0.000976562, -0.000976562, -0.0732422, 0.329102, -9.83203, 12.8.2021 17:43:23.927
16, 1.95487, 0.379609, 220.57, -0.000976562, -0.000976562, -0.000976562, -0.0888672, 0.374023, -9.81836, 12.8.2021 17:43:23.935
17, 1.95487, 0.379609, 220.57, -0.00195312, 0.000976562, 0, -0.0195312, 0.327148, -9.76953, 12.8.2021 17:43:23.943
18, 1.95487, 0.379609, 220.57, -0.00195312, 0.000976562, -0.000976562, -0.0800781, 0.339844, -9.86035, 12.8.2021 17:43:23.951
19, 1.96143, 0.382034, 220.57, -0.000976562, -0.000976562, 0, -0.0654297, 0.338867, -9.83398, 12.8.2021 17:43:23.959
20, 1.96143, 0.382034, 220.57, -0.000976562, -0.00195312, 0, -0.0341797, 0.303711, -9.78125, 12.8.2021 17:43:23.967
21, 1.96143, 0.382034, 220.57, -0.000976562, -0.000976562, -0.000976562, -0.126953, 0.367188, -9.80176, 12.8.2021 17:43:23.975
22, 1.96385, 0.375474, 220.57, -0.000976562, -0.000976562, 0, -0.0439453, 0.333008, -9.79492, 12.8.2021 17:43:23.983
23, 1.96385, 0.375474, 220.57, 0.000976562, -0.00195312, 0, -0.0771484, 0.317383, -9.8252, 12.8.2021 17:43:23.991
24, 1.96143, 0.382034, 220.57, -0.000976562, -0.00195312, -0.000976562, -0.113281, 0.353516, -9.84961, 12.8.2021 17:43:23.999
25, 1.96143, 0.382034, 220.57, -0.00195312, -0.00195312, -0.000976562, 0.0078125, 0.329102, -9.83984, 12.8.2021 17:43:24.007
26, 1.96143, 0.382034, 220.57, -0.00195312, -0.000976562, -0.000976562, -0.0537109, 0.317383, -9.82031, 12.8.2021 17:43:24.015
27, 1.96143, 0.382034, 220.57, -0.000976562, -0.000976562, -0.000976562, -0.09375, 0.356445, -9.7832, 12.8.2021 17:43:24.023
28, 1.96143, 0.382034, 220.57, -0.00195312, 0.000976562, 0, -0.0273438, 0.317383, -9.82617, 12.8.2021 17:43:24.031
29, 1.96385, 0.375474, 220.57, -0.00195312, -0.000976562, 0, -0.106445, 0.371094, -9.8584, 12.8.2021 17:43:24.039
30, 1.96385, 0.375474, 220.57, -0.000976562, -0.000976562, -0.000976562, -0.0771484, 0.333008, -9.80078, 12.8.2021 17:43:24.047
31, 1.96385, 0.375474, 220.57, -0.000976562, -0.000976562, -0.000976562, -0.0371094, 0.348633, -9.85352, 12.8.2021 17:43:24.055
32, 1.97073, 0.377919, 220.568, -0.000976562, -0.00195312, -0.000976562, -0.113281, 0.348633, -9.83984, 12.8.2021 17:43:24.063
33, 1.97073, 0.377919, 220.568, -0.000976562, -0.000976562, 0, -0.0517578, 0.329102, -9.83008, 12.8.2021 17:43:24.071
34, 1.9704, 0.377899, 220.57, -0.000976562, 0.000976562, 0, -0.0605469, 0.316406, -9.81152, 12.8.2021 17:43:24.079
35, 1.9704, 0.377899, 220.57, -0.00195312, 0.000976562, -0.000976562, -0.111328, 0.34375, -9.84082, 12.8.2021 17:43:24.087
36, 1.97073, 0.377919, 220.568, -0.00195312, 0.000976562, -0.000976562, -0.0253906, 0.345703, -9.82715, 12.8.2021 17:43:24.095
37, 1.97073, 0.377919, 220.568, -0.00195312, -0.000976562, -0.000976562, -0.0898438, 0.327148, -9.84863, 12.8.2021 17:43:24.103
38, 1.97073, 0.377919, 220.568, -0.000976562, -0.000976562, 0, -0.0771484, 0.357422, -9.82422, 12.8.2021 17:43:24.111
39, 1.97073, 0.377919, 220.568, -0.00195312, -0.00195312, 0, 0.00878906, 0.323242, -9.80762, 12.8.2021 17:43:24.119
40, 1.97073, 0.377919, 220.568, -0.00195312, -0.000976562, 0, -0.0947266, 0.363281, -9.83789, 12.8.2021 17:43:24.127
41, 1.97073, 0.377919, 220.568, -0.000976562, -0.000976562, -0.000976562, -0.0654297, 0.344727, -9.80371, 12.8.2021 17:43:24.135
42, 1.97073, 0.377919, 220.568, 0, -0.000976562, 0, -0.0292969, 0.338867, -9.82324, 12.8.2021 17:43:24.143
43, 1.97073, 0.377919, 220.568, 0, 0.000976562, -0.000976562, -0.115234, 0.353516, -9.83301, 12.8.2021 17:43:24.151
44, 1.97073, 0.377919, 220.568, 0, -0.000976562, 0, -0.0517578, 0.368164, -9.84766, 12.8.2021 17:43:24.159
45, 1.97073, 0.377919, 220.568, -0.000976562, -0.00195312, 0, -0.0449219, 0.306641, -9.86816, 12.8.2021 17:43:24.167
46, 1.97696, 0.380324, 220.57, 0, -0.000976562, 0, -0.111328, 0.34375, -9.84277, 12.8.2021 17:43:24.175
47, 1.97696, 0.380324, 220.57, 0, -0.000976562, 0, -0.0439453, 0.331055, -9.81836, 12.8.2021 17:43:24.183
48, 1.97696, 0.380324, 220.57, -0.000976562, -0.000976562, -0.000976562, -0.0302734, 0.333984, -9.83496, 12.8.2021 17:43:24.191
49, 1.97696, 0.380324, 220.57, 0, -0.000976562, -0.000976562, -0.09375, 0.383789, -9.81348, 12.8.2021 17:43:24.199
50, 1.97696, 0.380324, 220.57, -0.000976562, -0.000976562, -0.000976562, -0.0488281, 0.352539, -9.80078, 12.8.2021 17:43:24.207
51, 1.97729, 0.380344, 220.568, 0, 0.000976562, -0.000976562, -0.100586, 0.351562, -9.79102, 12.8.2021 17:43:24.215
52, 1.97729, 0.380344, 220.568, 0, -0.000976562, -0.000976562, -0.0966797, 0.342773, -9.81738, 12.8.2021 17:43:24.223
53, 1.97729, 0.380344, 220.568, 0, 0.000976562, -0.000976562, -0.0107422, 0.298828, -9.8457, 12.8.2021 17:43:24.231
54, 1.97729, 0.380344, 220.568, 0, 0.000976562, 0, -0.125977, 0.358398, -9.84961, 12.8.2021 17:43:24.239
55, 1.97729, 0.380344, 220.568, 0, -0.000976562, 0, -0.0566406, 0.349609, -9.86914, 12.8.2021 17:43:24.247
56, 1.97696, 0.380324, 220.57, -0.000976562, -0.000976562, 0, -0.0380859, 0.337891, -9.88379, 12.8.2021 17:43:24.255
57, 1.97696, 0.380324, 220.57, -0.000976562, -0.000976562, -0.000976562, -0.0947266, 0.34082, -9.83105, 12.8.2021 17:43:24.263
58, 1.97696, 0.380324, 220.57, -0.000976562, -0.000976562, 0, -0.0205078, 0.322266, -9.84277, 12.8.2021 17:43:24.271
59, 1.97696, 0.380324, 220.57, 0, -0.00195312, 0, -0.0830078, 0.351562, -9.85254, 12.8.2021 17:43:24.279
60, 1.98351, 0.382749, 220.57, 0, -0.000976562, 0, -0.0722656, 0.337891, -9.8125, 12.8.2021 17:43:24.287
61, 1.98351, 0.382749, 220.57, 0, 0, 0.000976562, -0.0351562, 0.295898, -9.84277, 12.8.2021 17:43:24.295
62, 1.97696, 0.380324, 220.57, 0, 0.000976562, 0, -0.0947266, 0.373047, -9.84473, 12.8.2021 17:43:24.303
63, 1.97696, 0.380324, 220.57, 0, 0.000976562, 0, -0.0878906, 0.366211, -9.85449, 12.8.2021 17:43:24.311
64, 1.97696, 0.380324, 220.57, 0, 0.000976562, -0.000976562, -0.0205078, 0.321289, -9.81445, 12.8.2021 17:43:24.319
65, 1.97696, 0.380324, 220.57, 0, 0.000976562, -0.000976562, -0.130859, 0.361328, -9.87012, 12.8.2021 17:43:24.327
66, 1.97696, 0.380324, 220.57, 0, 0.000976562, -0.000976562, -0.0458984, 0.337891, -9.80371, 12.8.2021 17:43:24.335
67, 1.98351, 0.382749, 220.57, -0.000976562, -0.000976562, -0.000976562, -0.0605469, 0.321289, -9.81836, 12.8.2021 17:43:24.343
68, 1.98351, 0.382749, 220.57, 0, -0.000976562, 0, -0.0966797, 0.366211, -9.85645, 12.8.2021 17:43:24.351
69, 1.98351, 0.382749, 220.57, 0, -0.000976562, 0, -0.0341797, 0.316406, -9.82129, 12.8.2021 17:43:24.359
70, 1.98351, 0.382749, 220.57, 0, -0.000976562, 0, -0.0712891, 0.337891, -9.87695, 12.8.2021 17:43:24.367
71, 1.98351, 0.382749, 220.57, -0.000976562, -0.00195312, -0.000976562, -0.0878906, 0.380859, -9.875, 12.8.2021 17:43:24.375
72, 1.98351, 0.382749, 220.57, 0, -0.000976562, 0, -0.0126953, 0.331055, -9.82324, 12.8.2021 17:43:24.383
73, 1.98351, 0.382749, 220.57, 0, -0.000976562, 0, -0.103516, 0.333984, -9.83887, 12.8.2021 17:43:24.391
74, 1.98351, 0.382749, 220.57, 0, 0, 0, -0.0888672, 0.356445, -9.77637, 12.8.2021 17:43:24.399
75, 1.98351, 0.382749, 220.57, 0, -0.000976562, 0, -0.0371094, 0.304688, -9.82812, 12.8.2021 17:43:24.407
76, 1.98351, 0.382749, 220.57, 0, -0.000976562, -0.000976562, -0.12207, 0.333008, -9.78613, 12.8.2021 17:43:24.415
77, 1.98351, 0.382749, 220.57, 0, -0.000976562, -0.000976562, -0.0458984, 0.319336, -9.81836, 12.8.2021 17:43:24.423
78, 1.98351, 0.382749, 220.57, 0.000976562, 0, 0, -0.0390625, 0.324219, -9.82324, 12.8.2021 17:43:24.431
79, 1.98351, 0.382749, 220.57, 0, -0.000976562, 0, -0.101562, 0.379883, -9.85645, 12.8.2021 17:43:24.439
80, 1.98351, 0.382749, 220.57, 0, -0.000976562, 0, -0.0439453, 0.331055, -9.82031, 12.8.2021 17:43:24.447
81, 1.98109, 0.389308, 220.57, 0.000976562, -0.000976562, 0, -0.078125, 0.330078, -9.85547, 12.8.2021 17:43:24.455
82, 1.98109, 0.389308, 220.57, 0, -0.000976562, -0.000976562, -0.110352, 0.352539, -9.80469, 12.8.2021 17:43:24.463
83, 1.98109, 0.389308, 220.57, -0.000976562, 0, 0, -0.00390625, 0.335938, -9.82617, 12.8.2021 17:43:24.471
84, 1.98109, 0.389308, 220.57, -0.000976562, 0, -0.000976562, -0.103516, 0.345703, -9.8291, 12.8.2021 17:43:24.479
85, 1.98109, 0.389308, 220.57, 0, 0, -0.000976562, -0.0791016, 0.337891, -9.80371, 12.8.2021 17:43:24.487
86, 1.98109, 0.389308, 220.57, -0.000976562, -0.000976562, 0, -0.0517578, 0.322266, -9.84473, 12.8.2021 17:43:24.495
87, 1.98109, 0.389308, 220.57, -0.000976562, -0.000976562, 0, -0.131836, 0.365234, -9.82812, 12.8.2021 17:43:24.503
88, 1.98109, 0.389308, 220.57, 0, -0.00195312, -0.000976562, -0.0429688, 0.332031, -9.7832, 12.8.2021 17:43:24.511
89, 1.98109, 0.389308, 220.57, 0, 0, -0.000976562, -0.0439453, 0.326172, -9.7998, 12.8.2021 17:43:24.519
90, 1.98109, 0.389308, 220.57, 0, -0.000976562, -0.000976562, -0.108398, 0.352539, -9.81445, 12.8.2021 17:43:24.527
91, 1.98109, 0.389308, 220.57, 0, -0.000976562, 0, -0.0273438, 0.334961, -9.79688, 12.8.2021 17:43:24.535
92, 1.98109, 0.389308, 220.57, 0.000976562, 0, 0, -0.0742188, 0.347656, -9.80078, 12.8.2021 17:43:24.543
93, 1.98109, 0.389308, 220.57, 0, 0, 0, -0.0917969, 0.358398, -9.84277, 12.8.2021 17:43:24.551
94, 1.98109, 0.389308, 220.57, -0.000976562, -0.000976562, 0, -0.0292969, 0.318359, -9.80664, 12.8.2021 17:43:24.559
95, 1.98109, 0.389308, 220.57, -0.000976562, -0.000976562, 0, -0.0869141, 0.334961, -9.79883, 12.8.2021 17:43:24.567
96, 1.98109, 0.389308, 220.57, 0, -0.000976562, -0.000976562, -0.101562, 0.360352, -9.81836, 12.8.2021 17:43:24.575
97, 1.97867, 0.395868, 220.57, 0, -0.000976562, -0.000976562, -0.03125, 0.336914, -9.76367, 12.8.2021 17:43:24.583
98, 1.97867, 0.395868, 220.57, 0, -0.000976562, 0, -0.0986328, 0.362305, -9.80469, 12.8.2021 17:43:24.591
99, 1.97867, 0.395868, 220.57, 0.000976562, 0, 0, -0.0429688, 0.332031, -9.77832, 12.8.2021 17:43:24.599
100, 1.97867, 0.395868, 220.57, 0.000976562, -0.000976562, 0, -0.0585938, 0.332031, -9.85352, 12.8.2021 17:43:24.607
101, 1.97867, 0.395868, 220.57, 0, -0.000976562, 0, -0.101562, 0.370117, -9.83789, 12.8.2021 17:43:24.615
102, 1.97867, 0.395868, 220.57, -0.000976562, -0.000976562, 0, -0.00292969, 0.331055, -9.80664, 12.8.2021 17:43:24.623
103, 1.97867, 0.395868, 220.57, 0, -0.000976562, -0.000976562, -0.0810547, 0.333008, -9.88574, 12.8.2021 17:43:24.631
104, 1.97867, 0.395868, 220.57, 0, -0.000976562, -0.000976562, -0.0849609, 0.360352, -9.84766, 12.8.2021 17:43:24.639
105, 1.97867, 0.395868, 220.57, 0, 0, 0, -0.0224609, 0.310547, -9.84082, 12.8.2021 17:43:24.647
106, 1.97867, 0.395868, 220.57, -0.00195312, 0, 0, -0.117188, 0.341797, -9.77148, 12.8.2021 17:43:24.655
107, 1.97867, 0.395868, 220.57, 0, 0, -0.000976562, -0.0585938, 0.333984, -9.81836, 12.8.2021 17:43:24.663
108, 1.97867, 0.395868, 220.57, 0, -0.000976562, 0, -0.00585938, 0.3125, -9.83594, 12.8.2021 17:43:24.671
109, 1.97867, 0.395868, 220.57, 0, -0.000976562, -0.000976562, -0.112305, 0.374023, -9.79688, 12.8.2021 17:43:24.679
110, 1.97867, 0.395868, 220.57, 0, 0, -0.000976562, -0.0273438, 0.34375, -9.83203, 12.8.2021 17:43:24.687
111, 1.97867, 0.395868, 220.57, -0.00195312, 0, -0.000976562, -0.0546875, 0.339844, -9.87402, 12.8.2021 17:43:24.695
112, 1.98109, 0.389308, 220.57, 0, 0, -0.000976562, -0.12207, 0.349609, -9.79492, 12.8.2021 17:43:24.703
113, 1.98109, 0.389308, 220.57, 0, -0.000976562, -0.000976562, -0.0205078, 0.353516, -9.83496, 12.8.2021 17:43:24.711
114, 1.98109, 0.389308, 220.57, 0, -0.000976562, 0.000976562, -0.0888672, 0.335938, -9.81934, 12.8.2021 17:43:24.719
115, 1.98109, 0.389308, 220.57, -0.00195312, 0, 0, -0.106445, 0.357422, -9.82617, 12.8.2021 17:43:24.727
116, 1.98109, 0.389308, 220.57, 0, -0.000976562, -0.000976562, -0.0302734, 0.325195, -9.85156, 12.8.2021 17:43:24.735
117, 1.98109, 0.389308, 220.57, -0.00195312, -0.00195312, -0.000976562, -0.108398, 0.355469, -9.81934, 12.8.2021 17:43:24.743
118, 1.98764, 0.391733, 220.57, -0.00195312, -0.00195312, 0, -0.0585938, 0.338867, -9.85059, 12.8.2021 17:43:24.751
119, 1.98764, 0.391733, 220.57, 0, -0.000976562, 0, -0.0136719, 0.333984, -9.84668, 12.8.2021 17:43:24.759
120, 1.98764, 0.391733, 220.57, -0.00195312, -0.000976562, 0, -0.108398, 0.345703, -9.80762, 12.8.2021 17:43:24.767
121, 1.98764, 0.391733, 220.57, 0, 0, -0.000976562, -0.0224609, 0.345703, -9.83496, 12.8.2021 17:43:24.775
122, 1.98764, 0.391733, 220.57, 0.000976562, 0, 0, -0.046875, 0.333984, -9.83691, 12.8.2021 17:43:24.783
123, 1.98764, 0.391733, 220.57, -0.00195312, -0.000976562, -0.000976562, -0.0917969, 0.357422, -9.80957, 12.8.2021 17:43:24.791
124, 1.98764, 0.391733, 220.57, 0, -0.000976562, -0.000976562, -0.015625, 0.333008, -9.81348, 12.8.2021 17:43:24.799
125, 1.98764, 0.391733, 220.57, 0.000976562, -0.000976562, -0.000976562, -0.0800781, 0.307617, -9.8252, 12.8.2021 17:43:24.807
126, 1.98798, 0.391753, 220.568, 0, -0.000976562, -0.000976562, -0.0957031, 0.336914, -9.77441, 12.8.2021 17:43:24.815
127, 1.98798, 0.391753, 220.568, 0, 0, -0.000976562, -0.0263672, 0.320312, -9.79297, 12.8.2021 17:43:24.823
128, 1.98798, 0.391753, 220.568, 0, -0.000976562, 0, -0.104492, 0.339844, -9.85254, 12.8.2021 17:43:24.831
129, 1.98798, 0.391753, 220.568, 0, -0.000976562, -0.000976562, -0.0654297, 0.354492, -9.8125, 12.8.2021 17:43:24.839
130, 1.98798, 0.391753, 220.568, 0, 0, 0, -0.0439453, 0.331055, -9.83008, 12.8.2021 17:43:24.845
131, 1.9904, 0.385194, 220.568, 0.000976562, 0, -0.000976562, -0.137695, 0.37793, -9.87207, 12.8.2021 17:43:24.853
132, 1.98384, 0.382769, 220.568, 0.000976562, 0, -0.000976562, -0.0458984, 0.326172, -9.81836, 12.8.2021 17:43:24.861
133, 1.98384, 0.382769, 220.568, 0, 0, -0.000976562, -0.0615234, 0.342773, -9.87891, 12.8.2021 17:43:24.869
134, 1.98384, 0.382769, 220.568, 0, -0.000976562, -0.000976562, -0.109375, 0.353516, -9.85645, 12.8.2021 17:43:24.877
135, 1.98384, 0.382769, 220.568, 0, -0.000976562, -0.000976562, -0.0341797, 0.318359, -9.7832, 12.8.2021 17:43:24.885
136, 1.98384, 0.382769, 220.568, -0.00195312, -0.000976562, -0.000976562, -0.0800781, 0.333984, -9.81543, 12.8.2021 17:43:24.893
137, 1.98384, 0.382769, 220.568, 0, 0, 0, -0.0791016, 0.373047, -9.78125, 12.8.2021 17:43:24.903
138, 1.98384, 0.382769, 220.568, 0, 0, 0, 0.0126953, 0.317383, -9.83789, 12.8.2021 17:43:24.909
139, 1.98384, 0.382769, 220.568, 0.000976562, -0.000976562, -0.000976562, -0.101562, 0.335938, -9.82617, 12.8.2021 17:43:24.917
140, 1.98384, 0.382769, 220.568, 0, -0.00195312, -0.000976562, -0.0791016, 0.354492, -9.79102, 12.8.2021 17:43:24.925
141, 1.98142, 0.389328, 220.568, 0, -0.00195312, 0, -0.0390625, 0.324219, -9.82129, 12.8.2021 17:43:24.933
142, 1.98142, 0.389328, 220.568, 0, -0.000976562, 0, -0.126953, 0.354492, -9.79004, 12.8.2021 17:43:24.941
143, 1.98142, 0.389328, 220.568, -0.000976562, 0, -0.000976562, -0.0673828, 0.347656, -9.79395, 12.8.2021 17:43:24.949
144, 1.98142, 0.389328, 220.568, 0, -0.000976562, -0.000976562, -0.0771484, 0.350586, -9.83105, 12.8.2021 17:43:24.957
145, 1.98142, 0.389328, 220.568, 0, -0.000976562, -0.000976562, -0.101562, 0.37207, -9.83496, 12.8.2021 17:43:24.965
146, 1.98142, 0.389328, 220.568, 0.000976562, -0.000976562, 0, -0.0351562, 0.310547, -9.83789, 12.8.2021 17:43:24.973
147, 1.98142, 0.389328, 220.568, 0, 0, 0, -0.0820312, 0.331055, -9.82715, 12.8.2021 17:43:24.981
148, 1.98142, 0.389328, 220.568, 0, -0.000976562, -0.000976562, -0.0771484, 0.362305, -9.80957, 12.8.2021 17:43:24.989
149, 1.98142, 0.389328, 220.568, 0, -0.000976562, -0.000976562, -0.0273438, 0.331055, -9.82812, 12.8.2021 17:43:24.997
150, 1.98142, 0.389328, 220.568, 0, -0.000976562, 0, -0.078125, 0.354492, -9.87109, 12.8.2021 17:43:25.005
151, 1.98798, 0.391753, 220.568, 0, 0, -0.00195312, -0.0634766, 0.345703, -9.83887, 12.8.2021 17:43:25.013
152, 1.98798, 0.391753, 220.568, 0, -0.000976562, 0, -0.0371094, 0.330078, -9.86035, 12.8.2021 17:43:25.021
153, 1.98798, 0.391753, 220.568, 0.000976562, -0.000976562, 0, -0.103516, 0.355469, -9.83105, 12.8.2021 17:43:25.029
154, 1.98798, 0.391753, 220.568, 0.000976562, -0.000976562, 0, -0.0302734, 0.335938, -9.83496, 12.8.2021 17:43:25.037
155, 1.98798, 0.391753, 220.568, 0, -0.000976562, 0, -0.0800781, 0.336914, -9.8457, 12.8.2021 17:43:25.045
156, 1.98798, 0.391753, 220.568, 0.000976562, 0, -0.000976562, -0.0888672, 0.347656, -9.80273, 12.8.2021 17:43:25.053
157, 1.98798, 0.391753, 220.568, 0.000976562, -0.000976562, -0.000976562, -0.0117188, 0.328125, -9.8877, 12.8.2021 17:43:25.061
158, 1.98798, 0.391753, 220.568, 0, -0.000976562, 0, -0.0673828, 0.352539, -9.82227, 12.8.2021 17:43:25.069
159, 1.98798, 0.391753, 220.568, 0.000976562, 0, 0, -0.09375, 0.376953, -9.82129, 12.8.2021 17:43:25.077
160, 1.98142, 0.389328, 220.568, 0, 0, 0, -0.015625, 0.31543, -9.84766, 12.8.2021 17:43:25.085
161, 1.98142, 0.389328, 220.568, 0, 0, 0, -0.09375, 0.331055, -9.82715, 12.8.2021 17:43:25.093
162, 1.98109, 0.389308, 220.57, 0, -0.000976562, 0, -0.0810547, 0.329102, -9.89551, 12.8.2021 17:43:25.101
163, 1.98764, 0.391733, 220.57, 0, -0.000976562, -0.000976562, -0.0419922, 0.347656, -9.82031, 12.8.2021 17:43:25.109
164, 1.98798, 0.391753, 220.568, 0, -0.000976562, -0.000976562, -0.121094, 0.368164, -9.84668, 12.8.2021 17:43:25.117
165, 1.98798, 0.391753, 220.568, -0.000976562, -0.000976562, -0.000976562, -0.0585938, 0.336914, -9.83887, 12.8.2021 17:43:25.125
166, 1.98798, 0.391753, 220.568, -0.000976562, -0.000976562, -0.000976562, -0.0546875, 0.320312, -9.77148, 12.8.2021 17:43:25.133
167, 1.98798, 0.391753, 220.568, 0, -0.000976562, 0, -0.103516, 0.337891, -9.79785, 12.8.2021 17:43:25.141
168, 1.98798, 0.391753, 220.568, 0, -0.00195312, -0.000976562, -0.0185547, 0.332031, -9.85156, 12.8.2021 17:43:25.149
169, 1.98798, 0.391753, 220.568, 0, 0, -0.000976562, -0.0849609, 0.344727, -9.86914, 12.8.2021 17:43:25.157
170, 1.98798, 0.391753, 220.568, 0, 0, -0.000976562, -0.0800781, 0.351562, -9.85938, 12.8.2021 17:43:25.165
171, 1.98798, 0.391753, 220.568, -0.000976562, -0.000976562, 0, -0.0341797, 0.311523, -9.80664, 12.8.2021 17:43:25.173
172, 1.98798, 0.391753, 220.568, -0.00195312, -0.000976562, -0.000976562, -0.09375, 0.329102, -9.81543, 12.8.2021 17:43:25.181
173, 1.98798, 0.391753, 220.568, -0.00195312, -0.000976562, 0, -0.0771484, 0.34375, -9.82227, 12.8.2021 17:43:25.189
174, 1.98798, 0.391753, 220.568, -0.000976562, -0.000976562, 0, -0.0419922, 0.319336, -9.81348, 12.8.2021 17:43:25.197
175, 1.98798, 0.391753, 220.568, -0.000976562, -0.00195312, -0.000976562, -0.148438, 0.349609, -9.7998, 12.8.2021 17:43:25.205
176, 1.98798, 0.391753, 220.568, -0.000976562, -0.000976562, -0.000976562, -0.0566406, 0.34375, -9.84082, 12.8.2021 17:43:25.213
177, 1.98798, 0.391753, 220.568, -0.000976562, -0.000976562, -0.000976562, -0.0634766, 0.342773, -9.87207, 12.8.2021 17:43:25.221
178, 1.98798, 0.391753, 220.568, -0.000976562, -0.000976562, 0, -0.118164, 0.348633, -9.83789, 12.8.2021 17:43:25.229
179, 1.98798, 0.391753, 220.568, -0.00195312, 0, 0, -0.0527344, 0.333008, -9.78711, 12.8.2021 17:43:25.237
180, 1.98798, 0.391753, 220.568, -0.000976562, 0, 0, -0.0849609, 0.34375, -9.82422, 12.8.2021 17:43:25.245
181, 1.98555, 0.398312, 220.568, -0.000976562, -0.000976562, 0, -0.0771484, 0.333984, -9.82227, 12.8.2021 17:43:25.253
182, 1.98522, 0.398293, 220.57, -0.000976562, 0, 0, -0.0175781, 0.332031, -9.7832, 12.8.2021 17:43:25.261
183, 1.98522, 0.398293, 220.57, -0.00195312, 0, 0, -0.112305, 0.334961, -9.7959, 12.8.2021 17:43:25.269
184, 1.98522, 0.398293, 220.57, -0.000976562, 0, 0, -0.101562, 0.345703, -9.82422, 12.8.2021 17:43:25.277
185, 1.98522, 0.398293, 220.57, -0.000976562, 0, 0, -0.0517578, 0.324219, -9.83008, 12.8.2021 17:43:25.285
186, 1.98522, 0.398293, 220.57, 0, -0.000976562, 0, -0.0986328, 0.336914, -9.83105, 12.8.2021 17:43:25.293
187, 1.98522, 0.398293, 220.57, 0, -0.00195312, -0.000976562, -0.0410156, 0.328125, -9.80176, 12.8.2021 17:43:25.301
188, 1.98522, 0.398293, 220.57, 0.00195312, -0.000976562, 0, -0.0605469, 0.313477, -9.7832, 12.8.2021 17:43:25.309
189, 1.97624, 0.402428, 220.57, 0, -0.000976562, -0.000976562, -0.110352, 0.356445, -9.77637, 12.8.2021 17:43:25.317
190, 1.97624, 0.402428, 220.57, -0.000976562, -0.000976562, -0.000976562, -0.0371094, 0.331055, -9.82031, 12.8.2021 17:43:25.325
191, 1.97624, 0.402428, 220.57, -0.000976562, -0.000976562, 0, -0.0703125, 0.314453, -9.80176, 12.8.2021 17:43:25.333
192, 1.97624, 0.402428, 220.57, -0.000976562, -0.000976562, 0, -0.0683594, 0.353516, -9.84277, 12.8.2021 17:43:25.341
193, 1.97624, 0.402428, 220.57, -0.00195312, 0, 0, -0.00195312, 0.31543, -9.84766, 12.8.2021 17:43:25.349
194, 1.97624, 0.402428, 220.57, -0.000976562, -0.000976562, -0.000976562, -0.103516, 0.354492, -9.80762, 12.8.2021 17:43:25.357
195, 1.97624, 0.402428, 220.57, -0.000976562, -0.000976562, 0, -0.0605469, 0.317383, -9.82031, 12.8.2021 17:43:25.365
196, 1.97624, 0.402428, 220.57, -0.000976562, -0.000976562, -0.000976562, -0.0517578, 0.324219, -9.83203, 12.8.2021 17:43:25.373
197, 1.97624, 0.402428, 220.57, -0.000976562, 0, 0, -0.101562, 0.358398, -9.83301, 12.8.2021 17:43:25.381
198, 1.97624, 0.402428, 220.57, -0.000976562, 0, 0, -0.0537109, 0.355469, -9.81738, 12.8.2021 17:43:25.389
199, 1.97624, 0.402428, 220.57, -0.000976562, 0, 0, -0.0419922, 0.311523, -9.81445, 12.8.2021 17:43:25.397
200, 1.97624, 0.402428, 220.57, 0, -0.000976562, 0, -0.125, 0.331055, -9.80273, 12.8.2021 17:43:25.405
201, 1.97624, 0.402428, 220.57, -0.000976562, -0.000976562, -0.000976562, -0.03125, 0.316406, -9.79785, 12.8.2021 17:43:25.413
202, 1.97382, 0.408988, 220.57, -0.000976562, 0, -0.000976562, -0.0664062, 0.323242, -9.8584, 12.8.2021 17:43:25.421
203, 1.96727, 0.406563, 220.57, -0.000976562, -0.000976562, -0.000976562, -0.0722656, 0.371094, -9.79492, 12.8.2021 17:43:25.429
204, 1.96727, 0.406563, 220.57, -0.000976562, -0.00195312, -0.000976562, -0.00585938, 0.345703, -9.8418, 12.8.2021 17:43:25.437
205, 1.96727, 0.406563, 220.57, -0.000976562, -0.000976562, 0, -0.0888672, 0.362305, -9.80957, 12.8.2021 17:43:25.445
206, 1.96727, 0.406563, 220.57, -0.000976562, -0.000976562, 0, -0.0898438, 0.34668, -9.84082, 12.8.2021 17:43:25.453
207, 1.96727, 0.406563, 220.57, -0.000976562, -0.000976562, -0.000976562, -0.0664062, 0.330078, -9.84863, 12.8.2021 17:43:25.461
208, 1.96727, 0.406563, 220.57, -0.000976562, -0.000976562, -0.000976562, -0.125, 0.352539, -9.79785, 12.8.2021 17:43:25.469
209, 1.96727, 0.406563, 220.57, -0.000976562, -0.000976562, -0.000976562, -0.0654297, 0.337891, -9.81543, 12.8.2021 17:43:25.477
210, 1.96727, 0.406563, 220.57, 0.000976562, -0.000976562, -0.000976562, -0.0507812, 0.34668, -9.78027, 12.8.2021 17:43:25.485
211, 1.96727, 0.406563, 220.57, -0.000976562, 0, -0.000976562, -0.123047, 0.362305, -9.81836, 12.8.2021 17:43:25.493
212, 1.96727, 0.406563, 220.57, -0.00195312, -0.000976562, 0, -0.0585938, 0.345703, -9.83691, 12.8.2021 17:43:25.501
213, 1.96727, 0.406563, 220.57, -0.000976562, -0.000976562, 0, -0.0751953, 0.326172, -9.82031, 12.8.2021 17:43:25.509
214, 1.96727, 0.406563, 220.57, -0.000976562, -0.000976562, 0, -0.09375, 0.342773, -9.8125, 12.8.2021 17:43:25.517
215, 1.96727, 0.406563, 220.57, -0.000976562, -0.000976562, -0.000976562, -0.0126953, 0.328125, -9.81445, 12.8.2021 17:43:25.525
216, 1.96727, 0.406563, 220.57, -0.000976562, -0.000976562, 0, -0.0908203, 0.361328, -9.78613, 12.8.2021 17:43:25.533
217, 1.96727, 0.406563, 220.57, -0.000976562, -0.000976562, -0.000976562, -0.0732422, 0.34375, -9.85059, 12.8.2021 17:43:25.541
218, 1.96727, 0.406563, 220.57, -0.000976562, 0, 0, -0.0351562, 0.324219, -9.83789, 12.8.2021 17:43:25.549
219, 1.96727, 0.406563, 220.57, -0.000976562, -0.000976562, 0, -0.12207, 0.351562, -9.79004, 12.8.2021 17:43:25.557
220, 1.97382, 0.408988, 220.57, -0.00195312, 0, -0.000976562, -0.0410156, 0.342773, -9.80859, 12.8.2021 17:43:25.565
221, 1.97415, 0.409006, 220.568, -0.00195312, -0.000976562, -0.000976562, -0.0712891, 0.354492, -9.86914, 12.8.2021 17:43:25.573
222, 1.97415, 0.409006, 220.568, -0.000976562, 0.000976562, -0.00195312, -0.113281, 0.336914, -9.83301, 12.8.2021 17:43:25.581
223, 1.97415, 0.409006, 220.568, -0.000976562, 0.000976562, -0.000976562, -0.015625, 0.329102, -9.82324, 12.8.2021 17:43:25.589
224, 1.97657, 0.402447, 220.568, 0.000976562, 0, -0.000976562, -0.0556641, 0.333008, -9.79688, 12.8.2021 17:43:25.597
225, 1.97657, 0.402447, 220.568, -0.000976562, -0.000976562, 0, -0.0751953, 0.34082, -9.82227, 12.8.2021 17:43:25.605
226, 1.97657, 0.402447, 220.568, -0.00195312, -0.000976562, -0.000976562, -0.00390625, 0.338867, -9.83984, 12.8.2021 17:43:25.613
227, 1.97657, 0.402447, 220.568, -0.00195312, 0, -0.000976562, -0.113281, 0.336914, -9.83594, 12.8.2021 17:43:25.621
228, 1.97657, 0.402447, 220.568, -0.000976562, 0, -0.000976562, -0.0869141, 0.363281, -9.84766, 12.8.2021 17:43:25.629
229, 1.97657, 0.402447, 220.568, -0.000976562, -0.000976562, -0.000976562, -0.0224609, 0.34082, -9.81348, 12.8.2021 17:43:25.637
230, 1.97657, 0.402447, 220.568, -0.000976562, -0.000976562, 0, -0.118164, 0.351562, -9.85156, 12.8.2021 17:43:25.645
231, 1.97657, 0.402447, 220.568, 0.000976562, -0.000976562, 0, -0.0322266, 0.344727, -9.80371, 12.8.2021 17:43:25.653
232, 1.97657, 0.402447, 220.568, -0.000976562, -0.000976562, -0.000976562, -0.0654297, 0.337891, -9.81055, 12.8.2021 17:43:25.661
233, 1.97657, 0.402447, 220.568, 0.000976562, 0, -0.000976562, -0.101562, 0.337891, -9.81445, 12.8.2021 17:43:25.669
234, 1.97657, 0.402447, 220.568, 0, 0, -0.000976562, -0.00292969, 0.337891, -9.80957, 12.8.2021 17:43:25.677
235, 1.97657, 0.402447, 220.568, 0, -0.000976562, 0, -0.0371094, 0.297852, -9.8125, 12.8.2021 17:43:25.685
236, 1.97657, 0.402447, 220.568, 0.000976562, -0.000976562, 0, -0.0986328, 0.335938, -9.8291, 12.8.2021 17:43:25.693
237, 1.97657, 0.402447, 220.568, 0, -0.000976562, 0, -0.0273438, 0.327148, -9.83008, 12.8.2021 17:43:25.701
238, 1.97657, 0.402447, 220.568, 0, -0.000976562, -0.000976562, -0.125, 0.357422, -9.79492, 12.8.2021 17:43:25.709
239, 1.97657, 0.402447, 220.568, 0, -0.000976562, 0, -0.0898438, 0.34375, -9.83398, 12.8.2021 17:43:25.717
240, 1.979, 0.395887, 220.568, 0, -0.000976562, 0, -0.0322266, 0.321289, -9.80664, 12.8.2021 17:43:25.725
241, 1.979, 0.395887, 220.568, 0, 0, -0.000976562, -0.103516, 0.331055, -9.80273, 12.8.2021 17:43:25.733
242, 1.979, 0.395887, 220.568, 0, -0.000976562, 0, -0.0625, 0.303711, -9.79492, 12.8.2021 17:43:25.741
243, 1.979, 0.395887, 220.568, 0, -0.00195312, -0.000976562, -0.0351562, 0.307617, -9.84766, 12.8.2021 17:43:25.749
244, 1.979, 0.395887, 220.568, 0, -0.000976562, -0.000976562, -0.108398, 0.337891, -9.81445, 12.8.2021 17:43:25.757
245, 1.979, 0.395887, 220.568, 0, -0.000976562, -0.00195312, -0.0439453, 0.327148, -9.83496, 12.8.2021 17:43:25.765
246, 1.979, 0.395887, 220.568, -0.00195312, -0.00195312, 0, -0.0654297, 0.301758, -9.80176, 12.8.2021 17:43:25.773
247, 1.979, 0.395887, 220.568, 0, -0.000976562, 0, -0.103516, 0.352539, -9.80469, 12.8.2021 17:43:25.781
248, 1.97657, 0.402447, 220.568, 0.000976562, -0.00195312, 0, -0.0390625, 0.304688, -9.82812, 12.8.2021 17:43:25.789
249, 1.97657, 0.402447, 220.568, 0, -0.000976562, -0.000976562, -0.09375, 0.324219, -9.82031, 12.8.2021 17:43:25.797
250, 1.97002, 0.400022, 220.568, -0.00195312, -0.000976562, 0, -0.0683594, 0.313477, -9.85352, 12.8.2021 17:43:25.805
251, 1.97002, 0.400022, 220.568, -0.00195312, 0, 0, -0.0498047, 0.326172, -9.87695, 12.8.2021 17:43:25.813
252, 1.97002, 0.400022, 220.568, 0, 0, -0.000976562, -0.101562, 0.370117, -9.83008, 12.8.2021 17:43:25.819
253, 1.97002, 0.400022, 220.568, 0.000976562, 0, 0, -0.0517578, 0.329102, -9.82715, 12.8.2021 17:43:25.829
254, 1.97002, 0.400022, 220.568, 0, -0.00195312, 0, -0.0517578, 0.333008, -9.875, 12.8.2021 17:43:25.835
255, 1.96313, 0.397578, 220.57, 0, -0.000976562, -0.000976562, -0.100586, 0.366211, -9.78516, 12.8.2021 17:43:25.843
256, 1.96346, 0.397597, 220.568, 0, 0, -0.000976562, -0.0253906, 0.360352, -9.8457, 12.8.2021 17:43:25.851
257, 1.96346, 0.397597, 220.568, 0, -0.000976562, -0.000976562, -0.0908203, 0.334961, -9.77441, 12.8.2021 17:43:25.859
258, 1.96346, 0.397597, 220.568, 0.000976562, -0.000976562, -0.000976562, -0.106445, 0.364258, -9.87012, 12.8.2021 17:43:25.867
259, 1.96346, 0.397597, 220.568, 0.000976562, 0, 0, -0.0439453, 0.322266, -9.84473, 12.8.2021 17:43:25.875
260, 1.96313, 0.397578, 220.57, 0.000976562, -0.000976562, 0, -0.123047, 0.351562, -9.8584, 12.8.2021 17:43:25.883
261, 1.96313, 0.397578, 220.57, 0, 0, -0.000976562, -0.0605469, 0.355469, -9.83398, 12.8.2021 17:43:25.891
262, 1.96313, 0.397578, 220.57, 0, 0, -0.000976562, -0.0449219, 0.333008, -9.875, 12.8.2021 17:43:25.899
263, 1.95658, 0.395153, 220.57, 0.000976562, 0, -0.000976562, -0.113281, 0.367188, -9.81348, 12.8.2021 17:43:25.907
264, 1.95691, 0.395172, 220.568, 0, -0.000976562, -0.000976562, -0.0478516, 0.349609, -9.78906, 12.8.2021 17:43:25.915
265, 1.96104, 0.404156, 220.568, -0.000976562, -0.000976562, -0.000976562, -0.0517578, 0.3125, -9.83789, 12.8.2021 17:43:25.923
266, 1.96104, 0.404156, 220.568, -0.00195312, -0.000976562, -0.000976562, -0.102539, 0.351562, -9.78613, 12.8.2021 17:43:25.931
267, 1.96104, 0.404156, 220.568, -0.000976562, -0.000976562, -0.000976562, -0.0175781, 0.333008, -9.79492, 12.8.2021 17:43:25.939
268, 1.96104, 0.404156, 220.568, -0.000976562, -0.000976562, 0, -0.0585938, 0.327148, -9.85352, 12.8.2021 17:43:25.947
269, 1.96104, 0.404156, 220.568, -0.00195312, 0, 0, -0.0839844, 0.337891, -9.78906, 12.8.2021 17:43:25.955
270, 1.96104, 0.404156, 220.568, -0.00195312, 0.000976562, -0.000976562, -0.0175781, 0.3125, -9.83105, 12.8.2021 17:43:25.963
271, 1.96346, 0.397597, 220.568, -0.000976562, -0.000976562, -0.000976562, -0.09375, 0.348633, -9.82617, 12.8.2021 17:43:25.971
272, 1.96346, 0.397597, 220.568, 0, -0.000976562, 0, -0.0625, 0.337891, -9.79883, 12.8.2021 17:43:25.979
273, 1.96346, 0.397597, 220.568, -0.000976562, 0, -0.000976562, 0.00585938, 0.342773, -9.82324, 12.8.2021 17:43:25.987
274, 1.96346, 0.397597, 220.568, -0.000976562, -0.000976562, 0, -0.0947266, 0.348633, -9.84766, 12.8.2021 17:43:25.995
275, 1.96346, 0.397597, 220.568, 0, -0.000976562, 0, -0.0322266, 0.352539, -9.82031, 12.8.2021 17:43:26.003
276, 1.96346, 0.397597, 220.568, -0.000976562, 0, 0, -0.0673828, 0.326172, -9.80176, 12.8.2021 17:43:26.011
277, 1.96346, 0.397597, 220.568, -0.000976562, -0.000976562, -0.000976562, -0.113281, 0.362305, -9.81348, 12.8.2021 17:43:26.019
278, 1.96313, 0.397578, 220.57, 0, -0.000976562, 0, -0.0146484, 0.334961, -9.78809, 12.8.2021 17:43:26.027
279, 1.96313, 0.397578, 220.57, -0.000976562, -0.000976562, 0, -0.0537109, 0.359375, -9.8125, 12.8.2021 17:43:26.035
280, 1.96313, 0.397578, 220.57, -0.00195312, -0.000976562, 0, -0.0986328, 0.345703, -9.81934, 12.8.2021 17:43:26.043
281, 1.96313, 0.397578, 220.57, -0.000976562, 0, 0, -0.0205078, 0.310547, -9.84961, 12.8.2021 17:43:26.051
282, 1.96556, 0.391019, 220.57, -0.000976562, 0, -0.000976562, -0.0927734, 0.334961, -9.85938, 12.8.2021 17:43:26.059
283, 1.96556, 0.391019, 220.57, 0, 0, -0.000976562, -0.0683594, 0.363281, -9.84277, 12.8.2021 17:43:26.067
284, 1.96556, 0.391019, 220.57, 0, 0.000976562, -0.000976562, -0.0439453, 0.300781, -9.84277, 12.8.2021 17:43:26.075
285, 1.96556, 0.391019, 220.57, -0.000976562, 0, -0.000976562, -0.110352, 0.328125, -9.78223, 12.8.2021 17:43:26.083
286, 1.96556, 0.391019, 220.57, -0.000976562, -0.000976562, -0.000976562, -0.0556641, 0.347656, -9.79883, 12.8.2021 17:43:26.091
287, 1.96798, 0.384459, 220.57, -0.000976562, -0.000976562, 0, -0.0556641, 0.330078, -9.78027, 12.8.2021 17:43:26.099
288, 1.96798, 0.384459, 220.57, -0.000976562, 0, -0.000976562, -0.0966797, 0.352539, -9.82422, 12.8.2021 17:43:26.107
289, 1.96798, 0.384459, 220.57, -0.000976562, -0.000976562, 0, -0.00585938, 0.336914, -9.8418, 12.8.2021 17:43:26.115
290, 1.96798, 0.384459, 220.57, -0.000976562, -0.000976562, 0, -0.078125, 0.341797, -9.85938, 12.8.2021 17:43:26.123
291, 1.96798, 0.384459, 220.57, -0.000976562, 0.000976562, -0.000976562, -0.0830078, 0.318359, -9.8584, 12.8.2021 17:43:26.131
292, 1.96798, 0.384459, 220.57, -0.000976562, 0, 0, -0.0351562, 0.31543, -9.85938, 12.8.2021 17:43:26.139
293, 1.96798, 0.384459, 220.57, -0.000976562, -0.000976562, -0.000976562, -0.0917969, 0.353516, -9.84082, 12.8.2021 17:43:26.147
294, 1.96798, 0.384459, 220.57, -0.000976562, 0, 0, -0.0654297, 0.358398, -9.84277, 12.8.2021 17:43:26.155
295, 1.96798, 0.384459, 220.57, -0.000976562, -0.00195312, -0.000976562, -0.0253906, 0.310547, -9.86621, 12.8.2021 17:43:26.163
296, 1.9704, 0.377899, 220.57, -0.000976562, -0.000976562, -0.000976562, -0.113281, 0.352539, -9.80469, 12.8.2021 17:43:26.171
297, 1.9704, 0.377899, 220.57, -0.00195312, -0.000976562, 0, -0.0341797, 0.318359, -9.79785, 12.8.2021 17:43:26.179
298, 1.9704, 0.377899, 220.57, 0, 0, 0, -0.0703125, 0.335938, -9.81055, 12.8.2021 17:43:26.187
299, 1.9704, 0.377899, 220.57, 0, -0.000976562, 0, -0.0996094, 0.366211, -9.85449, 12.8.2021 17:43:26.195
300, 1.9704, 0.377899, 220.57, 0, 0, 0, -0.0390625, 0.321289, -9.81152, 12.8.2021 17:43:26.203
301, 1.9704, 0.377899, 220.57, -0.000976562, -0.000976562, -0.000976562, -0.0898438, 0.298828, -9.84668, 12.8.2021 17:43:26.211
302, 1.9704, 0.377899, 220.57, -0.00195312, -0.000976562, 0, -0.0966797, 0.355469, -9.82129, 12.8.2021 17:43:26.219
303, 1.9704, 0.377899, 220.57, 0, -0.000976562, 0, -0.015625, 0.321289, -9.81934, 12.8.2021 17:43:26.227
304, 1.9704, 0.377899, 220.57, -0.00195312, -0.000976562, -0.000976562, -0.119141, 0.339844, -9.87109, 12.8.2021 17:43:26.235
305, 1.9704, 0.377899, 220.57, -0.00195312, -0.000976562, 0, -0.0537109, 0.336914, -9.85059, 12.8.2021 17:43:26.243
306, 1.9704, 0.377899, 220.57, -0.000976562, -0.000976562, -0.000976562, -0.0234375, 0.323242, -9.86621, 12.8.2021 17:43:26.251
307, 1.9704, 0.377899, 220.57, -0.00195312, -0.000976562, -0.000976562, -0.0917969, 0.379883, -9.84961, 12.8.2021 17:43:26.259
308, 1.9704, 0.377899, 220.57, 0, -0.000976562, 0, -0.0302734, 0.355469, -9.8418, 12.8.2021 17:43:26.267
309, 1.9704, 0.377899, 220.57, -0.000976562, -0.000976562, -0.000976562, -0.0585938, 0.341797, -9.84082, 12.8.2021 17:43:26.275
310, 1.9704, 0.377899, 220.57, 0, -0.000976562, 0, -0.126953, 0.34082, -9.81152, 12.8.2021 17:43:26.283
311, 1.96798, 0.384459, 220.57, -0.00292969, -0.000976562, 0, -0.0273438, 0.357422, -9.8291, 12.8.2021 17:43:26.291
312, 1.9704, 0.377899, 220.57, -0.00195312, -0.000976562, -0.000976562, -0.0703125, 0.336914, -9.84082, 12.8.2021 17:43:26.299
313, 1.96798, 0.384459, 220.57, 0.000976562, -0.000976562, 0, -0.0820312, 0.355469, -9.82422, 12.8.2021 17:43:26.307
314, 1.96798, 0.384459, 220.57, 0.000976562, -0.000976562, -0.000976562, -0.0292969, 0.321289, -9.82324, 12.8.2021 17:43:26.315
315, 1.96798, 0.384459, 220.57, -0.000976562, 0, -0.000976562, -0.101562, 0.370117, -9.8252, 12.8.2021 17:43:26.323
316, 1.96798, 0.384459, 220.57, -0.000976562, -0.000976562, -0.000976562, -0.0839844, 0.356445, -9.78809, 12.8.2021 17:43:26.331
317, 1.96798, 0.384459, 220.57, -0.00195312, -0.000976562, -0.000976562, -0.0175781, 0.321289, -9.82129, 12.8.2021 17:43:26.339
318, 1.96798, 0.384459, 220.57, -0.000976562, -0.000976562, -0.000976562, -0.113281, 0.348633, -9.83105, 12.8.2021 17:43:26.347
319, 1.96798, 0.384459, 220.57, -0.000976562, -0.000976562, -0.000976562, -0.0507812, 0.342773, -9.79395, 12.8.2021 17:43:26.355
320, 1.96831, 0.384479, 220.568, -0.000976562, 0, -0.000976562, -0.0322266, 0.34668, -9.8584, 12.8.2021 17:43:26.363
321, 1.97487, 0.386903, 220.568, -0.000976562, -0.00195312, -0.00195312, -0.109375, 0.332031, -9.85059, 12.8.2021 17:43:26.371
322, 1.97487, 0.386903, 220.568, -0.000976562, -0.000976562, -0.000976562, -0.0224609, 0.345703, -9.83008, 12.8.2021 17:43:26.379
323, 1.97487, 0.386903, 220.568, -0.000976562, 0, -0.000976562, -0.0820312, 0.350586, -9.8291, 12.8.2021 17:43:26.387
324, 1.97487, 0.386903, 220.568, -0.00195312, 0, -0.000976562, -0.103516, 0.350586, -9.83594, 12.8.2021 17:43:26.395
325, 1.97487, 0.386903, 220.568, -0.000976562, -0.000976562, -0.000976562, -0.0537109, 0.310547, -9.84668, 12.8.2021 17:43:26.403
326, 1.97487, 0.386903, 220.568, -0.000976562, 0, -0.000976562, -0.09375, 0.352539, -9.81934, 12.8.2021 17:43:26.411
327, 1.97487, 0.386903, 220.568, -0.000976562, -0.000976562, -0.000976562, -0.0732422, 0.353516, -9.83105, 12.8.2021 17:43:26.419
328, 1.97487, 0.386903, 220.568, 0, -0.000976562, 0, -0.0488281, 0.327148, -9.84375, 12.8.2021 17:43:26.427
329, 1.97487, 0.386903, 220.568, 0, 0, 0.000976562, -0.0947266, 0.356445, -9.85449, 12.8.2021 17:43:26.435
330, 1.97487, 0.386903, 220.568, 0, -0.000976562, 0.000976562, -0.0488281, 0.352539, -9.8291, 12.8.2021 17:43:26.443
331, 1.97487, 0.386903, 220.568, 0.000976562, -0.00195312, 0, -0.0390625, 0.322266, -9.83008, 12.8.2021 17:43:26.451
332, 1.98142, 0.389328, 220.568, 0, -0.00195312, -0.00195312, -0.108398, 0.34082, -9.82617, 12.8.2021 17:43:26.459
333, 1.98142, 0.389328, 220.568, 0, -0.000976562, -0.000976562, -0.0263672, 0.329102, -9.76172, 12.8.2021 17:43:26.467
334, 1.98142, 0.389328, 220.568, 0, -0.000976562, -0.000976562, -0.0576172, 0.333008, -9.80176, 12.8.2021 17:43:26.475
335, 1.98142, 0.389328, 220.568, 0.000976562, -0.000976562, -0.000976562, -0.0634766, 0.338867, -9.8457, 12.8.2021 17:43:26.483
336, 1.98142, 0.389328, 220.568, 0, -0.000976562, -0.000976562, -0.00390625, 0.330078, -9.84961, 12.8.2021 17:43:26.491
337, 1.98142, 0.389328, 220.568, 0, -0.000976562, 0, -0.09375, 0.345703, -9.82422, 12.8.2021 17:43:26.499
338, 1.98142, 0.389328, 220.568, -0.000976562, -0.000976562, 0, -0.0488281, 0.342773, -9.80078, 12.8.2021 17:43:26.507
339, 1.98142, 0.389328, 220.568, -0.000976562, -0.000976562, 0, -0.0195312, 0.313477, -9.80469, 12.8.2021 17:43:26.515
340, 1.98142, 0.389328, 220.568, 0, -0.000976562, -0.000976562, -0.113281, 0.34082, -9.83105, 12.8.2021 17:43:26.523
341, 1.98142, 0.389328, 220.568, 0, -0.000976562, -0.000976562, -0.0439453, 0.351562, -9.7959, 12.8.2021 17:43:26.531
342, 1.98142, 0.389328, 220.568, -0.000976562, 0, -0.000976562, -0.0419922, 0.342773, -9.82031, 12.8.2021 17:43:26.539
343, 1.98384, 0.382769, 220.568, -0.000976562, 0, -0.000976562, -0.103516, 0.362305, -9.82324, 12.8.2021 17:43:26.547
344, 1.98384, 0.382769, 220.568, 0, 0, 0.000976562, -0.0107422, 0.324219, -9.84473, 12.8.2021 17:43:26.555
345, 1.98384, 0.382769, 220.568, 0, -0.000976562, 0, -0.0917969, 0.345703, -9.8125, 12.8.2021 17:43:26.563
346, 1.98384, 0.382769, 220.568, 0, 0, 0, -0.09375, 0.353516, -9.83105, 12.8.2021 17:43:26.571
347, 1.98384, 0.382769, 220.568, 0, -0.000976562, -0.000976562, -0.0332031, 0.342773, -9.87988, 12.8.2021 17:43:26.579
348, 1.98384, 0.382769, 220.568, 0, 0, -0.000976562, -0.111328, 0.327148, -9.83887, 12.8.2021 17:43:26.587
349, 1.98384, 0.382769, 220.568, 0, -0.000976562, 0, -0.0771484, 0.331055, -9.80371, 12.8.2021 17:43:26.595
350, 1.98384, 0.382769, 220.568, 0, -0.000976562, -0.000976562, -0.0244141, 0.331055, -9.80859, 12.8.2021 17:43:26.603
351, 1.98384, 0.382769, 220.568, -0.000976562, -0.00195312, 0, -0.113281, 0.329102, -9.82227, 12.8.2021 17:43:26.611
352, 1.98384, 0.382769, 220.568, 0, 0, -0.000976562, -0.0341797, 0.355469, -9.83203, 12.8.2021 17:43:26.619
353, 1.98384, 0.382769, 220.568, 0, 0, -0.000976562, -0.046875, 0.341797, -9.85059, 12.8.2021 17:43:26.627
354, 1.97729, 0.380344, 220.568, 0, 0, -0.000976562, -0.106445, 0.34375, -9.84082, 12.8.2021 17:43:26.635
355, 1.97971, 0.373785, 220.568, 0, 0, -0.000976562, -0.0410156, 0.316406, -9.80176, 12.8.2021 17:43:26.643
356, 1.97971, 0.373785, 220.568, 0.000976562, 0, -0.000976562, -0.0791016, 0.337891, -9.80762, 12.8.2021 17:43:26.651
357, 1.97971, 0.373785, 220.568, 0, -0.000976562, 0, -0.0839844, 0.335938, -9.80078, 12.8.2021 17:43:26.659
358, 1.97971, 0.373785, 220.568, 0, -0.000976562, 0, -0.00585938, 0.331055, -9.80469, 12.8.2021 17:43:26.667
359, 1.97971, 0.373785, 220.568, 0.000976562, 0, 0, -0.108398, 0.335938, -9.80078, 12.8.2021 17:43:26.675
360, 1.97971, 0.373785, 220.568, 0.000976562, -0.000976562, -0.000976562, -0.0673828, 0.366211, -9.80469, 12.8.2021 17:43:26.683
361, 1.97971, 0.373785, 220.568, -0.000976562, 0, -0.000976562, -0.0107422, 0.316406, -9.80469, 12.8.2021 17:43:26.691
362, 1.97971, 0.373785, 220.568, 0, -0.000976562, 0, -0.117188, 0.354492, -9.80664, 12.8.2021 17:43:26.699
363, 1.97971, 0.373785, 220.568, 0, -0.000976562, 0, -0.0371094, 0.338867, -9.83691, 12.8.2021 17:43:26.707
364, 1.97938, 0.373764, 220.57, 0, -0.000976562, 0, -0.0683594, 0.329102, -9.83691, 12.8.2021 17:43:26.715
365, 1.97696, 0.380324, 220.57, 0, -0.000976562, 0, -0.120117, 0.345703, -9.82617, 12.8.2021 17:43:26.723
366, 1.97696, 0.380324, 220.57, 0, -0.000976562, 0, -0.0371094, 0.334961, -9.86035, 12.8.2021 17:43:26.731
367, 1.97696, 0.380324, 220.57, 0.000976562, 0, -0.000976562, -0.0654297, 0.357422, -9.82422, 12.8.2021 17:43:26.739
368, 1.97696, 0.380324, 220.57, 0.000976562, 0, -0.000976562, -0.0693359, 0.34668, -9.77051, 12.8.2021 17:43:26.747
369, 1.97696, 0.380324, 220.57, 0, -0.000976562, 0, -0.0107422, 0.294922, -9.80078, 12.8.2021 17:43:26.755
370, 1.97696, 0.380324, 220.57, 0, 0, 0, -0.103516, 0.34375, -9.82422, 12.8.2021 17:43:26.763
371, 1.9704, 0.377899, 220.57, -0.000976562, 0, -0.000976562, -0.0869141, 0.326172, -9.81738, 12.8.2021 17:43:26.771
372, 1.9704, 0.377899, 220.57, 0, 0, 0.000976562, -0.0488281, 0.3125, -9.82129, 12.8.2021 17:43:26.779
373, 1.9704, 0.377899, 220.57, 0.000976562, -0.000976562, 0, -0.105469, 0.354492, -9.7998, 12.8.2021 17:43:26.787
374, 1.9704, 0.377899, 220.57, -0.00195312, -0.000976562, 0, -0.0507812, 0.359375, -9.81445, 12.8.2021 17:43:26.793
375, 1.9704, 0.377899, 220.57, 0, 0, 0, -0.0527344, 0.344727, -9.80078, 12.8.2021 17:43:26.801
376, 1.9704, 0.377899, 220.57, 0, -0.000976562, 0, -0.125977, 0.351562, -9.8584, 12.8.2021 17:43:26.809
377, 1.9704, 0.377899, 220.57, -0.00195312, -0.00195312, 0, -0.0322266, 0.321289, -9.80957, 12.8.2021 17:43:26.817
378, 1.9704, 0.377899, 220.57, 0, -0.000976562, 0, -0.0800781, 0.330078, -9.86035, 12.8.2021 17:43:26.825
379, 1.9704, 0.377899, 220.57, 0.000976562, -0.00195312, 0, -0.103516, 0.337891, -9.80762, 12.8.2021 17:43:26.833
380, 1.9704, 0.377899, 220.57, -0.00195312, -0.00195312, -0.000976562, -0.0078125, 0.298828, -9.78223, 12.8.2021 17:43:26.841
381, 1.9704, 0.377899, 220.57, -0.000976562, 0, -0.000976562, -0.118164, 0.358398, -9.84473, 12.8.2021 17:43:26.849
382, 1.9704, 0.377899, 220.57, -0.000976562, -0.000976562, -0.000976562, -0.0703125, 0.351562, -9.85059, 12.8.2021 17:43:26.857
383, 1.96798, 0.384459, 220.57, 0, -0.000976562, 0, -0.0351562, 0.332031, -9.86328, 12.8.2021 17:43:26.865
384, 1.96798, 0.384459, 220.57, 0, -0.00195312, 0.000976562, -0.106445, 0.351562, -9.84473, 12.8.2021 17:43:26.873
385, 1.96798, 0.384459, 220.57, -0.000976562, -0.000976562, -0.000976562, -0.0273438, 0.324219, -9.81836, 12.8.2021 17:43:26.881
386, 1.96798, 0.384459, 220.57, 0.000976562, -0.000976562, 0, -0.0224609, 0.331055, -9.83301, 12.8.2021 17:43:26.889
387, 1.96798, 0.384459, 220.57, 0, -0.00195312, 0, -0.116211, 0.353516, -9.83984, 12.8.2021 17:43:26.897
388, 1.96798, 0.384459, 220.57, -0.000976562, -0.000976562, -0.00195312, -0.0253906, 0.332031, -9.84961, 12.8.2021 17:43:26.905
389, 1.96798, 0.384459, 220.57, -0.00195312, 0, -0.000976562, -0.0917969, 0.357422, -9.81641, 12.8.2021 17:43:26.913
390, 1.96798, 0.384459, 220.57, -0.000976562, -0.000976562, -0.000976562, -0.0800781, 0.355469, -9.81934, 12.8.2021 17:43:26.921
391, 1.96798, 0.384459, 220.57, 0, -0.00195312, 0, -0.0107422, 0.306641, -9.80762, 12.8.2021 17:43:26.929
392, 1.97453, 0.386884, 220.57, -0.00195312, -0.000976562, 0, -0.0771484, 0.342773, -9.81934, 12.8.2021 17:43:26.937
393, 1.97453, 0.386884, 220.57, -0.00195312, -0.000976562, -0.000976562, -0.0917969, 0.350586, -9.81445, 12.8.2021 17:43:26.945
394, 1.97453, 0.386884, 220.57, 0, -0.000976562, 0, -0.0253906, 0.334961, -9.87012, 12.8.2021 17:43:26.953
395, 1.97453, 0.386884, 220.57, 0, 0.00195312, -0.000976562, -0.100586, 0.334961, -9.79102, 12.8.2021 17:43:26.961
396, 1.97453, 0.386884, 220.57, 0, -0.000976562, -0.000976562, -0.0458984, 0.350586, -9.81738, 12.8.2021 17:43:26.969
397, 1.97453, 0.386884, 220.57, 0, -0.000976562, 0, -0.0488281, 0.329102, -9.8418, 12.8.2021 17:43:26.977
398, 1.97453, 0.386884, 220.57, 0, -0.000976562, -0.000976562, -0.101562, 0.332031, -9.85059, 12.8.2021 17:43:26.985
399, 1.97453, 0.386884, 220.57, -0.000976562, -0.000976562, -0.00195312, -0.0361328, 0.323242, -9.77832, 12.8.2021 17:43:26.993
400, 1.96798, 0.384459, 220.57, 0.000976562, 0.000976562, -0.000976562, -0.0751953, 0.325195, -9.84668, 12.8.2021 17:43:27.001
401, 1.96798, 0.384459, 220.57, 0, 0.000976562, -0.000976562, -0.0820312, 0.353516, -9.83301, 12.8.2021 17:43:27.009
402, 1.96798, 0.384459, 220.57, 0, -0.000976562, 0, -0.0302734, 0.338867, -9.84375, 12.8.2021 17:43:27.017
403, 1.96798, 0.384459, 220.57, 0, -0.000976562, -0.000976562, -0.105469, 0.364258, -9.81641, 12.8.2021 17:43:27.025
404, 1.96798, 0.384459, 220.57, 0, 0.000976562, 0, -0.0849609, 0.34375, -9.83887, 12.8.2021 17:43:27.033
405, 1.96798, 0.384459, 220.57, 0.000976562, -0.000976562, 0, -0.0419922, 0.333984, -9.82324, 12.8.2021 17:43:27.041
406, 1.96798, 0.384459, 220.57, 0, 0.000976562, 0, -0.0986328, 0.34375, -9.83301, 12.8.2021 17:43:27.049
407, 1.96798, 0.384459, 220.57, -0.00195312, -0.000976562, 0, -0.0390625, 0.338867, -9.83887, 12.8.2021 17:43:27.057
408, 1.96798, 0.384459, 220.57, 0, -0.000976562, 0, -0.0273438, 0.319336, -9.82812, 12.8.2021 17:43:27.065
409, 1.96798, 0.384459, 220.57, 0, 0.000976562, -0.000976562, -0.115234, 0.371094, -9.79004, 12.8.2021 17:43:27.073
410, 1.96798, 0.384459, 220.57, -0.00195312, -0.000976562, -0.000976562, -0.0205078, 0.310547, -9.84766, 12.8.2021 17:43:27.081
411, 1.96798, 0.384459, 220.57, -0.00195312, -0.000976562, -0.000976562, -0.0654297, 0.338867, -9.82031, 12.8.2021 17:43:27.089
412, 1.96798, 0.384459, 220.57, 0, -0.000976562, -0.000976562, -0.0722656, 0.344727, -9.78906, 12.8.2021 17:43:27.097
413, 1.96831, 0.384479, 220.568, -0.00195312, -0.000976562, -0.000976562, -0.0205078, 0.329102, -9.8418, 12.8.2021 17:43:27.105
414, 1.96831, 0.384479, 220.568, 0, 0.000976562, 0, -0.0898438, 0.320312, -9.85547, 12.8.2021 17:43:27.113
415, 1.9704, 0.377899, 220.57, -0.00195312, 0.000976562, 0, -0.0458984, 0.344727, -9.79688, 12.8.2021 17:43:27.121
416, 1.97073, 0.377919, 220.568, 0, -0.000976562, -0.000976562, -0.0410156, 0.331055, -9.81152, 12.8.2021 17:43:27.129
417, 1.97073, 0.377919, 220.568, 0.000976562, -0.000976562, -0.000976562, -0.104492, 0.320312, -9.85742, 12.8.2021 17:43:27.137
418, 1.97073, 0.377919, 220.568, 0.000976562, -0.000976562, 0, -0.0351562, 0.334961, -9.85352, 12.8.2021 17:43:27.145
419, 1.97073, 0.377919, 220.568, -0.00195312, -0.000976562, 0, -0.0292969, 0.326172, -9.80664, 12.8.2021 17:43:27.153
420, 1.97073, 0.377919, 220.568, 0, -0.000976562, -0.000976562, -0.125, 0.332031, -9.84277, 12.8.2021 17:43:27.161
421, 1.97073, 0.377919, 220.568, 0, -0.000976562, 0, 0.000976562, 0.3125, -9.82617, 12.8.2021 17:43:27.169
422, 1.97073, 0.377919, 220.568, 0, 0.000976562, 0, -0.0585938, 0.332031, -9.8623, 12.8.2021 17:43:27.177
423, 1.9704, 0.377899, 220.57, 0, 0.000976562, 0, -0.101562, 0.334961, -9.84766, 12.8.2021 17:43:27.185
424, 1.97073, 0.377919, 220.568, -0.00195312, 0.000976562, -0.000976562, 0.0195312, 0.330078, -9.85449, 12.8.2021 17:43:27.193
425, 1.97073, 0.377919, 220.568, -0.000976562, -0.000976562, 0, -0.0771484, 0.356445, -9.78906, 12.8.2021 17:43:27.201
426, 1.96385, 0.375474, 220.57, 0, -0.00195312, -0.000976562, -0.0507812, 0.34668, -9.78418, 12.8.2021 17:43:27.209
427, 1.96627, 0.368915, 220.57, 0.000976562, -0.000976562, 0, -0.0322266, 0.307617, -9.83594, 12.8.2021 17:43:27.217
428, 1.96627, 0.368915, 220.57, 0, -0.000976562, 0, -0.136719, 0.347656, -9.81836, 12.8.2021 17:43:27.225
429, 1.96627, 0.368915, 220.57, 0, -0.000976562, -0.000976562, -0.0390625, 0.342773, -9.82227, 12.8.2021 17:43:27.233
430, 1.96627, 0.368915, 220.57, 0, -0.000976562, -0.000976562, -0.0488281, 0.324219, -9.82031, 12.8.2021 17:43:27.241
431, 1.96627, 0.368915, 220.57, 0, -0.00195312, 0, -0.125977, 0.348633, -9.84668, 12.8.2021 17:43:27.249
432, 1.96627, 0.368915, 220.57, 0, -0.000976562, 0, 0.00195312, 0.321289, -9.80469, 12.8.2021 17:43:27.257
433, 1.96627, 0.368915, 220.57, 0, -0.000976562, 0, -0.0917969, 0.324219, -9.83691, 12.8.2021 17:43:27.265
434, 1.95972, 0.36649, 220.57, -0.000976562, 0, 0, -0.101562, 0.355469, -9.81641, 12.8.2021 17:43:27.273
435, 1.95972, 0.36649, 220.57, -0.00292969, -0.000976562, 0.000976562, -0.0224609, 0.326172, -9.80469, 12.8.2021 17:43:27.281
436, 1.95972, 0.36649, 220.57, 0, -0.000976562, 0, -0.0898438, 0.339844, -9.85547, 12.8.2021 17:43:27.289
437, 1.95972, 0.36649, 220.57, 0, 0, -0.000976562, -0.0751953, 0.347656, -9.80762, 12.8.2021 17:43:27.297
438, 1.95972, 0.36649, 220.57, 0, -0.000976562, 0, -0.0195312, 0.308594, -9.7959, 12.8.2021 17:43:27.305
439, 1.95972, 0.36649, 220.57, 0, -0.00195312, -0.000976562, -0.134766, 0.368164, -9.8418, 12.8.2021 17:43:27.313
440, 1.95972, 0.36649, 220.57, 0, -0.000976562, -0.000976562, -0.0625, 0.333008, -9.78516, 12.8.2021 17:43:27.321
441, 1.95972, 0.36649, 220.57, -0.000976562, -0.000976562, 0, -0.0654297, 0.305664, -9.83984, 12.8.2021 17:43:27.329
442, 1.95972, 0.36649, 220.57, 0, -0.000976562, -0.000976562, -0.114258, 0.375977, -9.86523, 12.8.2021 17:43:27.337
443, 1.95972, 0.36649, 220.57, 0.000976562, -0.000976562, -0.000976562, -0.00976562, 0.328125, -9.79004, 12.8.2021 17:43:27.345
444, 1.95972, 0.36649, 220.57, 0, 0, 0, -0.0839844, 0.321289, -9.80566, 12.8.2021 17:43:27.353
445, 1.95972, 0.36649, 220.57, 0.000976562, -0.000976562, 0, -0.0869141, 0.370117, -9.83789, 12.8.2021 17:43:27.361
446, 1.95972, 0.36649, 220.57, 0.000976562, -0.000976562, -0.000976562, -0.03125, 0.306641, -9.79102, 12.8.2021 17:43:27.369
447, 1.95729, 0.37305, 220.57, 0, -0.000976562, -0.000976562, -0.123047, 0.341797, -9.83301, 12.8.2021 17:43:27.377
448, 1.95729, 0.37305, 220.57, 0, -0.000976562, 0, -0.0654297, 0.344727, -9.80566, 12.8.2021 17:43:27.385
449, 1.95729, 0.37305, 220.57, -0.000976562, -0.00195312, 0, -0.0273438, 0.335938, -9.81152, 12.8.2021 17:43:27.393
450, 1.95729, 0.37305, 220.57, 0, -0.000976562, 0, -0.101562, 0.356445, -9.84473, 12.8.2021 17:43:27.401
451, 1.95729, 0.37305, 220.57, 0, -0.000976562, 0, -0.0576172, 0.34668, -9.78418, 12.8.2021 17:43:27.409
452, 1.95729, 0.37305, 220.57, 0, -0.000976562, 0, -0.0537109, 0.324219, -9.81543, 12.8.2021 17:43:27.417
453, 1.95729, 0.37305, 220.57, 0, 0, 0, -0.0996094, 0.356445, -9.85156, 12.8.2021 17:43:27.425
454, 1.95729, 0.37305, 220.57, 0, -0.000976562, -0.000976562, -0.0253906, 0.31543, -9.84473, 12.8.2021 17:43:27.433
455, 1.95729, 0.37305, 220.57, -0.000976562, -0.000976562, 0, -0.078125, 0.327148, -9.8457, 12.8.2021 17:43:27.441
456, 1.95487, 0.379609, 220.57, 0, -0.000976562, 0, -0.0986328, 0.374023, -9.82129, 12.8.2021 17:43:27.449
457, 1.95487, 0.379609, 220.57, 0, -0.000976562, 0, -0.0292969, 0.321289, -9.82324, 12.8.2021 17:43:27.457
458, 1.95487, 0.379609, 220.57, 0, 0, -0.00195312, -0.114258, 0.34082, -9.88281, 12.8.2021 17:43:27.465
459, 1.96143, 0.382034, 220.57, 0, -0.00195312, 0, -0.0654297, 0.345703, -9.81738, 12.8.2021 17:43:27.473
460, 1.96143, 0.382034, 220.57, 0, -0.00195312, 0, -0.0400391, 0.322266, -9.83984, 12.8.2021 17:43:27.481
461, 1.96143, 0.382034, 220.57, -0.00195312, 0, -0.000976562, -0.113281, 0.366211, -9.85156, 12.8.2021 17:43:27.489
462, 1.96143, 0.382034, 220.57, -0.00195312, 0.000976562, 0, -0.0585938, 0.360352, -9.84277, 12.8.2021 17:43:27.497
463, 1.96143, 0.382034, 220.57, -0.00195312, -0.00195312, 0, -0.0703125, 0.330078, -9.8457, 12.8.2021 17:43:27.505
464, 1.96143, 0.382034, 220.57, 0, 0.000976562, 0, -0.118164, 0.329102, -9.81934, 12.8.2021 17:43:27.513
465, 1.96143, 0.382034, 220.57, 0, 0.000976562, 0, -0.015625, 0.348633, -9.83984, 12.8.2021 17:43:27.521
466, 1.96143, 0.382034, 220.57, 0, -0.000976562, 0, -0.0703125, 0.311523, -9.81152, 12.8.2021 17:43:27.529
467, 1.96143, 0.382034, 220.57, -0.00195312, 0, -0.000976562, -0.0859375, 0.34668, -9.78125, 12.8.2021 17:43:27.537
468, 1.96556, 0.391019, 220.57, 0, 0, -0.000976562, 0.00585938, 0.345703, -9.82324, 12.8.2021 17:43:27.545
469, 1.96556, 0.391019, 220.57, 0, 0.000976562, -0.000976562, -0.0878906, 0.34375, -9.85254, 12.8.2021 17:43:27.553
470, 1.96556, 0.391019, 220.57, 0, -0.000976562, 0, -0.0625, 0.339844, -9.79199, 12.8.2021 17:43:27.561
471, 1.96556, 0.391019, 220.57, 0, -0.000976562, 0, -0.0322266, 0.302734, -9.83301, 12.8.2021 17:43:27.569
472, 1.96556, 0.391019, 220.57, 0.000976562, -0.000976562, 0, -0.125, 0.352539, -9.82129, 12.8.2021 17:43:27.577
473, 1.96556, 0.391019, 220.57, 0.000976562, 0, -0.000976562, -0.0419922, 0.350586, -9.8291, 12.8.2021 17:43:27.585
474, 1.96556, 0.391019, 220.57, 0.000976562, -0.00195312, 0, -0.0664062, 0.333008, -9.87695, 12.8.2021 17:43:27.593
475, 1.96556, 0.391019, 220.57, 0, -0.00195312, 0, -0.118164, 0.34375, -9.82422, 12.8.2021 17:43:27.601
476, 1.96556, 0.391019, 220.57, -0.00195312, -0.000976562, 0, -0.0332031, 0.351562, -9.8623, 12.8.2021 17:43:27.609
477, 1.96556, 0.391019, 220.57, -0.00195312, -0.000976562, 0, -0.0585938, 0.333008, -9.81543, 12.8.2021 17:43:27.617
478, 1.96556, 0.391019, 220.57, -0.00195312, 0, -0.000976562, -0.0888672, 0.360352, -9.82422, 12.8.2021 17:43:27.625
479, 1.96556, 0.391019, 220.57, -0.00195312, 0.000976562, -0.00195312, -0.0126953, 0.333008, -9.79004, 12.8.2021 17:43:27.633
480, 1.96556, 0.391019, 220.57, 0, 0.000976562, 0, -0.0820312, 0.349609, -9.80078, 12.8.2021 17:43:27.641
481, 1.96556, 0.391019, 220.57, 0.000976562, -0.000976562, 0, -0.0390625, 0.367188, -9.83105, 12.8.2021 17:43:27.649
482, 1.96556, 0.391019, 220.57, 0, -0.000976562, 0, -0.0253906, 0.325195, -9.86621, 12.8.2021 17:43:27.657
483, 1.96556, 0.391019, 220.57, 0, 0, -0.000976562, -0.134766, 0.360352, -9.81348, 12.8.2021 17:43:27.665
484, 1.97453, 0.386884, 220.57, -0.00195312, 0.000976562, -0.000976562, -0.0507812, 0.351562, -9.78418, 12.8.2021 17:43:27.673
485, 1.97453, 0.386884, 220.57, -0.00195312, -0.000976562, 0, -0.0488281, 0.3125, -9.82812, 12.8.2021 17:43:27.681
486, 1.97453, 0.386884, 220.57, -0.00195312, 0.000976562, -0.000976562, -0.0986328, 0.348633, -9.83594, 12.8.2021 17:43:27.689
487, 1.97453, 0.386884, 220.57, 0, 0, -0.000976562, -0.0292969, 0.324219, -9.82324, 12.8.2021 17:43:27.697
488, 1.97453, 0.386884, 220.57, 0, 0, -0.000976562, -0.0654297, 0.348633, -9.8291, 12.8.2021 17:43:27.705
489, 1.97453, 0.386884, 220.57, 0, -0.000976562, -0.000976562, -0.108398, 0.357422, -9.80664, 12.8.2021 17:43:27.713
490, 1.97487, 0.386903, 220.568, 0, -0.000976562, -0.000976562, -0.00585938, 0.311523, -9.81445, 12.8.2021 17:43:27.721
491, 1.97487, 0.386903, 220.568, 0, 0, -0.000976562, -0.0878906, 0.334961, -9.85547, 12.8.2021 17:43:27.729
492, 1.97487, 0.386903, 220.568, 0, 0, -0.000976562, -0.0869141, 0.345703, -9.82617, 12.8.2021 17:43:27.737
493, 1.97487, 0.386903, 220.568, 0, -0.00195312, 0, -0.0419922, 0.332031, -9.83496, 12.8.2021 17:43:27.745
494, 1.97487, 0.386903, 220.568, 0, -0.000976562, -0.000976562, -0.146484, 0.358398, -9.83203, 12.8.2021 17:43:27.753
495, 1.97487, 0.386903, 220.568, 0, -0.000976562, -0.000976562, -0.0439453, 0.335938, -9.81836, 12.8.2021 17:43:27.759
496, 1.97487, 0.386903, 220.568, 0, -0.000976562, -0.000976562, -0.0615234, 0.366211, -9.8623, 12.8.2021 17:43:27.767
497, 1.97487, 0.386903, 220.568, 0, 0, 0, -0.0703125, 0.378906, -9.82812, 12.8.2021 17:43:27.775
498, 1.97729, 0.380344, 220.568, 0, 0, 0, -0.00195312, 0.338867, -9.84473, 12.8.2021 17:43:27.783
499, 1.97729, 0.380344, 220.568, 0.000976562, -0.000976562, -0.000976562, -0.0839844, 0.354492, -9.80078, 12.8.2021 17:43:27.791
500, 1.97729, 0.380344, 220.568, 0, 0, 0, -0.105469, 0.330078, -9.77734, 12.8.2021 17:43:27.799
501, 1.97729, 0.380344, 220.568, 0, -0.000976562, 0, -0.0273438, 0.337891, -9.80664, 12.8.2021 17:43:27.807
502, 1.98384, 0.382769, 220.568, 0, -0.000976562, -0.000976562, -0.0820312, 0.333984, -9.83887, 12.8.2021 17:43:27.815
503, 1.98384, 0.382769, 220.568, 0, 0, 0, -0.0791016, 0.357422, -9.80762, 12.8.2021 17:43:27.823
504, 1.98384, 0.382769, 220.568, -0.000976562, -0.000976562, -0.000976562, -0.0234375, 0.327148, -9.84668, 12.8.2021 17:43:27.831
505, 1.98384, 0.382769, 220.568, 0, -0.000976562, 0, -0.0986328, 0.354492, -9.79492, 12.8.2021 17:43:27.839
506, 1.98384, 0.382769, 220.568, 0, -0.000976562, -0.000976562, -0.0273438, 0.370117, -9.85254, 12.8.2021 17:43:27.847
507, 1.98384, 0.382769, 220.568, 0, 0, 0, -0.0390625, 0.341797, -9.78711, 12.8.2021 17:43:27.855
508, 1.98384, 0.382769, 220.568, 0, 0, -0.000976562, -0.106445, 0.375977, -9.87012, 12.8.2021 17:43:27.863
509, 1.98384, 0.382769, 220.568, 0, -0.000976562, -0.000976562, -0.0224609, 0.342773, -9.82031, 12.8.2021 17:43:27.871
510, 1.98384, 0.382769, 220.568, 0.000976562, -0.000976562, 0, -0.0722656, 0.333984, -9.81738, 12.8.2021 17:43:27.879
511, 1.98384, 0.382769, 220.568, 0, -0.000976562, 0, -0.0898438, 0.348633, -9.84961, 12.8.2021 17:43:27.887
512, 1.98627, 0.37621, 220.568, 0.000976562, -0.000976562, 0, -0.0126953, 0.306641, -9.80273, 12.8.2021 17:43:27.895
513, 1.98627, 0.37621, 220.568, 0.000976562, -0.000976562, -0.000976562, -0.105469, 0.316406, -9.80371, 12.8.2021 17:43:27.903
514, 1.98627, 0.37621, 220.568, 0.000976562, -0.000976562, -0.000976562, -0.0800781, 0.363281, -9.84961, 12.8.2021 17:43:27.911
515, 1.98627, 0.37621, 220.568, 0, 0, -0.000976562, -0.0488281, 0.329102, -9.83984, 12.8.2021 17:43:27.919
516, 1.98627, 0.37621, 220.568, 0, -0.000976562, -0.000976562, -0.09375, 0.368164, -9.78809, 12.8.2021 17:43:27.927
517, 1.98627, 0.37621, 220.568, -0.000976562, -0.000976562, 0, -0.0400391, 0.351562, -9.85059, 12.8.2021 17:43:27.935
518, 1.99282, 0.378634, 220.568, 0, -0.000976562, 0, -0.0585938, 0.332031, -9.83691, 12.8.2021 17:43:27.943
519, 1.99282, 0.378634, 220.568, 0, -0.000976562, -0.000976562, -0.120117, 0.345703, -9.83301, 12.8.2021 17:43:27.951
520, 1.99282, 0.378634, 220.568, 0, 0, 0, -0.0322266, 0.31543, -9.84961, 12.8.2021 17:43:27.959
521, 1.99282, 0.378634, 220.568, -0.000976562, -0.000976562, -0.00195312, -0.0986328, 0.335938, -9.82227, 12.8.2021 17:43:27.967
522, 1.99282, 0.378634, 220.568, 0, -0.000976562, -0.000976562, -0.0917969, 0.327148, -9.84375, 12.8.2021 17:43:27.975
523, 1.99282, 0.378634, 220.568, 0, 0, 0, -0.0302734, 0.308594, -9.84961, 12.8.2021 17:43:27.983
524, 1.99282, 0.378634, 220.568, 0, 0, 0, -0.0966797, 0.341797, -9.85938, 12.8.2021 17:43:27.991
525, 1.99282, 0.378634, 220.568, -0.000976562, -0.000976562, 0, -0.0566406, 0.341797, -9.83887, 12.8.2021 17:43:27.999
526, 1.99282, 0.378634, 220.568, -0.000976562, -0.000976562, -0.000976562, -0.015625, 0.322266, -9.85938, 12.8.2021 17:43:28.007
527, 1.99282, 0.378634, 220.568, 0, 0, -0.000976562, -0.113281, 0.332031, -9.83789, 12.8.2021 17:43:28.015
528, 1.98627, 0.37621, 220.568, -0.000976562, -0.000976562, -0.000976562, -0.0556641, 0.345703, -9.8291, 12.8.2021 17:43:28.023
529, 1.98627, 0.37621, 220.568, 0, 0, 0, -0.0341797, 0.298828, -9.78613, 12.8.2021 17:43:28.031
530, 1.98627, 0.37621, 220.568, -0.000976562, 0, -0.000976562, -0.0888672, 0.347656, -9.79297, 12.8.2021 17:43:28.039
531, 1.98627, 0.37621, 220.568, -0.000976562, 0, 0, -0.015625, 0.30957, -9.82129, 12.8.2021 17:43:28.047
532, 1.98627, 0.37621, 220.568, -0.000976562, -0.00195312, 0, -0.0839844, 0.316406, -9.80371, 12.8.2021 17:43:28.055
533, 1.98627, 0.37621, 220.568, -0.000976562, -0.000976562, -0.000976562, -0.0878906, 0.356445, -9.85742, 12.8.2021 17:43:28.063
534, 1.98384, 0.382769, 220.568, -0.000976562, -0.000976562, 0, -0.0185547, 0.311523, -9.87109, 12.8.2021 17:43:28.071
535, 1.98384, 0.382769, 220.568, 0, 0, -0.00195312, -0.0966797, 0.333984, -9.81934, 12.8.2021 17:43:28.079
536, 1.97729, 0.380344, 220.568, -0.000976562, 0, -0.000976562, -0.0634766, 0.356445, -9.86914, 12.8.2021 17:43:28.087
537, 1.97729, 0.380344, 220.568, -0.000976562, 0, -0.000976562, -0.0273438, 0.317383, -9.83984, 12.8.2021 17:43:28.095
538, 1.97729, 0.380344, 220.568, -0.000976562, 0, -0.000976562, -0.132812, 0.363281, -9.8418, 12.8.2021 17:43:28.103
539, 1.97729, 0.380344, 220.568, -0.00195312, 0.000976562, 0, -0.0634766, 0.332031, -9.83203, 12.8.2021 17:43:28.111
540, 1.97729, 0.380344, 220.568, -0.00195312, -0.000976562, 0, -0.0527344, 0.339844, -9.78711, 12.8.2021 17:43:28.119
541, 1.97729, 0.380344, 220.568, -0.000976562, -0.000976562, -0.000976562, -0.120117, 0.338867, -9.82129, 12.8.2021 17:43:28.127
542, 1.97073, 0.377919, 220.568, -0.000976562, 0, -0.000976562, -0.000976562, 0.316406, -9.8125, 12.8.2021 17:43:28.135
543, 1.97073, 0.377919, 220.568, -0.00195312, -0.000976562, 0, -0.0585938, 0.341797, -9.85547, 12.8.2021 17:43:28.143
544, 1.97073, 0.377919, 220.568, -0.000976562, -0.000976562, -0.000976562, -0.0839844, 0.344727, -9.7793, 12.8.2021 17:43:28.151
545, 1.97073, 0.377919, 220.568, -0.000976562, -0.000976562, -0.000976562, -0.0126953, 0.319336, -9.82812, 12.8.2021 17:43:28.159
546, 1.97073, 0.377919, 220.568, -0.000976562, -0.000976562, 0, -0.116211, 0.325195, -9.85742, 12.8.2021 17:43:28.167
547, 1.97073, 0.377919, 220.568, -0.000976562, 0, -0.000976562, -0.0703125, 0.352539, -9.81934, 12.8.2021 17:43:28.175
548, 1.97073, 0.377919, 220.568, -0.000976562, 0, -0.000976562, -0.0556641, 0.316406, -9.81641, 12.8.2021 17:43:28.183
549, 1.97073, 0.377919, 220.568, -0.000976562, -0.000976562, 0, -0.0966797, 0.345703, -9.83301, 12.8.2021 17:43:28.191
550, 1.97073, 0.377919, 220.568, -0.000976562, -0.000976562, 0, -0.0761719, 0.325195, -9.86035, 12.8.2021 17:43:28.199
551, 1.97073, 0.377919, 220.568, -0.000976562, -0.00195312, 0, -0.0605469, 0.327148, -9.83008, 12.8.2021 17:43:28.207
552, 1.96418, 0.375494, 220.568, 0, -0.000976562, 0, -0.0732422, 0.356445, -9.87598, 12.8.2021 17:43:28.215
553, 1.96418, 0.375494, 220.568, -0.000976562, -0.000976562, 0, -0.0175781, 0.333984, -9.83496, 12.8.2021 17:43:28.223
554, 1.96143, 0.382034, 220.57, -0.00195312, 0, 0, -0.0507812, 0.338867, -9.82715, 12.8.2021 17:43:28.231
555, 1.96143, 0.382034, 220.57, -0.00195312, -0.000976562, 0, -0.0673828, 0.345703, -9.8125, 12.8.2021 17:43:28.239
556, 1.96143, 0.382034, 220.57, -0.000976562, -0.000976562, 0, -0.015625, 0.324219, -9.82812, 12.8.2021 17:43:28.247
557, 1.96143, 0.382034, 220.57, 0, -0.000976562, 0, -0.0869141, 0.336914, -9.84082, 12.8.2021 17:43:28.255
558, 1.96143, 0.382034, 220.57, -0.000976562, 0, 0.000976562, -0.0546875, 0.318359, -9.8584, 12.8.2021 17:43:28.263
559, 1.96143, 0.382034, 220.57, -0.000976562, -0.000976562, 0, -0.0351562, 0.308594, -9.86816, 12.8.2021 17:43:28.271
560, 1.96143, 0.382034, 220.57, -0.00195312, -0.000976562, -0.000976562, -0.129883, 0.332031, -9.83105, 12.8.2021 17:43:28.279
561, 1.96143, 0.382034, 220.57, -0.000976562, -0.000976562, -0.000976562, -0.0429688, 0.344727, -9.88672, 12.8.2021 17:43:28.287
562, 1.96143, 0.382034, 220.57, 0, 0, -0.000976562, -0.0566406, 0.328125, -9.86328, 12.8.2021 17:43:28.295
563, 1.95487, 0.379609, 220.57, -0.000976562, 0, 0, -0.106445, 0.365234, -9.83789, 12.8.2021 17:43:28.303
564, 1.95487, 0.379609, 220.57, 0, 0, 0, -0.0195312, 0.318359, -9.7998, 12.8.2021 17:43:28.311
565, 1.95487, 0.379609, 220.57, -0.000976562, -0.000976562, 0, -0.0820312, 0.333984, -9.81738, 12.8.2021 17:43:28.319
566, 1.95487, 0.379609, 220.57, -0.000976562, -0.000976562, 0, -0.0654297, 0.345703, -9.81934, 12.8.2021 17:43:28.327
567, 1.95487, 0.379609, 220.57, -0.000976562, 0, 0, -0.0234375, 0.323242, -9.86816, 12.8.2021 17:43:28.335
568, 1.95487, 0.379609, 220.57, 0, -0.000976562, 0, -0.0888672, 0.341797, -9.78418, 12.8.2021 17:43:28.343
569, 1.95487, 0.379609, 220.57, -0.000976562, -0.000976562, 0, -0.078125, 0.358398, -9.83789, 12.8.2021 17:43:28.351
570, 1.95487, 0.379609, 220.57, -0.000976562, -0.000976562, 0, -0.0273438, 0.321289, -9.79492, 12.8.2021 17:43:28.359
571, 1.95487, 0.379609, 220.57, -0.000976562, -0.000976562, -0.000976562, -0.129883, 0.321289, -9.80078, 12.8.2021 17:43:28.367
572, 1.95487, 0.379609, 220.57, -0.00195312, -0.000976562, -0.000976562, -0.0507812, 0.30957, -9.81152, 12.8.2021 17:43:28.375
573, 1.95487, 0.379609, 220.57, -0.000976562, -0.000976562, -0.000976562, -0.0566406, 0.327148, -9.8584, 12.8.2021 17:43:28.383
574, 1.95487, 0.379609, 220.57, -0.000976562, -0.000976562, -0.000976562, -0.0996094, 0.34668, -9.85938, 12.8.2021 17:43:28.391
575, 1.95487, 0.379609, 220.57, -0.000976562, -0.000976562, -0.000976562, -0.0507812, 0.339844, -9.79199, 12.8.2021 17:43:28.399
576, 1.95487, 0.379609, 220.57, -0.00195312, 0, 0, -0.0800781, 0.34668, -9.85938, 12.8.2021 17:43:28.407
577, 1.95487, 0.379609, 220.57, -0.000976562, -0.000976562, -0.000976562, -0.0839844, 0.320312, -9.78516, 12.8.2021 17:43:28.415
578, 1.94832, 0.377185, 220.57, -0.000976562, -0.000976562, -0.000976562, -0.0302734, 0.325195, -9.86816, 12.8.2021 17:43:28.423
579, 1.94832, 0.377185, 220.57, -0.00195312, -0.000976562, 0, -0.0976562, 0.325195, -9.86719, 12.8.2021 17:43:28.431
580, 1.94832, 0.377185, 220.57, -0.000976562, -0.000976562, 0, -0.0585938, 0.322266, -9.83008, 12.8.2021 17:43:28.439
581, 1.94832, 0.377185, 220.57, -0.000976562, 0, -0.000976562, -0.0410156, 0.318359, -9.79004, 12.8.2021 17:43:28.447
582, 1.94832, 0.377185, 220.57, -0.00195312, 0, -0.000976562, -0.12207, 0.363281, -9.76855, 12.8.2021 17:43:28.455
583, 1.94832, 0.377185, 220.57, -0.00195312, -0.000976562, -0.000976562, -0.0322266, 0.34082, -9.80859, 12.8.2021 17:43:28.463
584, 1.94832, 0.377185, 220.57, -0.00195312, -0.000976562, 0, -0.0410156, 0.313477, -9.77148, 12.8.2021 17:43:28.471
585, 1.94832, 0.377185, 220.57, 0, -0.000976562, 0, -0.113281, 0.357422, -9.81641, 12.8.2021 17:43:28.479
586, 1.94832, 0.377185, 220.57, 0, -0.000976562, -0.000976562, -0.00878906, 0.329102, -9.83496, 12.8.2021 17:43:28.487
587, 1.94832, 0.377185, 220.57, 0, -0.000976562, -0.000976562, -0.0507812, 0.345703, -9.8252, 12.8.2021 17:43:28.495
588, 1.94832, 0.377185, 220.57, -0.000976562, 0, -0.000976562, -0.0732422, 0.384766, -9.86621, 12.8.2021 17:43:28.503
589, 1.94832, 0.377185, 220.57, -0.000976562, -0.000976562, -0.00195312, -0.0205078, 0.339844, -9.86523, 12.8.2021 17:43:28.511
590, 1.94832, 0.377185, 220.57, -0.000976562, 0, 0, -0.0947266, 0.348633, -9.83789, 12.8.2021 17:43:28.519
591, 1.94832, 0.377185, 220.57, 0.000976562, -0.000976562, 0, -0.0771484, 0.359375, -9.80273, 12.8.2021 17:43:28.527
592, 1.94832, 0.377185, 220.57, 0, -0.000976562, 0, -0.0390625, 0.307617, -9.81641, 12.8.2021 17:43:28.535
593, 1.94832, 0.377185, 220.57, 0, -0.000976562, -0.000976562, -0.0917969, 0.337891, -9.81445, 12.8.2021 17:43:28.543
594, 1.95487, 0.379609, 220.57, 0, 0, 0, -0.0449219, 0.353516, -9.85547, 12.8.2021 17:43:28.551
595, 1.95487, 0.379609, 220.57, 0, -0.000976562, 0, -0.0517578, 0.325195, -9.85156, 12.8.2021 17:43:28.559
596, 1.95487, 0.379609, 220.57, 0, -0.00195312, 0, -0.110352, 0.354492, -9.79297, 12.8.2021 17:43:28.567
597, 1.95487, 0.379609, 220.57, -0.000976562, -0.000976562, -0.000976562, -0.0253906, 0.327148, -9.83496, 12.8.2021 17:43:28.575
598, 1.95487, 0.379609, 220.57, -0.000976562, -0.000976562, 0, -0.0654297, 0.338867, -9.83398, 12.8.2021 17:43:28.583
599, 1.95487, 0.379609, 220.57, -0.000976562, 0, -0.000976562, -0.0839844, 0.351562, -9.78906, 12.8.2021 17:43:28.591
600, 1.95487, 0.379609, 220.57, 0, -0.000976562, -0.000976562, 0.0371094, 0.331055, -9.80762, 12.8.2021 17:43:28.599
601, 1.95487, 0.379609, 220.57, 0, -0.000976562, -0.000976562, -0.0849609, 0.327148, -9.84863, 12.8.2021 17:43:28.607
602, 1.95487, 0.379609, 220.57, -0.000976562, -0.00195312, 0, -0.0566406, 0.329102, -9.83496, 12.8.2021 17:43:28.615
603, 1.95729, 0.37305, 220.57, -0.000976562, -0.000976562, 0, -0.0341797, 0.329102, -9.8252, 12.8.2021 17:43:28.623
604, 1.95729, 0.37305, 220.57, 0, -0.00195312, -0.000976562, -0.102539, 0.366211, -9.87793, 12.8.2021 17:43:28.631
605, 1.95729, 0.37305, 220.57, 0.000976562, -0.00195312, -0.000976562, -0.0439453, 0.352539, -9.81738, 12.8.2021 17:43:28.639
606, 1.95729, 0.37305, 220.57, 0, -0.00195312, -0.000976562, -0.0751953, 0.345703, -9.83105, 12.8.2021 17:43:28.647
607, 1.95729, 0.37305, 220.57, 0, -0.00195312, 0, -0.0732422, 0.361328, -9.86133, 12.8.2021 17:43:28.655
608, 1.96385, 0.375474, 220.57, 0, -0.000976562, -0.000976562, 0.0195312, 0.338867, -9.85645, 12.8.2021 17:43:28.663
609, 1.96418, 0.375494, 220.568, 0, -0.000976562, 0, -0.0566406, 0.353516, -9.85547, 12.8.2021 17:43:28.671
610, 1.96418, 0.375494, 220.568, -0.000976562, -0.000976562, -0.000976562, -0.0869141, 0.34082, -9.80273, 12.8.2021 17:43:28.679
611, 1.96418, 0.375494, 220.568, -0.000976562, -0.000976562, -0.000976562, -0.0126953, 0.331055, -9.80176, 12.8.2021 17:43:28.687
612, 1.9666, 0.368935, 220.568, 0, -0.000976562, 0, -0.118164, 0.345703, -9.82324, 12.8.2021 17:43:28.695
613, 1.9666, 0.368935, 220.568, 0, -0.00195312, 0, -0.0625, 0.352539, -9.8125, 12.8.2021 17:43:28.703
614, 1.9666, 0.368935, 220.568, 0, -0.000976562, 0, -0.0273438, 0.307617, -9.82617, 12.8.2021 17:43:28.711
615, 1.9666, 0.368935, 220.568, 0.000976562, -0.000976562, 0, -0.137695, 0.356445, -9.84668, 12.8.2021 17:43:28.719
616, 1.96627, 0.368915, 220.57, 0, -0.000976562, 0, -0.0507812, 0.336914, -9.77539, 12.8.2021 17:43:28.727
617, 1.96627, 0.368915, 220.57, 0, 0, -0.000976562, -0.0458984, 0.323242, -9.80176, 12.8.2021 17:43:28.735
618, 1.9666, 0.368935, 220.568, 0, 0.000976562, -0.000976562, -0.0820312, 0.352539, -9.80273, 12.8.2021 17:43:28.741
619, 1.96902, 0.362376, 220.568, 0, 0, -0.000976562, -0.015625, 0.326172, -9.81445, 12.8.2021 17:43:28.749
620, 1.96902, 0.362376, 220.568, 0, 0, -0.000976562, -0.0742188, 0.330078, -9.78027, 12.8.2021 17:43:28.757
621, 1.96902, 0.362376, 220.568, 0.000976562, 0.000976562, 0, -0.0732422, 0.334961, -9.86035, 12.8.2021 17:43:28.765
622, 1.96902, 0.362376, 220.568, 0, 0, -0.000976562, -0.0175781, 0.34082, -9.82031, 12.8.2021 17:43:28.773
623, 1.96902, 0.362376, 220.568, 0, 0, 0, -0.111328, 0.344727, -9.85449, 12.8.2021 17:43:28.781
624, 1.96902, 0.362376, 220.568, -0.000976562, 0, 0, -0.078125, 0.34668, -9.85254, 12.8.2021 17:43:28.789
625, 1.96902, 0.362376, 220.568, 0, 0, -0.000976562, -0.0273438, 0.338867, -9.83496, 12.8.2021 17:43:28.797
626, 1.96902, 0.362376, 220.568, 0, 0, 0, -0.108398, 0.349609, -9.80469, 12.8.2021 17:43:28.805
627, 1.96869, 0.362355, 220.57, -0.000976562, 0, 0, -0.0185547, 0.318359, -9.85938, 12.8.2021 17:43:28.813
628, 1.97112, 0.355795, 220.57, 0.000976562, 0.000976562, 0, -0.0273438, 0.337891, -9.81836, 12.8.2021 17:43:28.821
629, 1.97112, 0.355795, 220.57, 0, 0.000976562, -0.000976562, -0.09375, 0.362305, -9.81445, 12.8.2021 17:43:28.829
630, 1.97112, 0.355795, 220.57, 0, 0.00195312, 0, 0.00585938, 0.30957, -9.80566, 12.8.2021 17:43:28.837
631, 1.97112, 0.355795, 220.57, 0, 0, -0.000976562, -0.0878906, 0.330078, -9.85254, 12.8.2021 17:43:28.845
632, 1.97112, 0.355795, 220.57, 0.000976562, 0.000976562, 0, -0.0957031, 0.357422, -9.79785, 12.8.2021 17:43:28.853
633, 1.97112, 0.355795, 220.57, 0, 0.000976562, 0, -0.0234375, 0.330078, -9.8584, 12.8.2021 17:43:28.861
634, 1.97112, 0.355795, 220.57, -0.000976562, 0.000976562, -0.000976562, -0.125, 0.348633, -9.83984, 12.8.2021 17:43:28.869
635, 1.97112, 0.355795, 220.57, 0.000976562, 0.000976562, -0.000976562, -0.0888672, 0.359375, -9.80762, 12.8.2021 17:43:28.877
636, 1.97354, 0.349236, 220.571, 0, 0.000976562, 0, -0.0371094, 0.334961, -9.85156, 12.8.2021 17:43:28.885
637, 1.97354, 0.349236, 220.571, -0.000976562, 0.000976562, -0.000976562, -0.102539, 0.373047, -9.78809, 12.8.2021 17:43:28.893
638, 1.97354, 0.349236, 220.571, 0, 0, 0, -0.0322266, 0.352539, -9.8252, 12.8.2021 17:43:28.901
639, 1.97354, 0.349236, 220.571, 0, 0.000976562, 0, -0.0292969, 0.314453, -9.82129, 12.8.2021 17:43:28.909
640, 1.97354, 0.349236, 220.571, 0, 0, 0, -0.105469, 0.331055, -9.80273, 12.8.2021 17:43:28.917
641, 1.97354, 0.349236, 220.571, -0.000976562, 0, 0, -0.0175781, 0.308594, -9.80078, 12.8.2021 17:43:28.925
642, 1.97354, 0.349236, 220.571, 0, 0, -0.000976562, -0.0820312, 0.321289, -9.80566, 12.8.2021 17:43:28.933
643, 1.97354, 0.349236, 220.571, 0.000976562, 0, -0.000976562, -0.0917969, 0.348633, -9.84766, 12.8.2021 17:43:28.941
644, 1.97354, 0.349236, 220.571, 0.000976562, 0.000976562, 0, -0.0292969, 0.307617, -9.81641, 12.8.2021 17:43:28.949
645, 1.97354, 0.349236, 220.571, 0, 0.000976562, 0, -0.0859375, 0.375977, -9.78516, 12.8.2021 17:43:28.957
646, 1.97354, 0.349236, 220.571, -0.000976562, 0.000976562, 0, -0.0722656, 0.361328, -9.79297, 12.8.2021 17:43:28.965
647, 1.97354, 0.349236, 220.571, 0, 0, 0, -0.0224609, 0.324219, -9.81445, 12.8.2021 17:43:28.973
648, 1.97354, 0.349236, 220.571, 0.000976562, 0, 0, -0.105469, 0.354492, -9.79785, 12.8.2021 17:43:28.981
649, 1.97354, 0.349236, 220.571, -0.00195312, -0.00195312, -0.000976562, -0.0322266, 0.350586, -9.83398, 12.8.2021 17:43:28.989
650, 1.97112, 0.355795, 220.57, -0.00195312, -0.000976562, -0.000976562, -0.0742188, 0.323242, -9.79395, 12.8.2021 17:43:28.997
651, 1.97112, 0.355795, 220.57, -0.000976562, -0.000976562, -0.000976562, -0.0800781, 0.360352, -9.82617, 12.8.2021 17:43:29.005
652, 1.97112, 0.355795, 220.57, -0.000976562, -0.000976562, -0.000976562, -0.0322266, 0.311523, -9.81445, 12.8.2021 17:43:29.013
653, 1.97112, 0.355795, 220.57, 0.000976562, -0.000976562, -0.000976562, -0.0888672, 0.331055, -9.81934, 12.8.2021 17:43:29.021
654, 1.97112, 0.355795, 220.57, -0.00195312, -0.000976562, -0.000976562, -0.113281, 0.348633, -9.84277, 12.8.2021 17:43:29.029
655, 1.97767, 0.35822, 220.57, -0.00195312, -0.00195312, 0, 0.00585938, 0.310547, -9.84082, 12.8.2021 17:43:29.037
656, 1.97767, 0.35822, 220.57, 0, -0.000976562, 0, -0.0917969, 0.336914, -9.83398, 12.8.2021 17:43:29.045
657, 1.97767, 0.35822, 220.57, 0, 0, 0, -0.0654297, 0.331055, -9.79883, 12.8.2021 17:43:29.053
658, 1.97767, 0.35822, 220.57, -0.000976562, 0, -0.000976562, -0.0302734, 0.320312, -9.85449, 12.8.2021 17:43:29.061
659, 1.97767, 0.35822, 220.57, 0.000976562, 0, 0, -0.115234, 0.349609, -9.78809, 12.8.2021 17:43:29.069
660, 1.97767, 0.35822, 220.57, -0.000976562, 0, -0.000976562, -0.0244141, 0.345703, -9.81543, 12.8.2021 17:43:29.077
661, 1.97767, 0.35822, 220.57, -0.00195312, -0.000976562, 0, -0.0341797, 0.322266, -9.8252, 12.8.2021 17:43:29.085
662, 1.97767, 0.35822, 220.57, -0.000976562, -0.000976562, -0.000976562, -0.105469, 0.347656, -9.81641, 12.8.2021 17:43:29.093
663, 1.97767, 0.35822, 220.57, 0, -0.000976562, 0, -0.0273438, 0.302734, -9.82422, 12.8.2021 17:43:29.101
664, 1.97525, 0.36478, 220.57, -0.00195312, 0, -0.000976562, -0.115234, 0.321289, -9.7959, 12.8.2021 17:43:29.109
665, 1.97525, 0.36478, 220.57, -0.00195312, 0, 0, -0.0771484, 0.365234, -9.82812, 12.8.2021 17:43:29.117
666, 1.96869, 0.362355, 220.57, 0, 0, 0, -0.015625, 0.327148, -9.83496, 12.8.2021 17:43:29.125
667, 1.96869, 0.362355, 220.57, -0.000976562, 0, -0.000976562, -0.12207, 0.344727, -9.80273, 12.8.2021 17:43:29.133
668, 1.96869, 0.362355, 220.57, -0.00195312, 0, 0, -0.100586, 0.34082, -9.8125, 12.8.2021 17:43:29.141
669, 1.96869, 0.362355, 220.57, 0, -0.000976562, 0, -0.0488281, 0.326172, -9.80371, 12.8.2021 17:43:29.149
670, 1.96869, 0.362355, 220.57, 0, 0, 0, -0.112305, 0.342773, -9.7998, 12.8.2021 17:43:29.157
671, 1.96869, 0.362355, 220.57, 0, -0.00195312, 0, -0.0507812, 0.345703, -9.8252, 12.8.2021 17:43:29.165
672, 1.96869, 0.362355, 220.57, 0.000976562, -0.000976562, -0.000976562, -0.0683594, 0.323242, -9.87695, 12.8.2021 17:43:29.173
673, 1.96627, 0.368915, 220.57, -0.00195312, -0.000976562, 0, -0.103516, 0.363281, -9.83496, 12.8.2021 17:43:29.181
674, 1.96627, 0.368915, 220.57, -0.00195312, -0.000976562, 0, -0.0341797, 0.331055, -9.81152, 12.8.2021 17:43:29.189
675, 1.97283, 0.371339, 220.57, -0.00195312, -0.000976562, 0, -0.0917969, 0.341797, -9.85449, 12.8.2021 17:43:29.197
676, 1.97283, 0.371339, 220.57, 0, 0, 0, -0.0996094, 0.370117, -9.85156, 12.8.2021 17:43:29.205
677, 1.97283, 0.371339, 220.57, -0.000976562, -0.000976562, -0.000976562, -0.0185547, 0.320312, -9.86133, 12.8.2021 17:43:29.213
678, 1.9704, 0.377899, 220.57, -0.000976562, -0.00195312, -0.000976562, -0.120117, 0.328125, -9.80566, 12.8.2021 17:43:29.221
679, 1.9704, 0.377899, 220.57, -0.000976562, -0.000976562, -0.000976562, -0.0556641, 0.366211, -9.78906, 12.8.2021 17:43:29.229
680, 1.9704, 0.377899, 220.57, -0.000976562, -0.000976562, -0.000976562, -0.0566406, 0.341797, -9.85547, 12.8.2021 17:43:29.237
681, 1.9704, 0.377899, 220.57, 0, 0, 0, -0.09375, 0.330078, -9.77734, 12.8.2021 17:43:29.245
682, 1.9704, 0.377899, 220.57, 0, -0.000976562, -0.000976562, -0.046875, 0.323242, -9.8584, 12.8.2021 17:43:29.253
683, 1.96798, 0.384459, 220.57, 0.000976562, -0.000976562, 0, -0.0361328, 0.313477, -9.80176, 12.8.2021 17:43:29.261
684, 1.96798, 0.384459, 220.57, 0, -0.000976562, 0, -0.0849609, 0.355469, -9.83301, 12.8.2021 17:43:29.269
685, 1.96798, 0.384459, 220.57, 0, -0.000976562, 0, -0.0488281, 0.333984, -9.82324, 12.8.2021 17:43:29.277
686, 1.96798, 0.384459, 220.57, 0, -0.000976562, 0, -0.0625, 0.321289, -9.79883, 12.8.2021 17:43:29.285
687, 1.96798, 0.384459, 220.57, 0, -0.000976562, -0.000976562, -0.0722656, 0.354492, -9.80957, 12.8.2021 17:43:29.293
688, 1.96798, 0.384459, 220.57, -0.000976562, 0, 0, -0.0107422, 0.3125, -9.84082, 12.8.2021 17:43:29.301
689, 1.96798, 0.384459, 220.57, 0, -0.000976562, 0, -0.104492, 0.364258, -9.86621, 12.8.2021 17:43:29.309
690, 1.96798, 0.384459, 220.57, 0, -0.000976562, -0.000976562, -0.0712891, 0.353516, -9.85742, 12.8.2021 17:43:29.317
691, 1.96556, 0.391019, 220.57, 0, -0.000976562, 0, -0.0419922, 0.3125, -9.82812, 12.8.2021 17:43:29.325
692, 1.96556, 0.391019, 220.57, 0.000976562, 0, 0, -0.116211, 0.356445, -9.8584, 12.8.2021 17:43:29.333
693, 1.96556, 0.391019, 220.57, 0, 0, -0.000976562, -0.0634766, 0.332031, -9.84668, 12.8.2021 17:43:29.341
694, 1.96556, 0.391019, 220.57, 0.000976562, -0.000976562, 0, -0.0556641, 0.355469, -9.81543, 12.8.2021 17:43:29.349
695, 1.96556, 0.391019, 220.57, 0.000976562, -0.00195312, 0.000976562, -0.0869141, 0.342773, -9.81055, 12.8.2021 17:43:29.357
696, 1.96556, 0.391019, 220.57, -0.000976562, -0.000976562, 0.000976562, -0.0166016, 0.293945, -9.86426, 12.8.2021 17:43:29.365
697, 1.96556, 0.391019, 220.57, 0, -0.000976562, 0, -0.0634766, 0.322266, -9.82715, 12.8.2021 17:43:29.373
698, 1.96556, 0.391019, 220.57, 0, -0.00195312, 0, -0.0703125, 0.345703, -9.82422, 12.8.2021 17:43:29.381
699, 1.96556, 0.391019, 220.57, -0.000976562, -0.000976562, 0, -0.000976562, 0.332031, -9.84277, 12.8.2021 17:43:29.389
700, 1.96556, 0.391019, 220.57, 0, -0.000976562, 0, -0.125, 0.328125, -9.80078, 12.8.2021 17:43:29.397
701, 1.96556, 0.391019, 220.57, 0.000976562, -0.000976562, 0, -0.09375, 0.329102, -9.82422, 12.8.2021 17:43:29.405
702, 1.96556, 0.391019, 220.57, 0, -0.00195312, 0, -0.0507812, 0.314453, -9.81152, 12.8.2021 17:43:29.413
703, 1.96556, 0.391019, 220.57, 0, -0.00195312, 0, -0.129883, 0.34082, -9.80469, 12.8.2021 17:43:29.421
704, 1.96556, 0.391019, 220.57, -0.000976562, -0.000976562, -0.000976562, -0.0253906, 0.331055, -9.83301, 12.8.2021 17:43:29.429
705, 1.96556, 0.391019, 220.57, -0.000976562, -0.000976562, -0.000976562, -0.0605469, 0.353516, -9.83594, 12.8.2021 17:43:29.437
706, 1.96556, 0.391019, 220.57, -0.000976562, -0.000976562, 0, -0.113281, 0.365234, -9.81836, 12.8.2021 17:43:29.445
707, 1.96556, 0.391019, 220.57, 0, -0.000976562, -0.000976562, -0.0253906, 0.338867, -9.83984, 12.8.2021 17:43:29.453
708, 1.96556, 0.391019, 220.57, 0.000976562, 0, -0.000976562, -0.0800781, 0.332031, -9.85059, 12.8.2021 17:43:29.461
709, 1.96556, 0.391019, 220.57, 0.000976562, -0.000976562, -0.000976562, -0.0996094, 0.344727, -9.87109, 12.8.2021 17:43:29.469
710, 1.95658, 0.395153, 220.57, 0, -0.000976562, 0, -0.0126953, 0.310547, -9.77441, 12.8.2021 17:43:29.477
711, 1.95658, 0.395153, 220.57, 0.000976562, -0.000976562, 0, -0.108398, 0.348633, -9.84277, 12.8.2021 17:43:29.485
712, 1.95658, 0.395153, 220.57, 0, 0, -0.000976562, -0.00976562, 0.358398, -9.78027, 12.8.2021 17:43:29.493
713, 1.95658, 0.395153, 220.57, -0.000976562, -0.000976562, 0, -0.0322266, 0.322266, -9.85156, 12.8.2021 17:43:29.501
714, 1.95658, 0.395153, 220.57, -0.000976562, -0.000976562, -0.000976562, -0.108398, 0.360352, -9.82812, 12.8.2021 17:43:29.509
715, 1.95658, 0.395153, 220.57, -0.000976562, 0.000976562, -0.000976562, -0.0439453, 0.364258, -9.80566, 12.8.2021 17:43:29.517
716, 1.959, 0.388594, 220.57, -0.00195312, -0.000976562, 0, -0.0498047, 0.334961, -9.87012, 12.8.2021 17:43:29.525
717, 1.959, 0.388594, 220.57, -0.00195312, -0.000976562, 0, -0.0605469, 0.356445, -9.78906, 12.8.2021 17:43:29.533
718, 1.959, 0.388594, 220.57, -0.000976562, -0.000976562, -0.000976562, -0.00390625, 0.323242, -9.86133, 12.8.2021 17:43:29.541
719, 1.959, 0.388594, 220.57, -0.000976562, -0.000976562, 0, -0.0703125, 0.337891, -9.8125, 12.8.2021 17:43:29.549
720, 1.96556, 0.391019, 220.57, -0.00195312, -0.000976562, 0, -0.0556641, 0.378906, -9.82129, 12.8.2021 17:43:29.557
721, 1.96556, 0.391019, 220.57, -0.000976562, 0.000976562, 0, -0.0136719, 0.336914, -9.84668, 12.8.2021 17:43:29.565
722, 1.96556, 0.391019, 220.57, -0.000976562, -0.000976562, -0.000976562, -0.0820312, 0.345703, -9.83105, 12.8.2021 17:43:29.573
723, 1.96798, 0.384459, 220.57, -0.000976562, 0.000976562, -0.000976562, -0.0654297, 0.369141, -9.81445, 12.8.2021 17:43:29.581
724, 1.96798, 0.384459, 220.57, -0.00195312, 0.000976562, 0, -0.0488281, 0.320312, -9.84473, 12.8.2021 17:43:29.589
725, 1.96798, 0.384459, 220.57, -0.000976562, 0.000976562, -0.000976562, -0.129883, 0.371094, -9.80176, 12.8.2021 17:43:29.597
726, 1.96798, 0.384459, 220.57, -0.000976562, -0.000976562, -0.000976562, -0.0224609, 0.321289, -9.7998, 12.8.2021 17:43:29.605
727, 1.9704, 0.377899, 220.57, -0.000976562, -0.000976562, 0, -0.0400391, 0.31543, -9.84473, 12.8.2021 17:43:29.613
728, 1.9704, 0.377899, 220.57, -0.000976562, -0.000976562, 0, -0.0966797, 0.360352, -9.84473, 12.8.2021 17:43:29.621
729, 1.9704, 0.377899, 220.57, -0.000976562, -0.000976562, 0, -0.000976562, 0.317383, -9.82617, 12.8.2021 17:43:29.629
730, 1.9704, 0.377899, 220.57, -0.00195312, -0.000976562, 0.000976562, -0.0703125, 0.362305, -9.83301, 12.8.2021 17:43:29.637
731, 1.97283, 0.371339, 220.57, -0.000976562, -0.000976562, 0, -0.0888672, 0.342773, -9.80957, 12.8.2021 17:43:29.645
732, 1.97283, 0.371339, 220.57, 0.000976562, -0.000976562, 0, -0.0292969, 0.328125, -9.79492, 12.8.2021 17:43:29.653
733, 1.97283, 0.371339, 220.57, -0.000976562, -0.000976562, 0, -0.125, 0.345703, -9.82324, 12.8.2021 17:43:29.661
734, 1.97283, 0.371339, 220.57, -0.000976562, -0.00195312, 0, -0.0820312, 0.344727, -9.79395, 12.8.2021 17:43:29.669
735, 1.97283, 0.371339, 220.57, -0.000976562, -0.000976562, 0, -0.0390625, 0.324219, -9.83691, 12.8.2021 17:43:29.677
736, 1.97283, 0.371339, 220.57, -0.000976562, 0.000976562, 0, -0.131836, 0.344727, -9.77148, 12.8.2021 17:43:29.685
737, 1.97283, 0.371339, 220.57, -0.000976562, -0.000976562, 0, -0.0517578, 0.332031, -9.83496, 12.8.2021 17:43:29.693
738, 1.9818, 0.367205, 220.57, -0.00195312, -0.000976562, 0, -0.0625, 0.347656, -9.80371, 12.8.2021 17:43:29.699
739, 1.9818, 0.367205, 220.57, -0.000976562, -0.000976562, 0, -0.0947266, 0.353516, -9.84961, 12.8.2021 17:43:29.707
740, 1.9818, 0.367205, 220.57, -0.000976562, -0.000976562, 0, -0.00585938, 0.316406, -9.80957, 12.8.2021 17:43:29.715
741, 1.9818, 0.367205, 220.57, -0.000976562, -0.00195312, 0, -0.0703125, 0.326172, -9.82031, 12.8.2021 17:43:29.723
742, 1.9818, 0.367205, 220.57, -0.000976562, -0.000976562, -0.000976562, -0.0791016, 0.354492, -9.8125, 12.8.2021 17:43:29.731
743, 1.9818, 0.367205, 220.57, -0.000976562, -0.000976562, -0.000976562, -0.0175781, 0.331055, -9.80957, 12.8.2021 17:43:29.739
744, 1.9818, 0.367205, 220.57, -0.000976562, -0.00195312, -0.000976562, -0.115234, 0.342773, -9.81445, 12.8.2021 17:43:29.747
745, 1.9818, 0.367205, 220.57, -0.000976562, -0.000976562, -0.000976562, -0.0605469, 0.364258, -9.78906, 12.8.2021 17:43:29.755
746, 1.9818, 0.367205, 220.57, 0, -0.000976562, -0.000976562, -0.0224609, 0.345703, -9.83496, 12.8.2021 17:43:29.763
747, 1.9818, 0.367205, 220.57, 0.000976562, 0, 0, -0.103516, 0.350586, -9.82617, 12.8.2021 17:43:29.771
748, 1.9818, 0.367205, 220.57, 0, -0.000976562, 0, -0.0488281, 0.319336, -9.81348, 12.8.2021 17:43:29.779
749, 1.9818, 0.367205, 220.57, 0, 0.000976562, -0.000976562, -0.0556641, 0.324219, -9.81348, 12.8.2021 17:43:29.787
750, 1.9818, 0.367205, 220.57, 0, 0.000976562, -0.000976562, -0.0634766, 0.34668, -9.84375, 12.8.2021 17:43:29.795
751, 1.9818, 0.367205, 220.57, 0, -0.00195312, 0, -0.0263672, 0.334961, -9.79492, 12.8.2021 17:43:29.803
752, 1.9818, 0.367205, 220.57, 0, -0.000976562, 0, -0.0664062, 0.363281, -9.85449, 12.8.2021 17:43:29.811
753, 1.9818, 0.367205, 220.57, 0, -0.000976562, -0.000976562, -0.0800781, 0.360352, -9.81641, 12.8.2021 17:43:29.819
754, 1.9818, 0.367205, 220.57, 0, -0.000976562, -0.000976562, -0.00195312, 0.336914, -9.87109, 12.8.2021 17:43:29.827
755, 1.9818, 0.367205, 220.57, 0, -0.00195312, -0.000976562, -0.0996094, 0.320312, -9.84375, 12.8.2021 17:43:29.835
756, 1.9818, 0.367205, 220.57, 0, -0.000976562, -0.000976562, -0.0605469, 0.357422, -9.81445, 12.8.2021 17:43:29.843
757, 1.9818, 0.367205, 220.57, 0, -0.000976562, -0.000976562, -0.0253906, 0.323242, -9.86328, 12.8.2021 17:43:29.851
758, 1.9818, 0.367205, 220.57, 0, -0.000976562, 0, -0.12207, 0.347656, -9.80664, 12.8.2021 17:43:29.859
759, 1.9818, 0.367205, 220.57, -0.000976562, -0.000976562, -0.000976562, -0.0507812, 0.356445, -9.79395, 12.8.2021 17:43:29.867
760, 1.9818, 0.367205, 220.57, 0.000976562, -0.000976562, 0, -0.0869141, 0.34375, -9.84277, 12.8.2021 17:43:29.875
761, 1.9818, 0.367205, 220.57, 0, -0.000976562, -0.000976562, -0.118164, 0.352539, -9.81836, 12.8.2021 17:43:29.883
762, 1.98214, 0.367225, 220.569, 0, -0.000976562, -0.000976562, -0.0458984, 0.347656, -9.82031, 12.8.2021 17:43:29.891
763, 1.98214, 0.367225, 220.569, 0, 0.000976562, -0.000976562, -0.0771484, 0.337891, -9.80078, 12.8.2021 17:43:29.899
764, 1.98214, 0.367225, 220.569, 0, -0.000976562, 0, -0.0800781, 0.358398, -9.85254, 12.8.2021 17:43:29.907
765, 1.98214, 0.367225, 220.569, 0, 0.000976562, -0.000976562, -0.0244141, 0.318359, -9.78125, 12.8.2021 17:43:29.915
766, 1.98214, 0.367225, 220.569, 0, 0, 0, -0.114258, 0.337891, -9.86426, 12.8.2021 17:43:29.923
767, 1.98214, 0.367225, 220.569, 0, 0, 0, -0.0751953, 0.350586, -9.83105, 12.8.2021 17:43:29.931
768, 1.98214, 0.367225, 220.569, 0, -0.000976562, -0.000976562, -0.0488281, 0.320312, -9.8418, 12.8.2021 17:43:29.939
769, 1.98214, 0.367225, 220.569, 0.000976562, 0.000976562, -0.000976562, -0.144531, 0.329102, -9.82617, 12.8.2021 17:43:29.947
770, 1.98214, 0.367225, 220.569, 0, -0.000976562, -0.000976562, -0.0224609, 0.323242, -9.79004, 12.8.2021 17:43:29.955
771, 1.98214, 0.367225, 220.569, 0, 0, 0, -0.0380859, 0.318359, -9.86621, 12.8.2021 17:43:29.963
772, 1.98214, 0.367225, 220.569, 0, 0, 0, -0.0976562, 0.368164, -9.86621, 12.8.2021 17:43:29.971
773, 1.98214, 0.367225, 220.569, 0, 0, 0, -0.0126953, 0.34082, -9.82324, 12.8.2021 17:43:29.979
774, 1.98214, 0.367225, 220.569, 0, 0.00195312, -0.000976562, -0.0537109, 0.338867, -9.83691, 12.8.2021 17:43:29.987
775, 1.98214, 0.367225, 220.569, 0, 0.000976562, -0.000976562, -0.078125, 0.386719, -9.84961, 12.8.2021 17:43:29.995
776, 1.98214, 0.367225, 220.569, 0, 0, 0, -0.0107422, 0.353516, -9.85156, 12.8.2021 17:43:30.003
777, 1.98214, 0.367225, 220.569, -0.000976562, -0.000976562, 0, -0.113281, 0.353516, -9.84473, 12.8.2021 17:43:30.011
778, 1.98869, 0.36965, 220.569, -0.000976562, -0.000976562, -0.000976562, -0.0849609, 0.331055, -9.82227, 12.8.2021 17:43:30.019
779, 1.98869, 0.36965, 220.569, 0.000976562, -0.000976562, -0.000976562, -0.0292969, 0.320312, -9.7832, 12.8.2021 17:43:30.027
780, 1.98627, 0.37621, 220.568, -0.000976562, -0.000976562, 0, -0.141602, 0.335938, -9.81152, 12.8.2021 17:43:30.035
781, 1.98627, 0.37621, 220.568, -0.000976562, -0.000976562, -0.000976562, -0.0507812, 0.333008, -9.81543, 12.8.2021 17:43:30.043
782, 1.98627, 0.37621, 220.568, -0.000976562, 0, 0, -0.0410156, 0.337891, -9.80664, 12.8.2021 17:43:30.051
783, 1.98627, 0.37621, 220.568, -0.000976562, 0, -0.000976562, -0.101562, 0.3125, -9.8418, 12.8.2021 17:43:30.059
784, 1.98627, 0.37621, 220.568, -0.000976562, -0.000976562, 0, -0.0253906, 0.322266, -9.85156, 12.8.2021 17:43:30.067
785, 1.98627, 0.37621, 220.568, 0.000976562, 0, -0.000976562, -0.0439453, 0.31543, -9.83789, 12.8.2021 17:43:30.075
786, 1.98627, 0.37621, 220.568, -0.000976562, -0.000976562, -0.000976562, -0.0849609, 0.332031, -9.83594, 12.8.2021 17:43:30.083
787, 1.98627, 0.37621, 220.568, -0.000976562, 0, -0.000976562, -0.00585938, 0.329102, -9.82324, 12.8.2021 17:43:30.091
788, 1.98627, 0.37621, 220.568, -0.000976562, 0, -0.000976562, -0.118164, 0.370117, -9.84668, 12.8.2021 17:43:30.099
789, 1.97971, 0.373785, 220.568, 0.000976562, -0.000976562, 0, -0.0390625, 0.339844, -9.80371, 12.8.2021 17:43:30.107
790, 1.97971, 0.373785, 220.568, 0.000976562, -0.00195312, -0.000976562, -0.0361328, 0.313477, -9.79004, 12.8.2021 17:43:30.115
791, 1.97971, 0.373785, 220.568, -0.000976562, 0, -0.000976562, -0.101562, 0.344727, -9.85742, 12.8.2021 17:43:30.123
792, 1.97971, 0.373785, 220.568, -0.00195312, 0, -0.00195312, -0.0371094, 0.350586, -9.8252, 12.8.2021 17:43:30.131
793, 1.97957, 0.373906, 220.577, -0.000976562, -0.000976562, -0.000976562, -0.0390625, 0.332031, -9.83203, 12.8.2021 17:43:30.139
794, 1.97957, 0.373906, 220.577, -0.000976562, -0.000976562, 0, -0.0869141, 0.358398, -9.83789, 12.8.2021 17:43:30.147
795, 1.97957, 0.373906, 220.577, -0.00195312, -0.000976562, -0.000976562, -0.0205078, 0.292969, -9.81934, 12.8.2021 17:43:30.155
796, 1.97957, 0.373906, 220.577, -0.000976562, 0, -0.000976562, -0.0585938, 0.328125, -9.81055, 12.8.2021 17:43:30.163
797, 1.97957, 0.373906, 220.577, 0.000976562, 0, -0.000976562, -0.0634766, 0.334961, -9.85059, 12.8.2021 17:43:30.171
798, 1.97957, 0.373906, 220.577, 0.000976562, -0.000976562, -0.000976562, -0.0205078, 0.316406, -9.81934, 12.8.2021 17:43:30.179
799, 1.97301, 0.371481, 220.577, -0.000976562, 0, -0.00195312, -0.09375, 0.352539, -9.81641, 12.8.2021 17:43:30.187
800, 1.97301, 0.371481, 220.577, -0.000976562, -0.000976562, -0.000976562, -0.0703125, 0.365234, -9.84766, 12.8.2021 17:43:30.195
801, 1.97301, 0.371481, 220.577, 0.000976562, -0.000976562, -0.000976562, -0.0244141, 0.324219, -9.81641, 12.8.2021 17:43:30.203
802, 1.97301, 0.371481, 220.577, -0.000976562, -0.000976562, 0, -0.121094, 0.361328, -9.84961, 12.8.2021 17:43:30.211
803, 1.97301, 0.371481, 220.577, -0.000976562, -0.000976562, 0, -0.0458984, 0.342773, -9.79883, 12.8.2021 17:43:30.219
804, 1.97301, 0.371481, 220.577, -0.000976562, -0.000976562, 0, -0.0556641, 0.306641, -9.7998, 12.8.2021 17:43:30.227
805, 1.97301, 0.371481, 220.577, 0, -0.000976562, -0.00195312, -0.101562, 0.356445, -9.85938, 12.8.2021 17:43:30.235
806, 1.97301, 0.371481, 220.577, -0.000976562, 0, -0.000976562, -0.00585938, 0.348633, -9.84473, 12.8.2021 17:43:30.243
807, 1.96646, 0.369056, 220.577, 0.000976562, -0.000976562, 0, -0.0751953, 0.333008, -9.81055, 12.8.2021 17:43:30.251
808, 1.96646, 0.369056, 220.577, -0.000976562, -0.000976562, 0, -0.0791016, 0.349609, -9.80078, 12.8.2021 17:43:30.259
809, 1.96646, 0.369056, 220.577, -0.000976562, -0.000976562, 0, -0.0224609, 0.302734, -9.82422, 12.8.2021 17:43:30.267
810, 1.96646, 0.369056, 220.577, -0.000976562, -0.000976562, -0.000976562, -0.0898438, 0.329102, -9.82422, 12.8.2021 17:43:30.275
811, 1.96646, 0.369056, 220.577, -0.000976562, -0.000976562, 0, -0.0517578, 0.319336, -9.83008, 12.8.2021 17:43:30.283
812, 1.96646, 0.369056, 220.577, -0.000976562, 0, -0.000976562, -0.0419922, 0.317383, -9.84668, 12.8.2021 17:43:30.291
813, 1.96888, 0.362496, 220.577, -0.000976562, -0.00195312, 0, -0.110352, 0.345703, -9.81641, 12.8.2021 17:43:30.299
814, 1.96646, 0.369056, 220.577, 0, -0.000976562, 0, -0.0175781, 0.345703, -9.82324, 12.8.2021 17:43:30.307
815, 1.96888, 0.362496, 220.577, -0.000976562, -0.000976562, -0.000976562, -0.0615234, 0.339844, -9.8623, 12.8.2021 17:43:30.315
816, 1.96888, 0.362496, 220.577, -0.000976562, -0.000976562, 0, -0.118164, 0.342773, -9.81152, 12.8.2021 17:43:30.323
817, 1.96888, 0.362496, 220.577, -0.000976562, 0, -0.000976562, -0.0302734, 0.325195, -9.85449, 12.8.2021 17:43:30.331
818, 1.96888, 0.362496, 220.577, -0.000976562, 0, -0.000976562, -0.0888672, 0.319336, -9.81543, 12.8.2021 17:43:30.339
819, 1.96232, 0.360071, 220.577, -0.000976562, 0, -0.000976562, -0.078125, 0.336914, -9.86426, 12.8.2021 17:43:30.347
820, 1.96232, 0.360071, 220.577, -0.00195312, -0.000976562, -0.000976562, -0.0224609, 0.326172, -9.81641, 12.8.2021 17:43:30.355
821, 1.96232, 0.360071, 220.577, -0.000976562, 0, 0, -0.125, 0.360352, -9.81836, 12.8.2021 17:43:30.363
822, 1.96232, 0.360071, 220.577, -0.000976562, -0.000976562, 0, -0.0537109, 0.336914, -9.83398, 12.8.2021 17:43:30.371
823, 1.96247, 0.359951, 220.568, -0.00195312, -0.000976562, 0, -0.0322266, 0.341797, -9.85156, 12.8.2021 17:43:30.379
824, 1.96247, 0.359951, 220.568, -0.000976562, -0.000976562, -0.000976562, -0.113281, 0.370117, -9.85156, 12.8.2021 17:43:30.387
825, 1.96247, 0.359951, 220.568, 0, -0.000976562, -0.000976562, -0.0634766, 0.344727, -9.86426, 12.8.2021 17:43:30.395
826, 1.96005, 0.36651, 220.568, -0.000976562, 0, -0.000976562, -0.0322266, 0.344727, -9.80859, 12.8.2021 17:43:30.403
827, 1.96005, 0.36651, 220.568, -0.00195312, -0.000976562, 0, -0.119141, 0.356445, -9.86816, 12.8.2021 17:43:30.411
828, 1.96005, 0.36651, 220.568, -0.000976562, -0.000976562, 0, 0.0078125, 0.339844, -9.85938, 12.8.2021 17:43:30.419
829, 1.96005, 0.36651, 220.568, -0.000976562, -0.000976562, -0.000976562, -0.0683594, 0.338867, -9.85059, 12.8.2021 17:43:30.427
830, 1.96005, 0.36651, 220.568, -0.00195312, 0, 0, -0.0683594, 0.355469, -9.83789, 12.8.2021 17:43:30.435
831, 1.9666, 0.368935, 220.568, -0.00195312, -0.000976562, 0, -0.0136719, 0.320312, -9.86426, 12.8.2021 17:43:30.443
832, 1.9666, 0.368935, 220.568, -0.000976562, 0, -0.000976562, -0.0986328, 0.328125, -9.80566, 12.8.2021 17:43:30.451
833, 1.96902, 0.362376, 220.568, -0.000976562, 0, -0.000976562, -0.0625, 0.326172, -9.80664, 12.8.2021 17:43:30.459
834, 1.96902, 0.362376, 220.568, -0.000976562, -0.000976562, -0.000976562, -0.0371094, 0.286133, -9.83887, 12.8.2021 17:43:30.467
835, 1.96902, 0.362376, 220.568, -0.000976562, 0, -0.000976562, -0.132812, 0.363281, -9.85645, 12.8.2021 17:43:30.475
836, 1.96902, 0.362376, 220.568, -0.000976562, -0.000976562, -0.000976562, -0.0439453, 0.336914, -9.83691, 12.8.2021 17:43:30.483
837, 1.96902, 0.362376, 220.568, -0.00195312, 0, -0.000976562, -0.0585938, 0.335938, -9.82715, 12.8.2021 17:43:30.491
838, 1.96902, 0.362376, 220.568, -0.000976562, 0, -0.000976562, -0.116211, 0.332031, -9.83789, 12.8.2021 17:43:30.499
839, 1.96902, 0.362376, 220.568, -0.000976562, 0, -0.000976562, -0.0322266, 0.307617, -9.82422, 12.8.2021 17:43:30.507
840, 1.96902, 0.362376, 220.568, -0.000976562, -0.00195312, -0.000976562, -0.0537109, 0.338867, -9.8457, 12.8.2021 17:43:30.515
841, 1.9666, 0.368935, 220.568, 0, -0.000976562, -0.000976562, -0.0585938, 0.360352, -9.8457, 12.8.2021 17:43:30.523
842, 1.9666, 0.368935, 220.568, -0.000976562, -0.000976562, -0.000976562, -0.0283203, 0.34668, -9.875, 12.8.2021 17:43:30.531
843, 1.96646, 0.369056, 220.577, 0, -0.000976562, -0.000976562, -0.123047, 0.357422, -9.8252, 12.8.2021 17:43:30.539
844, 1.9666, 0.368935, 220.568, -0.000976562, 0, 0, -0.0605469, 0.335938, -9.82227, 12.8.2021 17:43:30.547
845, 1.9666, 0.368935, 220.568, -0.000976562, 0, 0, -0.0126953, 0.355469, -9.83008, 12.8.2021 17:43:30.555
846, 1.9666, 0.368935, 220.568, -0.000976562, 0, -0.000976562, -0.146484, 0.34082, -9.81348, 12.8.2021 17:43:30.563
847, 1.9666, 0.368935, 220.568, -0.000976562, -0.000976562, 0, -0.0566406, 0.351562, -9.87598, 12.8.2021 17:43:30.571
848, 1.9666, 0.368935, 220.568, 0, -0.000976562, 0, -0.0517578, 0.336914, -9.83691, 12.8.2021 17:43:30.579
849, 1.9666, 0.368935, 220.568, 0, -0.00195312, -0.000976562, -0.118164, 0.362305, -9.82129, 12.8.2021 17:43:30.587
850, 1.9666, 0.368935, 220.568, 0, 0, -0.000976562, -0.0126953, 0.334961, -9.7832, 12.8.2021 17:43:30.595
851, 1.9666, 0.368935, 220.568, -0.000976562, -0.000976562, 0, -0.0751953, 0.320312, -9.8418, 12.8.2021 17:43:30.603
852, 1.97316, 0.37136, 220.568, 0, -0.000976562, 0, -0.0986328, 0.318359, -9.79688, 12.8.2021 17:43:30.611
853, 1.97316, 0.37136, 220.568, 0, -0.000976562, -0.000976562, -0.0205078, 0.320312, -9.85156, 12.8.2021 17:43:30.619
854, 1.97316, 0.37136, 220.568, -0.000976562, 0, -0.000976562, -0.134766, 0.34082, -9.80664, 12.8.2021 17:43:30.627
855, 1.97316, 0.37136, 220.568, -0.000976562, -0.00195312, -0.000976562, -0.0751953, 0.352539, -9.80957, 12.8.2021 17:43:30.635
856, 1.97316, 0.37136, 220.568, 0, -0.00195312, 0, -0.0439453, 0.302734, -9.83301, 12.8.2021 17:43:30.643
857, 1.97073, 0.377919, 220.568, 0, -0.000976562, 0, -0.125, 0.365234, -9.81836, 12.8.2021 17:43:30.651
858, 1.97073, 0.377919, 220.568, 0, -0.000976562, 0, -0.0439453, 0.333008, -9.80176, 12.8.2021 17:43:30.659
859, 1.97073, 0.377919, 220.568, 0, -0.000976562, 0, -0.0419922, 0.320312, -9.85156, 12.8.2021 17:43:30.667
860, 1.97073, 0.377919, 220.568, 0, 0, 0, -0.116211, 0.34668, -9.86621, 12.8.2021 17:43:30.673
861, 1.97073, 0.377919, 220.568, -0.000976562, 0, -0.000976562, -0.00390625, 0.333984, -9.83008, 12.8.2021 17:43:30.681
862, 1.97073, 0.377919, 220.568, 0, -0.00195312, -0.000976562, -0.0820312, 0.342773, -9.79102, 12.8.2021 17:43:30.689
863, 1.97073, 0.377919, 220.568, -0.000976562, -0.000976562, -0.000976562, -0.0703125, 0.328125, -9.80566, 12.8.2021 17:43:30.697
864, 1.97073, 0.377919, 220.568, -0.000976562, 0, 0, -0.0351562, 0.305664, -9.83301, 12.8.2021 17:43:30.705
865, 1.96831, 0.384479, 220.568, 0, -0.000976562, 0, -0.103516, 0.337891, -9.81445, 12.8.2021 17:43:30.713
866, 1.96831, 0.384479, 220.568, 0.000976562, 0, 0, -0.0732422, 0.317383, -9.83496, 12.8.2021 17:43:30.721
867, 1.96831, 0.384479, 220.568, 0, 0, -0.000976562, -0.0458984, 0.335938, -9.80859, 12.8.2021 17:43:30.729
868, 1.96831, 0.384479, 220.568, 0, -0.000976562, -0.000976562, -0.120117, 0.369141, -9.79004, 12.8.2021 17:43:30.737
869, 1.96831, 0.384479, 220.568, 0, 0, -0.000976562, -0.0615234, 0.341797, -9.86035, 12.8.2021 17:43:30.745
870, 1.96831, 0.384479, 220.568, 0, -0.000976562, 0, -0.0820312, 0.345703, -9.83105, 12.8.2021 17:43:30.753
871, 1.96831, 0.384479, 220.568, -0.000976562, -0.000976562, -0.000976562, -0.110352, 0.352539, -9.82324, 12.8.2021 17:43:30.761
872, 1.96831, 0.384479, 220.568, -0.000976562, -0.000976562, -0.000976562, 0.0136719, 0.323242, -9.80273, 12.8.2021 17:43:30.769
873, 1.96831, 0.384479, 220.568, 0, 0, 0, -0.103516, 0.332031, -9.83887, 12.8.2021 17:43:30.777
874, 1.96589, 0.391038, 220.568, 0, 0, -0.000976562, -0.108398, 0.347656, -9.81641, 12.8.2021 17:43:30.785
875, 1.96589, 0.391038, 220.568, 0, 0, -0.000976562, -0.0351562, 0.317383, -9.85449, 12.8.2021 17:43:30.793
876, 1.96589, 0.391038, 220.568, 0, 0, -0.000976562, -0.120117, 0.342773, -9.80469, 12.8.2021 17:43:30.801
877, 1.96589, 0.391038, 220.568, -0.000976562, 0, 0, -0.0703125, 0.348633, -9.83398, 12.8.2021 17:43:30.809
878, 1.96589, 0.391038, 220.568, -0.000976562, -0.000976562, 0, -0.046875, 0.333008, -9.86816, 12.8.2021 17:43:30.817
879, 1.96589, 0.391038, 220.568, 0, 0, -0.000976562, -0.111328, 0.34668, -9.84766, 12.8.2021 17:43:30.825
880, 1.96589, 0.391038, 220.568, 0, -0.000976562, -0.000976562, -0.0351562, 0.330078, -9.85156, 12.8.2021 17:43:30.833
881, 1.96589, 0.391038, 220.568, 0, -0.000976562, -0.000976562, -0.0673828, 0.34082, -9.8125, 12.8.2021 17:43:30.841
882, 1.96346, 0.397597, 220.568, 0, -0.000976562, 0, -0.106445, 0.356445, -9.85938, 12.8.2021 17:43:30.849
883, 1.96346, 0.397597, 220.568, 0, -0.000976562, 0, -0.00488281, 0.323242, -9.78613, 12.8.2021 17:43:30.857
884, 1.96346, 0.397597, 220.568, 0, -0.000976562, 0.000976562, -0.0966797, 0.334961, -9.85742, 12.8.2021 17:43:30.865
885, 1.96346, 0.397597, 220.568, 0, 0, 0, -0.0771484, 0.360352, -9.83594, 12.8.2021 17:43:30.873
886, 1.96346, 0.397597, 220.568, 0, 0, 0, -0.03125, 0.349609, -9.80176, 12.8.2021 17:43:30.881
887, 1.96346, 0.397597, 220.568, 0, 0, -0.000976562, -0.0986328, 0.358398, -9.83301, 12.8.2021 17:43:30.889
888, 1.96346, 0.397597, 220.568, 0, 0, -0.000976562, -0.0712891, 0.344727, -9.8623, 12.8.2021 17:43:30.897
889, 1.96346, 0.397597, 220.568, 0.000976562, 0.000976562, -0.000976562, -0.0556641, 0.334961, -9.79688, 12.8.2021 17:43:30.905
890, 1.96346, 0.397597, 220.568, 0.000976562, 0, -0.000976562, -0.118164, 0.341797, -9.83984, 12.8.2021 17:43:30.913
891, 1.96346, 0.397597, 220.568, 0, -0.000976562, -0.000976562, -0.0703125, 0.341797, -9.84375, 12.8.2021 17:43:30.921
892, 1.96346, 0.397597, 220.568, 0, -0.00195312, -0.000976562, -0.0683594, 0.320312, -9.86523, 12.8.2021 17:43:30.929
893, 1.96346, 0.397597, 220.568, -0.000976562, -0.000976562, 0, -0.101562, 0.353516, -9.85449, 12.8.2021 17:43:30.937
894, 1.97002, 0.400022, 220.568, 0, 0, 0.000976562, -0.00878906, 0.314453, -9.82422, 12.8.2021 17:43:30.945
895, 1.97002, 0.400022, 220.568, 0, 0, 0, -0.0849609, 0.332031, -9.86035, 12.8.2021 17:43:30.953
896, 1.9676, 0.406581, 220.568, 0.000976562, 0, 0, -0.0810547, 0.365234, -9.76465, 12.8.2021 17:43:30.961
897, 1.96727, 0.406563, 220.57, 0, -0.000976562, 0, -0.0205078, 0.330078, -9.86133, 12.8.2021 17:43:30.969
898, 1.96727, 0.406563, 220.57, 0.000976562, 0, -0.000976562, -0.110352, 0.355469, -9.81641, 12.8.2021 17:43:30.977
899, 1.9676, 0.406581, 220.568, 0, -0.000976562, 0, -0.0996094, 0.365234, -9.84668, 12.8.2021 17:43:30.985
900, 1.96727, 0.406563, 220.57, 0.000976562, 0, 0, -0.0126953, 0.321289, -9.82324, 12.8.2021 17:43:30.993
901, 1.96727, 0.406563, 220.57, 0, 0, 0, -0.112305, 0.352539, -9.79492, 12.8.2021 17:43:31.001
902, 1.96727, 0.406563, 220.57, 0, 0, 0, -0.0380859, 0.341797, -9.77344, 12.8.2021 17:43:31.009
903, 1.96727, 0.406563, 220.57, 0, -0.000976562, 0, -0.0537109, 0.324219, -9.82812, 12.8.2021 17:43:31.017
904, 1.96727, 0.406563, 220.57, 0, 0, -0.000976562, -0.110352, 0.357422, -9.7998, 12.8.2021 17:43:31.025
905, 1.96727, 0.406563, 220.57, 0, -0.000976562, -0.000976562, 0.000976562, 0.3125, -9.83398, 12.8.2021 17:43:31.033
906, 1.96727, 0.406563, 220.57, 0, -0.000976562, 0, -0.0869141, 0.323242, -9.79883, 12.8.2021 17:43:31.041
907, 1.96727, 0.406563, 220.57, -0.000976562, -0.000976562, -0.000976562, -0.0703125, 0.34082, -9.81543, 12.8.2021 17:43:31.049
908, 1.96727, 0.406563, 220.57, -0.000976562, -0.000976562, -0.000976562, -0.0341797, 0.301758, -9.80762, 12.8.2021 17:43:31.057
909, 1.9676, 0.406581, 220.568, -0.000976562, -0.000976562, -0.000976562, -0.105469, 0.335938, -9.80762, 12.8.2021 17:43:31.065
910, 1.9676, 0.406581, 220.568, -0.000976562, 0, 0, -0.0556641, 0.345703, -9.83203, 12.8.2021 17:43:31.073
911, 1.9676, 0.406581, 220.568, -0.00195312, -0.000976562, 0, -0.0488281, 0.319336, -9.83008, 12.8.2021 17:43:31.081
912, 1.9676, 0.406581, 220.568, 0, -0.000976562, -0.000976562, -0.115234, 0.350586, -9.81934, 12.8.2021 17:43:31.089
913, 1.9676, 0.406581, 220.568, -0.000976562, -0.000976562, -0.000976562, -0.0244141, 0.334961, -9.79688, 12.8.2021 17:43:31.097
914, 1.9676, 0.406581, 220.568, -0.000976562, 0, -0.000976562, -0.0458984, 0.333008, -9.81348, 12.8.2021 17:43:31.105
915, 1.9676, 0.406581, 220.568, 0, -0.000976562, 0, -0.100586, 0.34668, -9.78418, 12.8.2021 17:43:31.113
916, 1.9676, 0.406581, 220.568, -0.000976562, -0.000976562, 0, 0.00390625, 0.330078, -9.7998, 12.8.2021 17:43:31.121
917, 1.9676, 0.406581, 220.568, -0.000976562, -0.000976562, 0, -0.106445, 0.31543, -9.84863, 12.8.2021 17:43:31.129
918, 1.9676, 0.406581, 220.568, -0.000976562, -0.000976562, -0.000976562, -0.0830078, 0.349609, -9.86621, 12.8.2021 17:43:31.137
919, 1.9676, 0.406581, 220.568, -0.000976562, -0.000976562, -0.000976562, -0.0214844, 0.320312, -9.78125, 12.8.2021 17:43:31.145
920, 1.9676, 0.406581, 220.568, 0, 0, 0, -0.116211, 0.349609, -9.86621, 12.8.2021 17:43:31.153
921, 1.97002, 0.400022, 220.568, -0.000976562, 0, 0, -0.0722656, 0.338867, -9.82715, 12.8.2021 17:43:31.161
922, 1.96346, 0.397597, 220.568, -0.000976562, 0, 0, -0.0341797, 0.319336, -9.81836, 12.8.2021 17:43:31.169
923, 1.96313, 0.397578, 220.57, -0.000976562, -0.000976562, 0, -0.101562, 0.355469, -9.83594, 12.8.2021 17:43:31.177
924, 1.96313, 0.397578, 220.57, 0, 0, -0.000976562, -0.015625, 0.302734, -9.81738, 12.8.2021 17:43:31.185
925, 1.96313, 0.397578, 220.57, -0.000976562, -0.000976562, 0, -0.0488281, 0.311523, -9.80957, 12.8.2021 17:43:31.193
926, 1.96313, 0.397578, 220.57, -0.00195312, -0.000976562, -0.000976562, -0.0966797, 0.345703, -9.8291, 12.8.2021 17:43:31.201
927, 1.96346, 0.397597, 220.568, -0.000976562, -0.000976562, -0.000976562, 0.00390625, 0.314453, -9.82422, 12.8.2021 17:43:31.209
928, 1.96346, 0.397597, 220.568, -0.000976562, -0.000976562, -0.000976562, -0.0566406, 0.332031, -9.8584, 12.8.2021 17:43:31.217
929, 1.96346, 0.397597, 220.568, -0.000976562, -0.00195312, -0.000976562, -0.0849609, 0.350586, -9.84082, 12.8.2021 17:43:31.225
930, 1.96346, 0.397597, 220.568, -0.000976562, -0.000976562, -0.00195312, -0.0195312, 0.328125, -9.79492, 12.8.2021 17:43:31.233
931, 1.96346, 0.397597, 220.568, 0, -0.000976562, 0, -0.103516, 0.348633, -9.82812, 12.8.2021 17:43:31.241
932, 1.95691, 0.395172, 220.568, -0.000976562, 0, 0, -0.100586, 0.358398, -9.78125, 12.8.2021 17:43:31.249
933, 1.95691, 0.395172, 220.568, -0.000976562, 0, -0.000976562, -0.0537109, 0.327148, -9.8418, 12.8.2021 17:43:31.257
934, 1.95691, 0.395172, 220.568, -0.000976562, -0.000976562, -0.000976562, -0.151367, 0.358398, -9.84863, 12.8.2021 17:43:31.265
935, 1.95691, 0.395172, 220.568, -0.000976562, -0.000976562, -0.000976562, -0.0341797, 0.332031, -9.77832, 12.8.2021 17:43:31.273
936, 1.95691, 0.395172, 220.568, -0.00195312, -0.000976562, 0, -0.0439453, 0.319336, -9.80664, 12.8.2021 17:43:31.281
937, 1.95691, 0.395172, 220.568, -0.000976562, -0.000976562, 0, -0.0839844, 0.349609, -9.78613, 12.8.2021 17:43:31.289
938, 1.95933, 0.388613, 220.568, -0.000976562, -0.00195312, -0.000976562, -0.0107422, 0.333984, -9.82324, 12.8.2021 17:43:31.297
939, 1.95691, 0.395172, 220.568, 0, -0.00195312, 0, -0.0898438, 0.34375, -9.83398, 12.8.2021 17:43:31.305
940, 1.95691, 0.395172, 220.568, -0.000976562, -0.000976562, -0.000976562, -0.0869141, 0.374023, -9.82324, 12.8.2021 17:43:31.313
941, 1.95933, 0.388613, 220.568, -0.00195312, -0.000976562, 0, -0.0302734, 0.34082, -9.83203, 12.8.2021 17:43:31.321
942, 1.95933, 0.388613, 220.568, -0.000976562, 0, 0, -0.131836, 0.324219, -9.8125, 12.8.2021 17:43:31.329
943, 1.95933, 0.388613, 220.568, -0.00195312, 0, -0.000976562, -0.0751953, 0.350586, -9.83887, 12.8.2021 17:43:31.337
944, 1.95933, 0.388613, 220.568, -0.00195312, -0.000976562, 0, -0.0566406, 0.341797, -9.86523, 12.8.2021 17:43:31.345
945, 1.95933, 0.388613, 220.568, -0.000976562, -0.000976562, -0.000976562, -0.134766, 0.355469, -9.83984, 12.8.2021 17:43:31.353
946, 1.95933, 0.388613, 220.568, -0.000976562, -0.000976562, 0, -0.0537109, 0.348633, -9.8457, 12.8.2021 17:43:31.361
947, 1.95933, 0.388613, 220.568, 0, -0.00195312, 0, -0.0605469, 0.319336, -9.83691, 12.8.2021 17:43:31.369
948, 1.95933, 0.388613, 220.568, 0, -0.000976562, -0.000976562, -0.09375, 0.333984, -9.81543, 12.8.2021 17:43:31.377
949, 1.96589, 0.391038, 220.568, -0.000976562, 0, 0, 0.00585938, 0.291016, -9.8252, 12.8.2021 17:43:31.385
950, 1.96589, 0.391038, 220.568, -0.000976562, 0.000976562, -0.000976562, -0.0556641, 0.338867, -9.82715, 12.8.2021 17:43:31.393
951, 1.96589, 0.391038, 220.568, -0.000976562, 0, -0.000976562, -0.0712891, 0.359375, -9.87402, 12.8.2021 17:43:31.401
952, 1.96589, 0.391038, 220.568, -0.00195312, -0.000976562, -0.000976562, -0.0195312, 0.321289, -9.80664, 12.8.2021 17:43:31.409
953, 1.96589, 0.391038, 220.568, -0.000976562, -0.000976562, 0, -0.0966797, 0.323242, -9.85547, 12.8.2021 17:43:31.417
954, 1.96589, 0.391038, 220.568, 0, 0, 0, -0.0556641, 0.344727, -9.79883, 12.8.2021 17:43:31.425
955, 1.96589, 0.391038, 220.568, -0.000976562, -0.000976562, 0, -0.0507812, 0.316406, -9.82129, 12.8.2021 17:43:31.433
956, 1.96589, 0.391038, 220.568, 0, -0.000976562, -0.000976562, -0.123047, 0.336914, -9.85254, 12.8.2021 17:43:31.441
957, 1.96589, 0.391038, 220.568, -0.000976562, -0.000976562, -0.000976562, -0.0410156, 0.336914, -9.77539, 12.8.2021 17:43:31.449
958, 1.96589, 0.391038, 220.568, -0.00195312, -0.000976562, 0, -0.0458984, 0.342773, -9.79688, 12.8.2021 17:43:31.457
959, 1.96589, 0.391038, 220.568, -0.00195312, -0.000976562, 0, -0.0917969, 0.345703, -9.80566, 12.8.2021 17:43:31.465
960, 1.96589, 0.391038, 220.568, -0.000976562, 0, 0, -0.0214844, 0.337891, -9.87695, 12.8.2021 17:43:31.473
961, 1.96556, 0.391019, 220.57, -0.00195312, 0.000976562, 0, -0.0742188, 0.308594, -9.79688, 12.8.2021 17:43:31.481
962, 1.96556, 0.391019, 220.57, -0.00195312, -0.000976562, -0.000976562, -0.0800781, 0.338867, -9.84082, 12.8.2021 17:43:31.489
963, 1.96556, 0.391019, 220.57, -0.000976562, -0.000976562, 0, -0.000976562, 0.318359, -9.79785, 12.8.2021 17:43:31.497
964, 1.96556, 0.391019, 220.57, -0.000976562, -0.000976562, 0, -0.110352, 0.378906, -9.81543, 12.8.2021 17:43:31.505
965, 1.96556, 0.391019, 220.57, -0.000976562, -0.000976562, -0.000976562, -0.0488281, 0.339844, -9.79883, 12.8.2021 17:43:31.513
966, 1.959, 0.388594, 220.57, -0.000976562, -0.000976562, -0.000976562, -0.0390625, 0.329102, -9.83008, 12.8.2021 17:43:31.521
967, 1.959, 0.388594, 220.57, -0.000976562, -0.000976562, -0.000976562, -0.0791016, 0.328125, -9.77734, 12.8.2021 17:43:31.529
968, 1.959, 0.388594, 220.57, -0.000976562, 0, 0, -0.0566406, 0.329102, -9.83496, 12.8.2021 17:43:31.537
969, 1.96143, 0.382034, 220.57, 0, 0, 0, -0.0585938, 0.314453, -9.82812, 12.8.2021 17:43:31.545
970, 1.96143, 0.382034, 220.57, 0, 0, 0, -0.108398, 0.345703, -9.82129, 12.8.2021 17:43:31.553
971, 1.96143, 0.382034, 220.57, 0, -0.000976562, -0.000976562, -0.0390625, 0.345703, -9.83203, 12.8.2021 17:43:31.561
972, 1.96143, 0.382034, 220.57, 0, 0, 0, -0.09375, 0.333008, -9.7959, 12.8.2021 17:43:31.569
973, 1.96143, 0.382034, 220.57, 0.000976562, -0.000976562, 0, -0.0556641, 0.370117, -9.83594, 12.8.2021 17:43:31.577
974, 1.96143, 0.382034, 220.57, 0.000976562, -0.000976562, 0.000976562, -0.000976562, 0.304688, -9.81055, 12.8.2021 17:43:31.585
975, 1.96143, 0.382034, 220.57, 0, -0.000976562, 0, -0.0996094, 0.354492, -9.87598, 12.8.2021 17:43:31.593
976, 1.96143, 0.382034, 220.57, 0, -0.000976562, -0.000976562, -0.0556641, 0.34082, -9.80859, 12.8.2021 17:43:31.601
977, 1.96143, 0.382034, 220.57, -0.000976562, -0.000976562, 0, -0.0449219, 0.338867, -9.84863, 12.8.2021 17:43:31.609
978, 1.96143, 0.382034, 220.57, 0, -0.000976562, -0.000976562, -0.115234, 0.347656, -9.80762, 12.8.2021 17:43:31.617
979, 1.96143, 0.382034, 220.57, 0, -0.000976562, 0, -0.0556641, 0.320312, -9.78711, 12.8.2021 17:43:31.625
980, 1.96143, 0.382034, 220.57, 0, -0.000976562, -0.000976562, -0.0537109, 0.334961, -9.8584, 12.8.2021 17:43:31.631
981, 1.96143, 0.382034, 220.57, 0, 0, -0.00195312, -0.113281, 0.336914, -9.85254, 12.8.2021 17:43:31.639
982, 1.96143, 0.382034, 220.57, 0, 0, 0, -0.0224609, 0.34082, -9.80859, 12.8.2021 17:43:31.647
983, 1.96385, 0.375474, 220.57, 0, 0, 0, -0.0869141, 0.358398, -9.84766, 12.8.2021 17:43:31.655
984, 1.96385, 0.375474, 220.57, 0, 0, 0, -0.0810547, 0.361328, -9.7793, 12.8.2021 17:43:31.663
985, 1.96385, 0.375474, 220.57, 0, -0.000976562, 0, -0.000976562, 0.333984, -9.82617, 12.8.2021 17:43:31.671
986, 1.96385, 0.375474, 220.57, 0, -0.000976562, 0, -0.110352, 0.347656, -9.80762, 12.8.2021 17:43:31.679
987, 1.96385, 0.375474, 220.57, 0, -0.000976562, 0, -0.0644531, 0.332031, -9.77051, 12.8.2021 17:43:31.687
988, 1.96385, 0.375474, 220.57, 0.000976562, -0.00195312, 0, -0.0556641, 0.324219, -9.83008, 12.8.2021 17:43:31.695
989, 1.96385, 0.375474, 220.57, 0, -0.000976562, -0.000976562, -0.0800781, 0.345703, -9.81934, 12.8.2021 17:43:31.703
990, 1.96385, 0.375474, 220.57, 0, 0, 0, -0.0507812, 0.361328, -9.79785, 12.8.2021 17:43:31.711
991, 1.96385, 0.375474, 220.57, 0.000976562, 0, -0.000976562, -0.0556641, 0.342773, -9.81543, 12.8.2021 17:43:31.719
992, 1.96385, 0.375474, 220.57, 0, -0.000976562, -0.000976562, -0.103516, 0.322266, -9.83594, 12.8.2021 17:43:31.727
993, 1.96385, 0.375474, 220.57, 0, -0.000976562, 0, -0.0078125, 0.331055, -9.81152, 12.8.2021 17:43:31.735
994, 1.96385, 0.375474, 220.57, 0.000976562, -0.000976562, -0.000976562, -0.0771484, 0.341797, -9.78418, 12.8.2021 17:43:31.743
995, 1.96385, 0.375474, 220.57, 0, -0.000976562, -0.000976562, -0.0419922, 0.336914, -9.85156, 12.8.2021 17:43:31.751
996, 1.96385, 0.375474, 220.57, 0, 0, -0.000976562, -0.00878906, 0.338867, -9.82812, 12.8.2021 17:43:31.759
997, 1.96385, 0.375474, 220.57, 0, 0, 0, -0.0634766, 0.361328, -9.85742, 12.8.2021 17:43:31.767
998, 1.96385, 0.375474, 220.57, 0, -0.000976562, 0, -0.0537109, 0.333984, -9.83691, 12.8.2021 17:43:31.775
999, 1.96385, 0.375474, 220.57, 0, -0.000976562, 0.000976562, -0.0400391, 0.339844, -9.8584, 12.8.2021 17:43:31.783
1000, 1.96385, 0.375474, 220.57, 0.000976562, 0, 0, -0.114258, 0.341797, -9.85938, 12.8.2021 17:43:31.791
1001, 1.96385, 0.375474, 220.57, -0.000976562, -0.000976562, 0, -0.0371094, 0.333008, -9.80859, 12.8.2021 17:43:31.799
1002, 1.96627, 0.368915, 220.57, -0.00195312, -0.000976562, -0.000976562, -0.046875, 0.325195, -9.84863, 12.8.2021 17:43:31.807
1003, 1.96627, 0.368915, 220.57, -0.00195312, 0, -0.000976562, -0.101562, 0.371094, -9.87012, 12.8.2021 17:43:31.815
1004, 1.96627, 0.368915, 220.57, -0.000976562, 0, -0.000976562, -0.0224609, 0.333984, -9.8252, 12.8.2021 17:43:31.823
1005, 1.96627, 0.368915, 220.57, -0.000976562, 0, 0, -0.0800781, 0.335938, -9.8291, 12.8.2021 17:43:31.831
1006, 1.96627, 0.368915, 220.57, 0, -0.000976562, -0.000976562, -0.0849609, 0.338867, -9.83105, 12.8.2021 17:43:31.839
1007, 1.96627, 0.368915, 220.57, 0, -0.000976562, -0.00195312, -0.0244141, 0.307617, -9.81641, 12.8.2021 17:43:31.847
1008, 1.96627, 0.368915, 220.57, -0.000976562, 0, 0, -0.0966797, 0.34082, -9.8291, 12.8.2021 17:43:31.855
1009, 1.96627, 0.368915, 220.57, 0, -0.000976562, -0.000976562, -0.0556641, 0.359375, -9.81445, 12.8.2021 17:43:31.863
1010, 1.96869, 0.362355, 220.57, 0, -0.000976562, 0, -0.0449219, 0.330078, -9.86816, 12.8.2021 17:43:31.871
1011, 1.96869, 0.362355, 220.57, -0.000976562, -0.000976562, 0, -0.0917969, 0.350586, -9.82617, 12.8.2021 17:43:31.879
1012, 1.96869, 0.362355, 220.57, -0.000976562, -0.000976562, 0.000976562, -0.0410156, 0.354492, -9.79883, 12.8.2021 17:43:31.887
1013, 1.96869, 0.362355, 220.57, -0.000976562, 0, 0, -0.0292969, 0.318359, -9.79785, 12.8.2021 17:43:31.895
1014, 1.96869, 0.362355, 220.57, -0.000976562, 0, 0, -0.0966797, 0.362305, -9.82812, 12.8.2021 17:43:31.903
1015, 1.96869, 0.362355, 220.57, 0, -0.000976562, 0, -0.00390625, 0.333008, -9.81836, 12.8.2021 17:43:31.911
1016, 1.96869, 0.362355, 220.57, 0, -0.000976562, 0, -0.0703125, 0.337891, -9.81543, 12.8.2021 17:43:31.919
1017, 1.96869, 0.362355, 220.57, -0.000976562, 0, 0, -0.101562, 0.355469, -9.83301, 12.8.2021 17:43:31.927
1018, 1.96869, 0.362355, 220.57, 0.00195312, 0, 0, -0.0195312, 0.299805, -9.80762, 12.8.2021 17:43:31.935
1019, 1.96869, 0.362355, 220.57, -0.000976562, 0, 0, -0.125, 0.348633, -9.83301, 12.8.2021 17:43:31.943
1020, 1.97112, 0.355795, 220.57, -0.00195312, 0, -0.000976562, -0.0703125, 0.367188, -9.82812, 12.8.2021 17:43:31.951
1021, 1.97112, 0.355795, 220.57, 0, -0.000976562, -0.000976562, -0.0351562, 0.365234, -9.83594, 12.8.2021 17:43:31.959
1022, 1.97112, 0.355795, 220.57, -0.000976562, 0, 0, -0.121094, 0.361328, -9.85352, 12.8.2021 17:43:31.967
1023, 1.97112, 0.355795, 220.57, -0.000976562, 0, 0, -0.0429688, 0.356445, -9.87891, 12.8.2021 17:43:31.975
1024, 1.97112, 0.355795, 220.57, -0.000976562, 0, 0, -0.046875, 0.322266, -9.85156, 12.8.2021 17:43:31.983
1025, 1.97112, 0.355795, 220.57, -0.000976562, -0.000976562, 0, -0.0849609, 0.350586, -9.83789, 12.8.2021 17:43:31.991
1026, 1.97767, 0.35822, 220.57, -0.000976562, 0, 0, 0.0107422, 0.320312, -9.8457, 12.8.2021 17:43:31.999
1027, 1.97767, 0.35822, 220.57, -0.000976562, -0.00195312, 0, -0.0732422, 0.335938, -9.8291, 12.8.2021 17:43:32.007
1028, 1.97767, 0.35822, 220.57, -0.000976562, -0.000976562, 0, -0.0722656, 0.400391, -9.80664, 12.8.2021 17:43:32.015
1029, 1.97767, 0.35822, 220.57, -0.000976562, -0.000976562, 0, -0.00683594, 0.322266, -9.85449, 12.8.2021 17:43:32.023
1030, 1.97767, 0.35822, 220.57, -0.000976562, -0.000976562, -0.000976562, -0.118164, 0.365234, -9.84668, 12.8.2021 17:43:32.031
1031, 1.97767, 0.35822, 220.57, -0.000976562, -0.000976562, -0.000976562, -0.0507812, 0.335938, -9.81055, 12.8.2021 17:43:32.039
1032, 1.97767, 0.35822, 220.57, -0.000976562, -0.000976562, -0.000976562, -0.0234375, 0.344727, -9.86328, 12.8.2021 17:43:32.047
1033, 1.97767, 0.35822, 220.57, -0.000976562, -0.000976562, -0.000976562, -0.113281, 0.341797, -9.85254, 12.8.2021 17:43:32.055
1034, 1.98423, 0.360645, 220.57, -0.000976562, -0.000976562, 0, -0.0410156, 0.339844, -9.79883, 12.8.2021 17:43:32.063
1035, 1.98423, 0.360645, 220.57, -0.00195312, 0, -0.000976562, -0.0488281, 0.335938, -9.80664, 12.8.2021 17:43:32.071
1036, 1.98423, 0.360645, 220.57, -0.000976562, 0, 0, -0.0976562, 0.311523, -9.87695, 12.8.2021 17:43:32.079
1037, 1.98665, 0.354085, 220.571, -0.000976562, -0.000976562, 0, -0.00585938, 0.330078, -9.7998, 12.8.2021 17:43:32.087
1038, 1.98665, 0.354085, 220.571, -0.000976562, -0.000976562, 0, -0.0761719, 0.335938, -9.88574, 12.8.2021 17:43:32.095
1039, 1.98665, 0.354085, 220.571, -0.000976562, -0.000976562, -0.000976562, -0.0537109, 0.326172, -9.82324, 12.8.2021 17:43:32.103
1040, 1.98665, 0.354085, 220.571, -0.000976562, -0.00195312, 0, -0.0224609, 0.319336, -9.83496, 12.8.2021 17:43:32.111
1041, 1.98665, 0.354085, 220.571, -0.000976562, -0.000976562, -0.000976562, -0.118164, 0.338867, -9.82129, 12.8.2021 17:43:32.119
