Seq, Rot x, Rot y, Rot z, Vel x, Vel y, Vel z, Acc x, Acc y, Acc z, Time(m.d.y h:m:s.ms)
0, 2.01072, 0.436748, 161.848, 0, -0.000976562, 0, -0.131836, 0.383789, -9.79688, 12.8.2021 17:14:17.718
1, 2.01072, 0.436748, 161.848, -0.000976562, 0, 0, -0.0585938, 0.345703, -9.81543, 12.8.2021 17:14:17.719
2, 2.01072, 0.436748, 161.848, 0, -0.000976562, 0, -0.0429688, 0.330078, -9.77344, 12.8.2021 17:14:17.727
3, 2.01072, 0.436748, 161.848, -0.000976562, -0.000976562, 0, -0.117188, 0.349609, -9.79492, 12.8.2021 17:14:17.735
4, 2.01072, 0.436748, 161.848, 0, 0, -0.000976562, -0.0224609, 0.342773, -9.79492, 12.8.2021 17:14:17.743
5, 2.01072, 0.436748, 161.848, 0.000976562, -0.000976562, -0.000976562, -0.0742188, 0.334961, -9.78711, 12.8.2021 17:14:17.751
6, 2.01072, 0.436748, 161.848, 0, 0, -0.000976562, -0.0888672, 0.364258, -9.7998, 12.8.2021 17:14:17.759
7, 2.01652, 0.42874, 161.848, -0.000976562, 0, 0, -0.0078125, 0.375977, -9.8125, 12.8.2021 17:14:17.767
8, 2.01652, 0.42874, 161.848, 0, 0, 0, -0.09375, 0.364258, -9.7998, 12.8.2021 17:14:17.775
9, 2.01652, 0.42874, 161.848, 0, 0, 0, -0.116211, 0.348633, -9.83594, 12.8.2021 17:14:17.783
10, 2.01652, 0.42874, 161.848, -0.000976562, 0, 0, -0.0439453, 0.31543, -9.8418, 12.8.2021 17:14:17.791
11, 2.01652, 0.42874, 161.848, 0, 0, 0, -0.135742, 0.356445, -9.86328, 12.8.2021 17:14:17.799
12, 2.02343, 0.427637, 161.848, 0, 0, -0.000976562, -0.0732422, 0.334961, -9.86035, 12.8.2021 17:14:17.807
13, 2.02343, 0.427637, 161.848, -0.000976562, 0, -0.000976562, -0.0566406, 0.322266, -9.83691, 12.8.2021 17:14:17.815
14, 2.02343, 0.427637, 161.848, -0.00195312, 0, -0.000976562, -0.143555, 0.383789, -9.7959, 12.8.2021 17:14:17.823
15, 2.02343, 0.427637, 161.848, -0.000976562, 0, -0.000976562, -0.0322266, 0.350586, -9.83887, 12.8.2021 17:14:17.831
16, 2.02343, 0.427637, 161.848, -0.000976562, 0, -0.000976562, -0.0703125, 0.324219, -9.82031, 12.8.2021 17:14:17.839
17, 2.02343, 0.427637, 161.848, 0, 0.000976562, 0, -0.117188, 0.359375, -9.80176, 12.8.2021 17:14:17.847
18, 2.02343, 0.427637, 161.848, 0, -0.000976562, 0, -0.0371094, 0.30957, -9.82812, 12.8.2021 17:14:17.855
19, 2.02343, 0.427637, 161.848, -0.00195312, 0, -0.000976562, -0.100586, 0.366211, -9.79492, 12.8.2021 17:14:17.863
20, 2.02453, 0.434543, 161.848, 0, 0, 0, -0.0917969, 0.34375, -9.8291, 12.8.2021 17:14:17.871
21, 2.02453, 0.434543, 161.848, -0.000976562, -0.000976562, -0.00195312, -0.0419922, 0.297852, -9.81934, 12.8.2021 17:14:17.879
22, 2.02453, 0.434543, 161.848, 0.00195312, 0, -0.000976562, -0.125, 0.347656, -9.79785, 12.8.2021 17:14:17.887
23, 2.01763, 0.435645, 161.848, 0.000976562, 0, 0, -0.0634766, 0.375, -9.83301, 12.8.2021 17:14:17.895
24, 2.01763, 0.435645, 161.848, -0.00195312, 0, -0.000976562, -0.0566406, 0.327148, -9.84863, 12.8.2021 17:14:17.903
25, 2.01763, 0.435645, 161.848, 0, -0.000976562, 0, -0.103516, 0.369141, -9.80176, 12.8.2021 17:14:17.911
26, 2.01763, 0.435645, 161.848, 0, -0.000976562, 0, -0.0205078, 0.331055, -9.81641, 12.8.2021 17:14:17.919
27, 2.01763, 0.435645, 161.848, 0.000976562, 0, 0, -0.078125, 0.320312, -9.84375, 12.8.2021 17:14:17.927
28, 2.01763, 0.435645, 161.848, 0.000976562, 0, 0, -0.0888672, 0.331055, -9.81934, 12.8.2021 17:14:17.935
29, 2.01763, 0.435645, 161.848, -0.000976562, 0, -0.000976562, -0.0126953, 0.34082, -9.82812, 12.8.2021 17:14:17.943
30, 2.01652, 0.42874, 161.848, 0, -0.000976562, 0, -0.0898438, 0.354492, -9.86426, 12.8.2021 17:14:17.951
31, 2.01652, 0.42874, 161.848, 0, -0.000976562, 0, -0.0605469, 0.345703, -9.82031, 12.8.2021 17:14:17.959
32, 2.01652, 0.42874, 161.848, 0, -0.000976562, 0, -0.0078125, 0.316406, -9.8125, 12.8.2021 17:14:17.967
33, 2.01652, 0.42874, 161.848, 0.000976562, -0.000976562, -0.000976562, -0.134766, 0.338867, -9.84277, 12.8.2021 17:14:17.975
34, 2.00962, 0.429842, 161.849, -0.000976562, -0.000976562, -0.00195312, -0.046875, 0.333984, -9.82715, 12.8.2021 17:14:17.983
35, 2.00852, 0.422937, 161.849, -0.000976562, 0, -0.000976562, -0.0371094, 0.339844, -9.8584, 12.8.2021 17:14:17.991
36, 2.00852, 0.422937, 161.849, 0.000976562, -0.000976562, -0.000976562, -0.117188, 0.354492, -9.79297, 12.8.2021 17:14:17.999
37, 2.00852, 0.422937, 161.849, -0.000976562, -0.000976562, -0.000976562, -0.00683594, 0.351562, -9.86035, 12.8.2021 17:14:18.007
38, 2.00852, 0.422937, 161.849, -0.000976562, -0.000976562, -0.00195312, -0.0537109, 0.34082, -9.80859, 12.8.2021 17:14:18.015
39, 2.00742, 0.416031, 161.849, -0.000976562, 0, -0.000976562, -0.103516, 0.369141, -9.80664, 12.8.2021 17:14:18.023
40, 2.00745, 0.416148, 161.856, 0.000976562, 0, -0.000976562, -0.0107422, 0.328125, -9.80664, 12.8.2021 17:14:18.031
41, 2.00745, 0.416148, 161.856, -0.000976562, 0, -0.000976562, -0.0888672, 0.342773, -9.8125, 12.8.2021 17:14:18.039
42, 2.00745, 0.416148, 161.856, 0, -0.000976562, 0, -0.0927734, 0.366211, -9.86133, 12.8.2021 17:14:18.047
43, 2.00635, 0.409243, 161.856, -0.00195312, -0.000976562, 0, -0.0410156, 0.328125, -9.79199, 12.8.2021 17:14:18.055
44, 2.00635, 0.409243, 161.856, 0, -0.00195312, 0, -0.108398, 0.362305, -9.82812, 12.8.2021 17:14:18.063
45, 2.00635, 0.409243, 161.856, -0.00195312, -0.000976562, -0.000976562, -0.0634766, 0.34375, -9.82422, 12.8.2021 17:14:18.071
46, 2.00635, 0.409243, 161.856, -0.00195312, 0, -0.000976562, -0.0654297, 0.339844, -9.79883, 12.8.2021 17:14:18.079
47, 2.01325, 0.408141, 161.856, -0.000976562, -0.00195312, -0.000976562, -0.123047, 0.350586, -9.81836, 12.8.2021 17:14:18.087
48, 2.01325, 0.408141, 161.856, 0, 0, -0.000976562, -0.0419922, 0.322266, -9.83496, 12.8.2021 17:14:18.095
49, 2.00635, 0.409243, 161.856, -0.000976562, -0.000976562, -0.000976562, -0.0917969, 0.34082, -9.81445, 12.8.2021 17:14:18.103
50, 2.00635, 0.409243, 161.856, -0.000976562, 0, -0.000976562, -0.113281, 0.358398, -9.84668, 12.8.2021 17:14:18.111
51, 2.00635, 0.409243, 161.856, -0.000976562, 0, 0, -0.0351562, 0.327148, -9.8418, 12.8.2021 17:14:18.119
52, 2.00635, 0.409243, 161.856, -0.000976562, -0.000976562, 0, -0.0986328, 0.34082, -9.83105, 12.8.2021 17:14:18.127
53, 2.00635, 0.409243, 161.856, -0.00195312, -0.000976562, -0.000976562, -0.0839844, 0.339844, -9.78906, 12.8.2021 17:14:18.135
54, 2.00745, 0.416148, 161.856, -0.00195312, -0.000976562, 0, -0.0410156, 0.301758, -9.80957, 12.8.2021 17:14:18.143
55, 2.00745, 0.416148, 161.856, -0.000976562, 0, 0, -0.143555, 0.361328, -9.79199, 12.8.2021 17:14:18.151
56, 2.00742, 0.416031, 161.849, -0.000976562, 0, 0, -0.0488281, 0.374023, -9.8125, 12.8.2021 17:14:18.159
57, 2.00742, 0.416031, 161.849, -0.00195312, 0.000976562, -0.000976562, -0.0615234, 0.350586, -9.84375, 12.8.2021 17:14:18.167
58, 2.00742, 0.416031, 161.849, -0.00195312, -0.000976562, 0, -0.116211, 0.351562, -9.85938, 12.8.2021 17:14:18.175
59, 2.00742, 0.416031, 161.849, -0.000976562, -0.000976562, 0, -0.0214844, 0.320312, -9.86816, 12.8.2021 17:14:18.183
60, 2.00742, 0.416031, 161.849, -0.000976562, -0.000976562, 0, -0.0800781, 0.336914, -9.86426, 12.8.2021 17:14:18.191
61, 2.00742, 0.416031, 161.849, -0.000976562, -0.000976562, 0, -0.0634766, 0.355469, -9.83887, 12.8.2021 17:14:18.199
62, 2.00742, 0.416031, 161.849, -0.000976562, 0.000976562, -0.000976562, -0.0517578, 0.329102, -9.82715, 12.8.2021 17:14:18.207
63, 2.00742, 0.416031, 161.849, -0.000976562, 0, 0, -0.131836, 0.352539, -9.79492, 12.8.2021 17:14:18.215
64, 2.00742, 0.416031, 161.849, 0, 0, 0, -0.0576172, 0.354492, -9.81055, 12.8.2021 17:14:18.221
65, 2.00742, 0.416031, 161.849, -0.000976562, -0.000976562, 0, -0.0605469, 0.338867, -9.82031, 12.8.2021 17:14:18.229
66, 2.00742, 0.416031, 161.849, -0.000976562, 0, 0, -0.107422, 0.349609, -9.77441, 12.8.2021 17:14:18.237
67, 2.00742, 0.416031, 161.849, -0.000976562, 0, -0.000976562, -0.0439453, 0.302734, -9.82324, 12.8.2021 17:14:18.245
68, 2.00742, 0.416031, 161.849, -0.00195312, -0.000976562, -0.000976562, -0.0703125, 0.335938, -9.81055, 12.8.2021 17:14:18.253
69, 2.00742, 0.416031, 161.849, -0.000976562, 0, -0.000976562, -0.106445, 0.384766, -9.84668, 12.8.2021 17:14:18.261
70, 2.00742, 0.416031, 161.849, -0.000976562, -0.000976562, 0, -0.0322266, 0.34668, -9.85059, 12.8.2021 17:14:18.269
71, 2.00852, 0.422937, 161.849, -0.000976562, -0.000976562, 0, -0.103516, 0.348633, -9.83789, 12.8.2021 17:14:18.277
72, 2.00852, 0.422937, 161.849, -0.000976562, 0, -0.000976562, -0.0898438, 0.353516, -9.83789, 12.8.2021 17:14:18.285
73, 2.00852, 0.422937, 161.849, -0.000976562, -0.000976562, 0, -0.0517578, 0.307617, -9.82812, 12.8.2021 17:14:18.293
74, 2.00852, 0.422937, 161.849, -0.00195312, -0.000976562, 0, -0.12207, 0.352539, -9.81445, 12.8.2021 17:14:18.301
75, 2.00852, 0.422937, 161.849, -0.000976562, 0, 0, -0.0683594, 0.370117, -9.83105, 12.8.2021 17:14:18.309
76, 2.00852, 0.422937, 161.849, -0.000976562, 0, 0, -0.0625, 0.350586, -9.8125, 12.8.2021 17:14:18.317
77, 2.00852, 0.422937, 161.849, 0, -0.000976562, 0, -0.136719, 0.34375, -9.82324, 12.8.2021 17:14:18.325
78, 2.00962, 0.429842, 161.849, 0, 0, 0, -0.0341797, 0.345703, -9.83203, 12.8.2021 17:14:18.333
79, 2.00962, 0.429842, 161.849, 0, 0, 0, -0.0771484, 0.327148, -9.83398, 12.8.2021 17:14:18.341
80, 2.00962, 0.429842, 161.849, 0, 0, 0, -0.137695, 0.358398, -9.84668, 12.8.2021 17:14:18.349
81, 2.00962, 0.429842, 161.849, 0, 0, -0.000976562, -0.0175781, 0.301758, -9.80957, 12.8.2021 17:14:18.357
82, 2.00962, 0.429842, 161.849, 0, -0.000976562, -0.000976562, -0.0869141, 0.345703, -9.83594, 12.8.2021 17:14:18.365
83, 2.00962, 0.429842, 161.849, 0, -0.00195312, -0.000976562, -0.0703125, 0.376953, -9.81641, 12.8.2021 17:14:18.373
84, 2.00962, 0.429842, 161.849, 0.000976562, -0.00195312, 0, -0.0302734, 0.348633, -9.86035, 12.8.2021 17:14:18.381
85, 2.00962, 0.429842, 161.849, 0, 0, 0, -0.139648, 0.338867, -9.83789, 12.8.2021 17:14:18.389
86, 2.00962, 0.429842, 161.849, 0, 0, 0.000976562, -0.0673828, 0.333008, -9.80566, 12.8.2021 17:14:18.397
87, 2.00962, 0.429842, 161.849, 0, -0.000976562, 0, -0.0146484, 0.330078, -9.78516, 12.8.2021 17:14:18.405
88, 2.01072, 0.436748, 161.848, 0, -0.000976562, -0.000976562, -0.136719, 0.357422, -9.82031, 12.8.2021 17:14:18.413
89, 2.01072, 0.436748, 161.848, 0, 0, -0.000976562, -0.0488281, 0.360352, -9.82227, 12.8.2021 17:14:18.421
90, 2.01072, 0.436748, 161.848, -0.000976562, -0.000976562, -0.000976562, -0.0791016, 0.369141, -9.79785, 12.8.2021 17:14:18.429
91, 2.01072, 0.436748, 161.848, -0.000976562, -0.000976562, 0, -0.0898438, 0.345703, -9.8291, 12.8.2021 17:14:18.437
92, 2.01072, 0.436748, 161.848, -0.000976562, -0.00195312, -0.000976562, -0.0322266, 0.34375, -9.83203, 12.8.2021 17:14:18.445
93, 2.01072, 0.436748, 161.848, 0, -0.000976562, 0, -0.113281, 0.30957, -9.82715, 12.8.2021 17:14:18.453
94, 2.01072, 0.436748, 161.848, 0.000976562, 0, 0, -0.0839844, 0.347656, -9.81738, 12.8.2021 17:14:18.461
95, 2.01072, 0.436748, 161.848, -0.000976562, -0.000976562, 0, -0.0439453, 0.299805, -9.82617, 12.8.2021 17:14:18.469
96, 2.01072, 0.436748, 161.848, -0.000976562, -0.00195312, 0, -0.110352, 0.362305, -9.82129, 12.8.2021 17:14:18.477
97, 2.01072, 0.436748, 161.848, -0.000976562, 0, 0, -0.0566406, 0.368164, -9.8457, 12.8.2021 17:14:18.485
98, 2.01072, 0.436748, 161.848, -0.000976562, -0.000976562, -0.000976562, -0.0517578, 0.34375, -9.83203, 12.8.2021 17:14:18.493
99, 2.01072, 0.436748, 161.848, 0, 0, -0.000976562, -0.136719, 0.349609, -9.77832, 12.8.2021 17:14:18.501
100, 2.01072, 0.436748, 161.848, -0.000976562, 0, 0, -0.0478516, 0.320312, -9.7832, 12.8.2021 17:14:18.509
101, 2.01072, 0.436748, 161.848, 0, 0, 0, -0.0917969, 0.324219, -9.82715, 12.8.2021 17:14:18.517
102, 2.01072, 0.436748, 161.848, -0.000976562, -0.000976562, -0.000976562, -0.125, 0.349609, -9.80176, 12.8.2021 17:14:18.525
103, 2.01072, 0.436748, 161.848, 0, -0.000976562, -0.000976562, -0.0273438, 0.362305, -9.80566, 12.8.2021 17:14:18.533
104, 2.01072, 0.436748, 161.848, -0.000976562, 0, -0.000976562, -0.0898438, 0.375, -9.83496, 12.8.2021 17:14:18.541
105, 2.01183, 0.443653, 161.848, 0, -0.000976562, 0, -0.0742188, 0.359375, -9.79297, 12.8.2021 17:14:18.549
106, 2.01183, 0.443653, 161.848, 0, 0, -0.000976562, -0.0419922, 0.30957, -9.83301, 12.8.2021 17:14:18.557
107, 2.01873, 0.442551, 161.848, -0.000976562, -0.000976562, -0.000976562, -0.118164, 0.363281, -9.83301, 12.8.2021 17:14:18.565
108, 2.01873, 0.442551, 161.848, 0, 0, -0.000976562, -0.0585938, 0.321289, -9.82031, 12.8.2021 17:14:18.573
109, 2.01072, 0.436748, 161.848, 0.00195312, 0, -0.000976562, -0.0537109, 0.331055, -9.81055, 12.8.2021 17:14:18.581
110, 2.01183, 0.443653, 161.848, 0, -0.000976562, -0.000976562, -0.12793, 0.373047, -9.84375, 12.8.2021 17:14:18.589
111, 2.01183, 0.443653, 161.848, -0.000976562, -0.000976562, -0.000976562, -0.0292969, 0.334961, -9.80176, 12.8.2021 17:14:18.597
112, 2.01183, 0.443653, 161.848, -0.000976562, -0.000976562, 0, -0.0654297, 0.327148, -9.8418, 12.8.2021 17:14:18.605
113, 2.01072, 0.436748, 161.848, -0.000976562, 0, 0, -0.101562, 0.331055, -9.82227, 12.8.2021 17:14:18.613
114, 2.01072, 0.436748, 161.848, 0.000976562, 0, 0, -0.0419922, 0.31543, -9.86133, 12.8.2021 17:14:18.621
115, 2.01072, 0.436748, 161.848, 0, 0, 0, -0.0751953, 0.322266, -9.85059, 12.8.2021 17:14:18.629
116, 2.01072, 0.436748, 161.848, -0.000976562, 0, 0, -0.0693359, 0.342773, -9.79102, 12.8.2021 17:14:18.637
117, 2.01072, 0.436748, 161.848, 0, 0, -0.000976562, -0.00390625, 0.322266, -9.82812, 12.8.2021 17:14:18.645
118, 2.00962, 0.429842, 161.849, 0, -0.000976562, 0, -0.125, 0.34375, -9.82324, 12.8.2021 17:14:18.653
119, 2.00272, 0.430945, 161.849, 0, -0.000976562, -0.000976562, -0.0537109, 0.347656, -9.81738, 12.8.2021 17:14:18.661
120, 2.00272, 0.430945, 161.849, -0.000976562, -0.000976562, 0, -0.0351562, 0.338867, -9.85156, 12.8.2021 17:14:18.669
121, 2.00272, 0.430945, 161.849, 0, 0, -0.000976562, -0.103516, 0.362305, -9.82324, 12.8.2021 17:14:18.677
122, 2.00272, 0.430945, 161.849, 0, -0.000976562, 0, -0.0341797, 0.347656, -9.82715, 12.8.2021 17:14:18.685
123, 2.00162, 0.42404, 161.849, 0, -0.000976562, 0, -0.0703125, 0.354492, -9.80957, 12.8.2021 17:14:18.693
124, 2.00162, 0.42404, 161.849, -0.000976562, -0.000976562, 0, -0.09375, 0.348633, -9.8291, 12.8.2021 17:14:18.701
125, 2.00162, 0.42404, 161.849, 0, 0, 0, -0.03125, 0.344727, -9.78223, 12.8.2021 17:14:18.709
126, 2.00162, 0.42404, 161.849, 0, 0, 0, -0.0917969, 0.348633, -9.82422, 12.8.2021 17:14:18.717
127, 2.00162, 0.42404, 161.849, 0, 0, -0.000976562, -0.09375, 0.354492, -9.78613, 12.8.2021 17:14:18.725
128, 2.00051, 0.417134, 161.849, 0, 0, 0, -0.0224609, 0.314453, -9.82324, 12.8.2021 17:14:18.733
129, 2.00051, 0.417134, 161.849, 0.000976562, 0, -0.000976562, -0.103516, 0.375, -9.84668, 12.8.2021 17:14:18.741
130, 2.00742, 0.416031, 161.849, 0, -0.000976562, -0.00195312, -0.0488281, 0.353516, -9.83594, 12.8.2021 17:14:18.749
131, 2.00742, 0.416031, 161.849, 0, -0.000976562, 0, -0.0849609, 0.319336, -9.83008, 12.8.2021 17:14:18.757
132, 2.00742, 0.416031, 161.849, 0.000976562, -0.000976562, -0.000976562, -0.116211, 0.366211, -9.86328, 12.8.2021 17:14:18.765
133, 2.00742, 0.416031, 161.849, -0.000976562, 0, 0, -0.0439453, 0.336914, -9.83691, 12.8.2021 17:14:18.773
134, 2.00742, 0.416031, 161.849, 0, -0.000976562, 0, -0.0908203, 0.337891, -9.79395, 12.8.2021 17:14:18.781
135, 2.00742, 0.416031, 161.849, 0, -0.000976562, 0, -0.113281, 0.358398, -9.84277, 12.8.2021 17:14:18.789
136, 2.00742, 0.416031, 161.849, 0.000976562, 0.000976562, 0, -0.0146484, 0.342773, -9.79199, 12.8.2021 17:14:18.797
137, 2.00742, 0.416031, 161.849, 0, 0, 0, -0.09375, 0.359375, -9.81445, 12.8.2021 17:14:18.805
138, 2.00742, 0.416031, 161.849, -0.000976562, 0, -0.000976562, -0.0849609, 0.327148, -9.84863, 12.8.2021 17:14:18.813
139, 2.00742, 0.416031, 161.849, 0.000976562, -0.000976562, 0, -0.0214844, 0.329102, -9.76465, 12.8.2021 17:14:18.821
140, 2.00742, 0.416031, 161.849, 0.000976562, 0, 0, -0.12793, 0.365234, -9.83203, 12.8.2021 17:14:18.829
141, 2.00742, 0.416031, 161.849, -0.000976562, -0.000976562, 0, -0.0498047, 0.351562, -9.8623, 12.8.2021 17:14:18.837
142, 2.00742, 0.416031, 161.849, 0, -0.000976562, -0.000976562, -0.0546875, 0.334961, -9.87012, 12.8.2021 17:14:18.845
143, 2.00742, 0.416031, 161.849, 0, -0.000976562, -0.000976562, -0.106445, 0.349609, -9.85645, 12.8.2021 17:14:18.853
144, 2.00742, 0.416031, 161.849, 0, -0.000976562, 0, -0.0517578, 0.325195, -9.84375, 12.8.2021 17:14:18.861
145, 2.00742, 0.416031, 161.849, 0.000976562, -0.000976562, 0.000976562, -0.0986328, 0.30957, -9.81836, 12.8.2021 17:14:18.869
146, 2.00742, 0.416031, 161.849, 0, -0.000976562, 0, -0.113281, 0.350586, -9.80664, 12.8.2021 17:14:18.877
147, 2.00742, 0.416031, 161.849, -0.000976562, 0, -0.000976562, -0.0253906, 0.302734, -9.83105, 12.8.2021 17:14:18.885
148, 2.00051, 0.417134, 161.849, 0, 0, -0.000976562, -0.103516, 0.350586, -9.81934, 12.8.2021 17:14:18.893
149, 2.00051, 0.417134, 161.849, 0, -0.000976562, -0.000976562, -0.0605469, 0.359375, -9.8125, 12.8.2021 17:14:18.901
150, 2.00051, 0.417134, 161.849, 0, 0, 0, -0.0585938, 0.336914, -9.83887, 12.8.2021 17:14:18.909
151, 2.00051, 0.417134, 161.849, 0, -0.000976562, 0, -0.105469, 0.360352, -9.81641, 12.8.2021 17:14:18.917
152, 2.00051, 0.417134, 161.849, 0, -0.000976562, 0, -0.0576172, 0.318359, -9.80371, 12.8.2021 17:14:18.925
153, 2.00051, 0.417134, 161.849, 0, 0, -0.000976562, -0.0751953, 0.3125, -9.83984, 12.8.2021 17:14:18.933
154, 2.00051, 0.417134, 161.849, 0, 0, -0.00195312, -0.0996094, 0.399414, -9.8457, 12.8.2021 17:14:18.941
155, 2.00162, 0.42404, 161.849, 0.000976562, 0, -0.000976562, -0.0517578, 0.365234, -9.84277, 12.8.2021 17:14:18.949
156, 2.00162, 0.42404, 161.849, 0, 0, 0, -0.0849609, 0.34082, -9.83398, 12.8.2021 17:14:18.957
157, 2.00162, 0.42404, 161.849, 0, 0, -0.000976562, -0.0654297, 0.360352, -9.83789, 12.8.2021 17:14:18.965
158, 2.00051, 0.417134, 161.849, 0, 0, 0, 0.0107422, 0.324219, -9.83789, 12.8.2021 17:14:18.973
159, 2.00051, 0.417134, 161.849, 0, 0, 0.000976562, -0.100586, 0.337891, -9.79395, 12.8.2021 17:14:18.981
160, 2.00051, 0.417134, 161.849, -0.000976562, -0.000976562, 0.000976562, -0.0800781, 0.334961, -9.85547, 12.8.2021 17:14:18.989
161, 2.00051, 0.417134, 161.849, 0, 0, -0.000976562, -0.046875, 0.310547, -9.83789, 12.8.2021 17:14:18.997
162, 2.00051, 0.417134, 161.849, 0, -0.000976562, -0.000976562, -0.132812, 0.345703, -9.82812, 12.8.2021 17:14:19.005
163, 2.00051, 0.417134, 161.849, 0, -0.000976562, -0.000976562, -0.0683594, 0.360352, -9.83398, 12.8.2021 17:14:19.013
164, 2.00051, 0.417134, 161.849, 0, 0, 0, -0.0869141, 0.307617, -9.8252, 12.8.2021 17:14:19.021
165, 2.00051, 0.417134, 161.849, 0.000976562, 0, 0.000976562, -0.111328, 0.34082, -9.82617, 12.8.2021 17:14:19.029
166, 2.00051, 0.417134, 161.849, 0.000976562, -0.000976562, 0, -0.0322266, 0.328125, -9.81152, 12.8.2021 17:14:19.037
167, 1.99361, 0.418237, 161.849, 0, -0.000976562, -0.000976562, -0.0859375, 0.333008, -9.78418, 12.8.2021 17:14:19.045
168, 1.99361, 0.418237, 161.849, 0, -0.000976562, -0.00195312, -0.108398, 0.326172, -9.81055, 12.8.2021 17:14:19.053
169, 1.99361, 0.418237, 161.849, 0.000976562, 0, -0.000976562, -0.0136719, 0.310547, -9.84766, 12.8.2021 17:14:19.061
170, 1.99361, 0.418237, 161.849, 0.000976562, 0, 0, -0.134766, 0.331055, -9.81934, 12.8.2021 17:14:19.069
171, 1.98781, 0.426245, 161.849, 0, -0.000976562, -0.000976562, -0.0703125, 0.317383, -9.82031, 12.8.2021 17:14:19.077
172, 1.98671, 0.419339, 161.849, 0, 0, -0.000976562, -0.0126953, 0.319336, -9.82129, 12.8.2021 17:14:19.085
173, 1.98671, 0.419339, 161.849, -0.00195312, 0.000976562, 0, -0.120117, 0.335938, -9.82129, 12.8.2021 17:14:19.093
174, 1.98671, 0.419339, 161.849, -0.000976562, 0, -0.000976562, -0.0273438, 0.337891, -9.79688, 12.8.2021 17:14:19.101
175, 1.97981, 0.420442, 161.849, -0.000976562, -0.000976562, -0.000976562, -0.0585938, 0.332031, -9.8418, 12.8.2021 17:14:19.109
176, 1.97981, 0.420442, 161.849, -0.000976562, -0.000976562, 0, -0.118164, 0.336914, -9.86133, 12.8.2021 17:14:19.117
177, 1.97981, 0.420442, 161.849, -0.00195312, -0.000976562, 0, -0.00585938, 0.326172, -9.82324, 12.8.2021 17:14:19.125
178, 1.97981, 0.420442, 161.849, -0.00195312, -0.000976562, 0, -0.0791016, 0.316406, -9.79199, 12.8.2021 17:14:19.133
179, 1.97981, 0.420442, 161.849, -0.00195312, -0.000976562, -0.000976562, -0.0839844, 0.359375, -9.8125, 12.8.2021 17:14:19.141
180, 1.97981, 0.420442, 161.849, -0.000976562, -0.000976562, 0, -0.0244141, 0.326172, -9.81348, 12.8.2021 17:14:19.149
181, 1.97291, 0.421545, 161.849, 0, -0.00195312, 0, -0.125, 0.333984, -9.82129, 12.8.2021 17:14:19.157
182, 1.97291, 0.421545, 161.849, -0.000976562, 0, -0.000976562, -0.0771484, 0.344727, -9.78418, 12.8.2021 17:14:19.165
183, 1.97291, 0.421545, 161.849, -0.00195312, 0, 0, -0.0556641, 0.345703, -9.82715, 12.8.2021 17:14:19.173
184, 1.97291, 0.421545, 161.849, -0.000976562, -0.000976562, -0.000976562, -0.116211, 0.368164, -9.83984, 12.8.2021 17:14:19.181
185, 1.97291, 0.421545, 161.849, -0.000976562, 0, -0.000976562, -0.0683594, 0.360352, -9.8291, 12.8.2021 17:14:19.189
186, 1.97291, 0.421545, 161.849, 0, 0, -0.000976562, -0.0419922, 0.31543, -9.8418, 12.8.2021 17:14:19.195
187, 1.97291, 0.421545, 161.849, -0.000976562, 0.000976562, -0.000976562, -0.09375, 0.329102, -9.8125, 12.8.2021 17:14:19.203
188, 1.9718, 0.414639, 161.849, -0.00195312, 0.000976562, -0.000976562, -0.00683594, 0.328125, -9.87109, 12.8.2021 17:14:19.211
189, 1.9718, 0.414639, 161.849, -0.000976562, 0, 0, -0.0771484, 0.333008, -9.78906, 12.8.2021 17:14:19.219
190, 1.9718, 0.414639, 161.849, 0, -0.000976562, 0, -0.0751953, 0.34082, -9.80566, 12.8.2021 17:14:19.227
191, 1.9718, 0.414639, 161.849, -0.000976562, 0, 0, -0.0253906, 0.336914, -9.85156, 12.8.2021 17:14:19.235
192, 1.9718, 0.414639, 161.849, -0.000976562, 0, 0, -0.109375, 0.334961, -9.76465, 12.8.2021 17:14:19.243
193, 1.9707, 0.407734, 161.849, -0.000976562, 0, 0, -0.0615234, 0.332031, -9.84863, 12.8.2021 17:14:19.251
194, 1.9707, 0.407734, 161.849, -0.000976562, 0.000976562, -0.000976562, -0.0585938, 0.336914, -9.83691, 12.8.2021 17:14:19.259
195, 1.9707, 0.407734, 161.849, -0.000976562, 0, 0, -0.15332, 0.342773, -9.79492, 12.8.2021 17:14:19.267
196, 1.9707, 0.407734, 161.849, -0.000976562, -0.000976562, -0.000976562, -0.0537109, 0.352539, -9.8291, 12.8.2021 17:14:19.275
197, 1.9707, 0.407734, 161.849, -0.000976562, -0.000976562, 0, -0.0751953, 0.352539, -9.82227, 12.8.2021 17:14:19.283
198, 1.9707, 0.407734, 161.849, -0.000976562, -0.000976562, 0, -0.103516, 0.362305, -9.80957, 12.8.2021 17:14:19.291
199, 1.9718, 0.414639, 161.849, -0.000976562, -0.000976562, -0.000976562, -0.0175781, 0.331055, -9.80664, 12.8.2021 17:14:19.299
200, 1.9718, 0.414639, 161.849, 0, -0.000976562, 0, -0.101562, 0.338867, -9.83789, 12.8.2021 17:14:19.307
201, 1.9718, 0.414639, 161.849, -0.000976562, -0.000976562, -0.000976562, -0.110352, 0.359375, -9.80664, 12.8.2021 17:14:19.315
202, 1.97871, 0.413537, 161.849, -0.00195312, -0.000976562, -0.000976562, -0.0390625, 0.318359, -9.79492, 12.8.2021 17:14:19.323
203, 1.97871, 0.413537, 161.849, -0.00195312, 0, -0.000976562, -0.108398, 0.34375, -9.84961, 12.8.2021 17:14:19.331
204, 1.97871, 0.413537, 161.849, -0.000976562, -0.000976562, -0.000976562, -0.0849609, 0.358398, -9.83105, 12.8.2021 17:14:19.339
205, 1.97871, 0.413537, 161.849, 0, -0.000976562, 0, -0.046875, 0.324219, -9.83691, 12.8.2021 17:14:19.347
206, 1.97981, 0.420442, 161.849, 0, 0, 0, -0.113281, 0.333984, -9.82422, 12.8.2021 17:14:19.355
207, 1.97981, 0.420442, 161.849, 0, 0.000976562, 0, -0.0439453, 0.333984, -9.83691, 12.8.2021 17:14:19.363
208, 1.97981, 0.420442, 161.849, 0, 0, -0.000976562, -0.0722656, 0.342773, -9.79395, 12.8.2021 17:14:19.371
209, 1.97981, 0.420442, 161.849, 0, 0.000976562, 0, -0.101562, 0.362305, -9.82812, 12.8.2021 17:14:19.379
210, 1.97981, 0.420442, 161.849, 0, 0, 0, 0.00488281, 0.323242, -9.86426, 12.8.2021 17:14:19.387
211, 1.97981, 0.420442, 161.849, -0.000976562, -0.000976562, 0, -0.0947266, 0.350586, -9.83594, 12.8.2021 17:14:19.395
212, 1.97981, 0.420442, 161.849, -0.000976562, -0.000976562, -0.000976562, -0.104492, 0.356445, -9.84961, 12.8.2021 17:14:19.403
213, 1.97981, 0.420442, 161.849, 0.000976562, -0.000976562, -0.000976562, -0.0175781, 0.319336, -9.82812, 12.8.2021 17:14:19.411
214, 1.97981, 0.420442, 161.849, 0, 0, -0.000976562, -0.0986328, 0.329102, -9.81934, 12.8.2021 17:14:19.419
215, 1.97981, 0.420442, 161.849, 0.000976562, 0, -0.000976562, -0.078125, 0.34375, -9.85059, 12.8.2021 17:14:19.427
216, 1.97871, 0.413537, 161.849, 0, 0, -0.000976562, -0.0341797, 0.369141, -9.79395, 12.8.2021 17:14:19.435
217, 1.98561, 0.412434, 161.849, -0.000976562, -0.000976562, 0, -0.106445, 0.37793, -9.86328, 12.8.2021 17:14:19.443
218, 1.98561, 0.412434, 161.849, 0, -0.000976562, 0, -0.0419922, 0.317383, -9.82324, 12.8.2021 17:14:19.451
219, 1.98561, 0.412434, 161.849, 0, 0, -0.000976562, -0.0664062, 0.332031, -9.85352, 12.8.2021 17:14:19.459
220, 1.98561, 0.412434, 161.849, -0.000976562, 0, 0, -0.0820312, 0.359375, -9.79297, 12.8.2021 17:14:19.467
221, 1.98561, 0.412434, 161.849, -0.000976562, -0.000976562, -0.000976562, -0.0195312, 0.321289, -9.80469, 12.8.2021 17:14:19.475
222, 1.98561, 0.412434, 161.849, -0.000976562, 0, 0, -0.0917969, 0.355469, -9.84277, 12.8.2021 17:14:19.483
223, 1.99251, 0.411331, 161.849, -0.000976562, -0.000976562, 0, -0.0839844, 0.367188, -9.81152, 12.8.2021 17:14:19.491
224, 1.99251, 0.411331, 161.849, 0, -0.00195312, -0.000976562, -0.00390625, 0.333984, -9.82812, 12.8.2021 17:14:19.499
225, 1.99251, 0.411331, 161.849, 0.000976562, -0.000976562, 0, -0.105469, 0.359375, -9.80957, 12.8.2021 17:14:19.507
226, 1.99251, 0.411331, 161.849, 0, 0, 0, -0.0703125, 0.348633, -9.84766, 12.8.2021 17:14:19.515
227, 1.99141, 0.404426, 161.849, 0.000976562, 0.000976562, -0.000976562, -0.046875, 0.341797, -9.84668, 12.8.2021 17:14:19.523
228, 1.99831, 0.403323, 161.849, 0, -0.000976562, -0.000976562, -0.128906, 0.356445, -9.79004, 12.8.2021 17:14:19.531
229, 1.99831, 0.403323, 161.849, 0, -0.000976562, -0.000976562, -0.0136719, 0.327148, -9.84277, 12.8.2021 17:14:19.539
230, 1.99831, 0.403323, 161.849, 0, -0.000976562, -0.000976562, -0.103516, 0.330078, -9.79102, 12.8.2021 17:14:19.547
231, 1.99831, 0.403323, 161.849, 0, 0, 0, -0.108398, 0.359375, -9.81152, 12.8.2021 17:14:19.555
232, 1.99831, 0.403323, 161.849, 0, 0, 0, -0.00585938, 0.323242, -9.80469, 12.8.2021 17:14:19.563
233, 1.99831, 0.403323, 161.849, 0, -0.000976562, -0.000976562, -0.115234, 0.350586, -9.82129, 12.8.2021 17:14:19.571
234, 1.99831, 0.403323, 161.849, 0, -0.000976562, -0.000976562, -0.0966797, 0.334961, -9.85547, 12.8.2021 17:14:19.579
235, 1.99831, 0.403323, 161.849, 0.000976562, 0, -0.000976562, -0.03125, 0.313477, -9.79297, 12.8.2021 17:14:19.587
236, 1.99941, 0.410228, 161.849, 0, 0, -0.000976562, -0.165039, 0.344727, -9.79199, 12.8.2021 17:14:19.595
237, 1.99941, 0.410228, 161.849, 0, 0, 0, -0.0849609, 0.345703, -9.82617, 12.8.2021 17:14:19.603
238, 1.99941, 0.410228, 161.849, 0, -0.000976562, 0, -0.0800781, 0.329102, -9.84082, 12.8.2021 17:14:19.611
239, 1.99941, 0.410228, 161.849, -0.00195312, 0, 0, -0.138672, 0.352539, -9.80469, 12.8.2021 17:14:19.619
240, 2.00051, 0.417134, 161.849, 0, 0, 0, -0.0371094, 0.34668, -9.84375, 12.8.2021 17:14:19.627
241, 2.00051, 0.417134, 161.849, 0, 0, 0, -0.0683594, 0.336914, -9.86523, 12.8.2021 17:14:19.635
242, 2.00051, 0.417134, 161.849, 0, -0.000976562, 0, -0.106445, 0.367188, -9.82324, 12.8.2021 17:14:19.643
243, 2.00162, 0.42404, 161.849, 0, -0.000976562, 0, -0.0664062, 0.332031, -9.84863, 12.8.2021 17:14:19.651
244, 2.00162, 0.42404, 161.849, 0, 0, 0, -0.101562, 0.333984, -9.81934, 12.8.2021 17:14:19.659
245, 1.99471, 0.425142, 161.849, 0.000976562, 0, -0.000976562, -0.0859375, 0.317383, -9.76562, 12.8.2021 17:14:19.667
246, 1.99471, 0.425142, 161.849, 0, 0, 0, -0.0488281, 0.323242, -9.80664, 12.8.2021 17:14:19.675
247, 1.99582, 0.432048, 161.849, 0, 0, 0, -0.120117, 0.376953, -9.83496, 12.8.2021 17:14:19.683
248, 1.99582, 0.432048, 161.849, 0, -0.000976562, 0, -0.0507812, 0.347656, -9.81055, 12.8.2021 17:14:19.691
249, 1.99582, 0.432048, 161.849, -0.00195312, 0, 0, -0.0517578, 0.341797, -9.86523, 12.8.2021 17:14:19.699
250, 1.99582, 0.432048, 161.849, 0, -0.000976562, -0.000976562, -0.115234, 0.397461, -9.80371, 12.8.2021 17:14:19.707
251, 2.00272, 0.430945, 161.849, 0, 0, 0, -0.0517578, 0.365234, -9.85059, 12.8.2021 17:14:19.715
252, 2.00272, 0.430945, 161.849, 0, 0, 0, -0.0722656, 0.345703, -9.81055, 12.8.2021 17:14:19.723
253, 2.00382, 0.437851, 161.848, -0.00195312, 0, 0, -0.110352, 0.34082, -9.82422, 12.8.2021 17:14:19.731
254, 2.00382, 0.437851, 161.848, -0.00195312, -0.000976562, 0, -0.0439453, 0.329102, -9.83203, 12.8.2021 17:14:19.739
255, 2.00382, 0.437851, 161.848, 0, 0, 0, -0.0888672, 0.342773, -9.80566, 12.8.2021 17:14:19.747
256, 2.00382, 0.437851, 161.848, 0, 0, 0, -0.0830078, 0.373047, -9.87109, 12.8.2021 17:14:19.755
257, 2.01072, 0.436748, 161.848, 0, 0, 0, -0.0517578, 0.358398, -9.85254, 12.8.2021 17:14:19.763
258, 2.01072, 0.436748, 161.848, 0, -0.000976562, 0.000976562, -0.0878906, 0.349609, -9.87793, 12.8.2021 17:14:19.771
259, 2.01072, 0.436748, 161.848, 0, 0, 0, -0.0371094, 0.363281, -9.83887, 12.8.2021 17:14:19.779
260, 2.01072, 0.436748, 161.848, 0.000976562, -0.000976562, -0.00195312, -0.0664062, 0.333984, -9.90234, 12.8.2021 17:14:19.787
261, 2.01072, 0.436748, 161.848, 0.000976562, 0, -0.000976562, -0.110352, 0.385742, -9.79883, 12.8.2021 17:14:19.795
262, 2.01763, 0.435645, 161.848, 0, -0.00195312, -0.000976562, -0.0195312, 0.352539, -9.80859, 12.8.2021 17:14:19.803
263, 2.01763, 0.435645, 161.848, 0.000976562, -0.000976562, 0, -0.0722656, 0.362305, -9.82617, 12.8.2021 17:14:19.811
264, 2.01763, 0.435645, 161.848, 0, -0.000976562, 0, -0.0957031, 0.378906, -9.80469, 12.8.2021 17:14:19.819
265, 2.01763, 0.435645, 161.848, -0.00195312, -0.000976562, 0, -0.0253906, 0.298828, -9.86914, 12.8.2021 17:14:19.827
266, 2.02453, 0.434543, 161.848, 0, -0.000976562, 0, -0.0488281, 0.333984, -9.83203, 12.8.2021 17:14:19.835
267, 2.02453, 0.434543, 161.848, 0, -0.000976562, -0.000976562, -0.0703125, 0.347656, -9.81934, 12.8.2021 17:14:19.843
268, 2.02343, 0.427637, 161.848, 0, -0.000976562, 0, -0.0322266, 0.316406, -9.81836, 12.8.2021 17:14:19.851
269, 2.02343, 0.427637, 161.848, 0, 0, 0, -0.131836, 0.37207, -9.81836, 12.8.2021 17:14:19.859
270, 2.02343, 0.427637, 161.848, 0, 0, 0, -0.0488281, 0.354492, -9.81055, 12.8.2021 17:14:19.867
271, 2.02343, 0.427637, 161.848, 0, 0, 0, -0.0820312, 0.305664, -9.83008, 12.8.2021 17:14:19.875
272, 2.02343, 0.427637, 161.848, 0, 0, 0, -0.105469, 0.360352, -9.81445, 12.8.2021 17:14:19.883
273, 2.02232, 0.420731, 161.849, 0, 0, -0.000976562, -0.0253906, 0.324219, -9.83008, 12.8.2021 17:14:19.891
274, 2.02232, 0.420731, 161.849, 0.000976562, -0.000976562, -0.000976562, -0.0898438, 0.345703, -9.83105, 12.8.2021 17:14:19.899
275, 2.02232, 0.420731, 161.849, 0, -0.000976562, -0.000976562, -0.0966797, 0.358398, -9.83594, 12.8.2021 17:14:19.907
276, 2.02232, 0.420731, 161.849, 0.000976562, 0, -0.000976562, -0.0224609, 0.347656, -9.79688, 12.8.2021 17:14:19.915
277, 2.02232, 0.420731, 161.849, 0, -0.000976562, 0, -0.118164, 0.352539, -9.81836, 12.8.2021 17:14:19.923
278, 2.02232, 0.420731, 161.849, 0, -0.000976562, 0, -0.0917969, 0.294922, -9.81641, 12.8.2021 17:14:19.931
279, 2.02232, 0.420731, 161.849, -0.00195312, 0, 0, -0.0625, 0.318359, -9.78027, 12.8.2021 17:14:19.939
280, 2.02232, 0.420731, 161.849, 0.000976562, 0, 0, -0.105469, 0.352539, -9.81641, 12.8.2021 17:14:19.947
281, 2.01542, 0.421834, 161.849, 0, 0, 0, -0.0322266, 0.292969, -9.82617, 12.8.2021 17:14:19.955
282, 2.01542, 0.421834, 161.849, 0, -0.000976562, 0, -0.0673828, 0.321289, -9.79883, 12.8.2021 17:14:19.963
283, 2.01542, 0.421834, 161.849, 0, -0.000976562, 0, -0.0888672, 0.357422, -9.79785, 12.8.2021 17:14:19.971
284, 2.00852, 0.422937, 161.849, 0.000976562, -0.000976562, 0, -0.00585938, 0.345703, -9.83984, 12.8.2021 17:14:19.979
285, 2.00852, 0.422937, 161.849, 0.000976562, -0.000976562, -0.000976562, -0.0771484, 0.324219, -9.82031, 12.8.2021 17:14:19.987
286, 2.00742, 0.416031, 161.849, 0.000976562, 0, -0.000976562, -0.0722656, 0.342773, -9.81738, 12.8.2021 17:14:19.995
287, 2.00742, 0.416031, 161.849, 0, 0, -0.000976562, -0.0322266, 0.329102, -9.8252, 12.8.2021 17:14:20.003
288, 2.00742, 0.416031, 161.849, -0.00195312, -0.000976562, 0, -0.134766, 0.341797, -9.85645, 12.8.2021 17:14:20.011
289, 2.00051, 0.417134, 161.849, -0.00195312, -0.000976562, 0, -0.0712891, 0.354492, -9.87109, 12.8.2021 17:14:20.019
290, 2.00051, 0.417134, 161.849, -0.00195312, 0, 0, -0.0419922, 0.336914, -9.84375, 12.8.2021 17:14:20.027
291, 2.00051, 0.417134, 161.849, -0.00195312, -0.000976562, 0, -0.126953, 0.355469, -9.81152, 12.8.2021 17:14:20.035
292, 2.00051, 0.417134, 161.849, -0.00195312, -0.000976562, 0, -0.0673828, 0.344727, -9.78906, 12.8.2021 17:14:20.043
293, 2.00051, 0.417134, 161.849, -0.00195312, -0.000976562, 0, -0.0605469, 0.362305, -9.81445, 12.8.2021 17:14:20.051
294, 2.00051, 0.417134, 161.849, 0, -0.00195312, -0.000976562, -0.123047, 0.378906, -9.82227, 12.8.2021 17:14:20.059
295, 2.00051, 0.417134, 161.849, 0, -0.000976562, 0, -0.0224609, 0.336914, -9.83984, 12.8.2021 17:14:20.067
296, 2.00742, 0.416031, 161.849, 0, 0, 0, -0.0878906, 0.366211, -9.85156, 12.8.2021 17:14:20.075
297, 2.00742, 0.416031, 161.849, 0, 0, 0, -0.0869141, 0.367188, -9.81445, 12.8.2021 17:14:20.083
298, 2.00742, 0.416031, 161.849, -0.00195312, -0.000976562, 0, -0.0292969, 0.345703, -9.81348, 12.8.2021 17:14:20.091
299, 2.00742, 0.416031, 161.849, 0, 0, 0, -0.113281, 0.345703, -9.82129, 12.8.2021 17:14:20.099
300, 2.00742, 0.416031, 161.849, 0, -0.000976562, 0, -0.0644531, 0.344727, -9.78711, 12.8.2021 17:14:20.107
301, 2.00742, 0.416031, 161.849, 0, -0.000976562, 0, -0.0419922, 0.345703, -9.83887, 12.8.2021 17:14:20.115
302, 2.00742, 0.416031, 161.849, 0, -0.000976562, 0, -0.125, 0.34082, -9.81641, 12.8.2021 17:14:20.123
303, 2.01542, 0.421834, 161.849, 0, -0.000976562, -0.000976562, -0.0517578, 0.31543, -9.83984, 12.8.2021 17:14:20.131
304, 2.00852, 0.422937, 161.849, 0.000976562, -0.000976562, -0.000976562, -0.0556641, 0.335938, -9.82715, 12.8.2021 17:14:20.139
305, 2.00852, 0.422937, 161.849, 0, 0, 0, -0.0898438, 0.34082, -9.8291, 12.8.2021 17:14:20.145
306, 2.00742, 0.416031, 161.849, 0, 0, 0, -0.0273438, 0.323242, -9.80469, 12.8.2021 17:14:20.153
307, 2.00742, 0.416031, 161.849, -0.00195312, -0.000976562, 0, -0.0791016, 0.34668, -9.77734, 12.8.2021 17:14:20.161
308, 2.00742, 0.416031, 161.849, 0, 0, -0.000976562, -0.113281, 0.357422, -9.80957, 12.8.2021 17:14:20.169
309, 2.00742, 0.416031, 161.849, 0, -0.00195312, 0, -0.0273438, 0.3125, -9.82812, 12.8.2021 17:14:20.177
310, 2.00742, 0.416031, 161.849, 0, -0.000976562, -0.000976562, -0.120117, 0.322266, -9.82422, 12.8.2021 17:14:20.185
311, 2.00742, 0.416031, 161.849, -0.00195312, -0.000976562, -0.000976562, -0.0839844, 0.359375, -9.80273, 12.8.2021 17:14:20.193
312, 2.00742, 0.416031, 161.849, 0, -0.000976562, 0, -0.0488281, 0.319336, -9.83301, 12.8.2021 17:14:20.201
313, 2.00852, 0.422937, 161.849, 0, -0.000976562, -0.000976562, -0.137695, 0.364258, -9.88867, 12.8.2021 17:14:20.209
314, 2.00852, 0.422937, 161.849, 0, -0.00195312, 0, -0.0205078, 0.317383, -9.83105, 12.8.2021 17:14:20.217
315, 2.00852, 0.422937, 161.849, 0, -0.000976562, -0.000976562, -0.0751953, 0.338867, -9.84375, 12.8.2021 17:14:20.225
316, 2.00162, 0.42404, 161.849, -0.00195312, -0.000976562, -0.000976562, -0.0849609, 0.353516, -9.83105, 12.8.2021 17:14:20.233
317, 2.00162, 0.42404, 161.849, 0, -0.000976562, 0, -0.0439453, 0.300781, -9.83789, 12.8.2021 17:14:20.241
318, 2.00162, 0.42404, 161.849, -0.00195312, 0, 0, -0.115234, 0.338867, -9.81934, 12.8.2021 17:14:20.249
319, 2.00162, 0.42404, 161.849, 0, -0.000976562, 0, -0.09375, 0.351562, -9.78809, 12.8.2021 17:14:20.257
320, 2.00162, 0.42404, 161.849, 0, -0.000976562, 0, -0.0224609, 0.342773, -9.81152, 12.8.2021 17:14:20.265
321, 2.00162, 0.42404, 161.849, 0, -0.000976562, -0.000976562, -0.123047, 0.365234, -9.83691, 12.8.2021 17:14:20.273
322, 2.00162, 0.42404, 161.849, 0, -0.000976562, 0, -0.0478516, 0.351562, -9.7959, 12.8.2021 17:14:20.281
323, 2.00162, 0.42404, 161.849, 0, -0.000976562, 0, -0.046875, 0.353516, -9.8623, 12.8.2021 17:14:20.289
324, 2.00162, 0.42404, 161.849, 0, -0.000976562, 0.000976562, -0.131836, 0.371094, -9.80176, 12.8.2021 17:14:20.297
325, 2.00162, 0.42404, 161.849, 0, -0.000976562, 0, -0.046875, 0.360352, -9.83887, 12.8.2021 17:14:20.305
326, 2.00162, 0.42404, 161.849, 0, -0.00195312, -0.000976562, -0.0703125, 0.337891, -9.81543, 12.8.2021 17:14:20.313
327, 2.00272, 0.430945, 161.849, 0, -0.000976562, 0, -0.126953, 0.361328, -9.79004, 12.8.2021 17:14:20.321
328, 2.00272, 0.430945, 161.849, 0, -0.000976562, 0, -0.0439453, 0.297852, -9.82422, 12.8.2021 17:14:20.329
329, 2.00272, 0.430945, 161.849, 0, -0.000976562, -0.000976562, -0.0966797, 0.314453, -9.80859, 12.8.2021 17:14:20.337
330, 2.00272, 0.430945, 161.849, -0.00195312, -0.000976562, -0.000976562, -0.0654297, 0.358398, -9.83789, 12.8.2021 17:14:20.345
331, 2.00272, 0.430945, 161.849, 0, 0, -0.000976562, -0.0371094, 0.327148, -9.85156, 12.8.2021 17:14:20.353
332, 2.00272, 0.430945, 161.849, 0, -0.000976562, -0.000976562, -0.115234, 0.357422, -9.81836, 12.8.2021 17:14:20.361
333, 2.00272, 0.430945, 161.849, 0, 0, 0, -0.0732422, 0.335938, -9.83203, 12.8.2021 17:14:20.369
334, 2.00272, 0.430945, 161.849, 0, -0.000976562, -0.000976562, -0.0703125, 0.362305, -9.82422, 12.8.2021 17:14:20.377
335, 2.00272, 0.430945, 161.849, 0.000976562, -0.000976562, -0.000976562, -0.09375, 0.357422, -9.80957, 12.8.2021 17:14:20.385
336, 2.00272, 0.430945, 161.849, 0, -0.000976562, 0, -0.0244141, 0.352539, -9.80371, 12.8.2021 17:14:20.393
337, 2.00272, 0.430945, 161.849, 0, 0, 0, -0.0683594, 0.331055, -9.83008, 12.8.2021 17:14:20.401
338, 2.00272, 0.430945, 161.849, 0, -0.000976562, -0.000976562, -0.0966797, 0.344727, -9.85742, 12.8.2021 17:14:20.409
339, 2.00272, 0.430945, 161.849, 0, -0.000976562, -0.000976562, -0.0361328, 0.318359, -9.7998, 12.8.2021 17:14:20.417
340, 2.00272, 0.430945, 161.849, 0, 0.000976562, -0.000976562, -0.0722656, 0.362305, -9.82617, 12.8.2021 17:14:20.425
341, 2.00272, 0.430945, 161.849, 0, -0.000976562, -0.000976562, -0.0703125, 0.375, -9.83594, 12.8.2021 17:14:20.433
342, 2.00162, 0.42404, 161.849, 0, -0.000976562, -0.000976562, -0.0341797, 0.317383, -9.82812, 12.8.2021 17:14:20.441
343, 2.00852, 0.422937, 161.849, 0, 0, 0, -0.115234, 0.34082, -9.82129, 12.8.2021 17:14:20.449
344, 2.00852, 0.422937, 161.849, -0.000976562, -0.000976562, 0, -0.0585938, 0.335938, -9.81543, 12.8.2021 17:14:20.457
345, 2.00852, 0.422937, 161.849, -0.000976562, -0.000976562, -0.000976562, -0.0634766, 0.307617, -9.82324, 12.8.2021 17:14:20.465
346, 2.00852, 0.422937, 161.849, -0.000976562, -0.000976562, -0.000976562, -0.125977, 0.339844, -9.84766, 12.8.2021 17:14:20.473
347, 2.00162, 0.42404, 161.849, -0.000976562, -0.000976562, -0.000976562, -0.0224609, 0.34082, -9.82812, 12.8.2021 17:14:20.481
348, 2.00162, 0.42404, 161.849, 0, 0.000976562, -0.000976562, -0.0605469, 0.333984, -9.8252, 12.8.2021 17:14:20.489
349, 2.00162, 0.42404, 161.849, 0, -0.000976562, -0.000976562, -0.101562, 0.365234, -9.82324, 12.8.2021 17:14:20.497
350, 2.00051, 0.417134, 161.849, 0, 0, 0, -0.0341797, 0.328125, -9.80176, 12.8.2021 17:14:20.505
351, 2.00051, 0.417134, 161.849, 0, 0, 0, -0.105469, 0.359375, -9.81152, 12.8.2021 17:14:20.513
352, 2.00051, 0.417134, 161.849, -0.000976562, 0.000976562, -0.000976562, -0.0605469, 0.335938, -9.81348, 12.8.2021 17:14:20.521
353, 2.00051, 0.417134, 161.849, 0, -0.000976562, -0.000976562, -0.0488281, 0.3125, -9.8418, 12.8.2021 17:14:20.529
354, 2.00055, 0.417251, 161.856, 0, 0.000976562, -0.000976562, -0.117188, 0.328125, -9.80566, 12.8.2021 17:14:20.537
355, 2.00055, 0.417251, 161.856, 0, 0.000976562, -0.000976562, -0.0751953, 0.350586, -9.82617, 12.8.2021 17:14:20.545
356, 2.00055, 0.417251, 161.856, 0, 0, 0, -0.0546875, 0.363281, -9.77734, 12.8.2021 17:14:20.553
357, 2.00055, 0.417251, 161.856, 0, -0.000976562, 0, -0.118164, 0.370117, -9.83008, 12.8.2021 17:14:20.561
358, 2.00055, 0.417251, 161.856, -0.000976562, -0.000976562, 0, -0.0273438, 0.329102, -9.83008, 12.8.2021 17:14:20.569
359, 2.00051, 0.417134, 161.849, -0.000976562, -0.000976562, 0, -0.0683594, 0.329102, -9.83691, 12.8.2021 17:14:20.577
360, 2.00051, 0.417134, 161.849, 0, 0, 0, -0.0869141, 0.352539, -9.80469, 12.8.2021 17:14:20.585
361, 2.00051, 0.417134, 161.849, 0, 0.00195312, -0.000976562, -0.0107422, 0.350586, -9.82031, 12.8.2021 17:14:20.593
362, 1.99941, 0.410228, 161.849, 0, 0, 0, -0.0820312, 0.360352, -9.84277, 12.8.2021 17:14:20.601
363, 2.00631, 0.409126, 161.849, -0.000976562, -0.000976562, 0, -0.0888672, 0.360352, -9.82129, 12.8.2021 17:14:20.609
364, 2.00631, 0.409126, 161.849, -0.000976562, -0.00195312, -0.000976562, -0.0488281, 0.324219, -9.82031, 12.8.2021 17:14:20.617
365, 2.00631, 0.409126, 161.849, 0, 0, 0, -0.108398, 0.355469, -9.82812, 12.8.2021 17:14:20.625
366, 2.00631, 0.409126, 161.849, -0.000976562, 0, 0, -0.0351562, 0.334961, -9.85156, 12.8.2021 17:14:20.633
367, 2.00631, 0.409126, 161.849, 0, 0, 0, -0.0820312, 0.324219, -9.83203, 12.8.2021 17:14:20.641
368, 2.00631, 0.409126, 161.849, 0.000976562, 0, -0.000976562, -0.105469, 0.375977, -9.7998, 12.8.2021 17:14:20.649
369, 2.00631, 0.409126, 161.849, 0.000976562, 0, 0, -0.0224609, 0.319336, -9.81934, 12.8.2021 17:14:20.657
370, 2.00631, 0.409126, 161.849, 0.000976562, 0, 0, -0.105469, 0.344727, -9.7998, 12.8.2021 17:14:20.665
371, 2.00631, 0.409126, 161.849, -0.000976562, -0.000976562, 0, -0.0976562, 0.34375, -9.74414, 12.8.2021 17:14:20.673
372, 2.00631, 0.409126, 161.849, -0.000976562, -0.000976562, 0, -0.0136719, 0.327148, -9.83301, 12.8.2021 17:14:20.681
373, 2.00631, 0.409126, 161.849, 0, 0, -0.000976562, -0.108398, 0.354492, -9.80664, 12.8.2021 17:14:20.689
374, 2.00631, 0.409126, 161.849, 0, 0, -0.000976562, -0.0751953, 0.354492, -9.80957, 12.8.2021 17:14:20.697
375, 2.00631, 0.409126, 161.849, 0.000976562, 0, -0.000976562, -0.0527344, 0.356445, -9.78711, 12.8.2021 17:14:20.705
376, 2.00631, 0.409126, 161.849, 0.000976562, -0.000976562, 0, -0.133789, 0.374023, -9.80176, 12.8.2021 17:14:20.713
377, 2.00631, 0.409126, 161.849, 0, -0.000976562, 0, -0.0830078, 0.336914, -9.85742, 12.8.2021 17:14:20.721
378, 2.00631, 0.409126, 161.849, 0, -0.000976562, 0, -0.0625, 0.304688, -9.80176, 12.8.2021 17:14:20.729
379, 2.00742, 0.416031, 161.849, 0, -0.000976562, 0, -0.137695, 0.356445, -9.8418, 12.8.2021 17:14:20.737
380, 2.00742, 0.416031, 161.849, 0, 0, 0, -0.0439453, 0.333008, -9.81348, 12.8.2021 17:14:20.745
381, 2.00742, 0.416031, 161.849, -0.000976562, -0.000976562, -0.000976562, -0.0820312, 0.314453, -9.82324, 12.8.2021 17:14:20.753
382, 2.00742, 0.416031, 161.849, 0, -0.000976562, -0.000976562, -0.0820312, 0.352539, -9.82422, 12.8.2021 17:14:20.761
383, 2.00742, 0.416031, 161.849, -0.000976562, -0.000976562, 0, -0.0371094, 0.337891, -9.82031, 12.8.2021 17:14:20.769
384, 2.00852, 0.422937, 161.849, -0.000976562, -0.000976562, 0, -0.0839844, 0.364258, -9.79785, 12.8.2021 17:14:20.777
385, 2.00852, 0.422937, 161.849, 0, 0, 0, -0.0654297, 0.321289, -9.80859, 12.8.2021 17:14:20.785
386, 2.00852, 0.422937, 161.849, 0, 0, 0, -0.0419922, 0.34082, -9.83496, 12.8.2021 17:14:20.793
387, 2.00852, 0.422937, 161.849, 0.000976562, -0.000976562, 0, -0.151367, 0.374023, -9.81738, 12.8.2021 17:14:20.801
388, 2.00852, 0.422937, 161.849, 0.000976562, 0, -0.000976562, -0.0556641, 0.316406, -9.80176, 12.8.2021 17:14:20.809
389, 2.00162, 0.42404, 161.849, 0, 0, -0.000976562, -0.0537109, 0.355469, -9.8291, 12.8.2021 17:14:20.817
390, 2.00162, 0.42404, 161.849, 0.000976562, 0, 0, -0.100586, 0.354492, -9.78125, 12.8.2021 17:14:20.825
391, 2.00162, 0.42404, 161.849, 0, 0, -0.000976562, -0.0175781, 0.311523, -9.81641, 12.8.2021 17:14:20.833
392, 2.00162, 0.42404, 161.849, 0, -0.000976562, -0.000976562, -0.0869141, 0.338867, -9.8291, 12.8.2021 17:14:20.841
393, 2.00162, 0.42404, 161.849, 0, -0.000976562, 0, -0.0888672, 0.366211, -9.79492, 12.8.2021 17:14:20.849
394, 2.00162, 0.42404, 161.849, 0, 0, 0, -0.0146484, 0.323242, -9.79297, 12.8.2021 17:14:20.857
395, 2.00162, 0.42404, 161.849, -0.000976562, -0.000976562, 0, -0.139648, 0.349609, -9.85645, 12.8.2021 17:14:20.865
396, 2.00162, 0.42404, 161.849, -0.000976562, 0, -0.000976562, -0.0683594, 0.358398, -9.85254, 12.8.2021 17:14:20.873
397, 2.00162, 0.42404, 161.849, 0, -0.000976562, 0, -0.00878906, 0.333984, -9.83008, 12.8.2021 17:14:20.881
398, 2.00852, 0.422937, 161.849, 0, 0, 0, -0.123047, 0.388672, -9.82715, 12.8.2021 17:14:20.889
399, 2.00852, 0.422937, 161.849, 0, 0.000976562, 0, -0.0322266, 0.360352, -9.84375, 12.8.2021 17:14:20.897
400, 2.00742, 0.416031, 161.849, 0, -0.000976562, 0, -0.0703125, 0.329102, -9.81543, 12.8.2021 17:14:20.905
401, 2.00742, 0.416031, 161.849, -0.000976562, -0.000976562, -0.000976562, -0.0966797, 0.355469, -9.83301, 12.8.2021 17:14:20.913
402, 2.00742, 0.416031, 161.849, -0.000976562, -0.000976562, -0.000976562, -0.0205078, 0.347656, -9.81836, 12.8.2021 17:14:20.921
403, 2.00742, 0.416031, 161.849, -0.000976562, -0.000976562, -0.000976562, -0.0849609, 0.363281, -9.83789, 12.8.2021 17:14:20.929
404, 2.01432, 0.414929, 161.849, -0.000976562, 0, -0.00195312, -0.0849609, 0.357422, -9.82129, 12.8.2021 17:14:20.937
405, 2.01432, 0.414929, 161.849, 0.000976562, -0.000976562, -0.000976562, -0.0419922, 0.345703, -9.82227, 12.8.2021 17:14:20.945
406, 2.01432, 0.414929, 161.849, 0, 0.000976562, 0, -0.115234, 0.352539, -9.82129, 12.8.2021 17:14:20.953
407, 2.01432, 0.414929, 161.849, 0, -0.000976562, 0, -0.0703125, 0.34375, -9.82227, 12.8.2021 17:14:20.961
408, 2.01432, 0.414929, 161.849, -0.00195312, -0.000976562, 0, -0.0605469, 0.302734, -9.82129, 12.8.2021 17:14:20.969
409, 2.01432, 0.414929, 161.849, -0.000976562, -0.00195312, -0.000976562, -0.113281, 0.348633, -9.82617, 12.8.2021 17:14:20.977
410, 2.01432, 0.414929, 161.849, -0.000976562, -0.000976562, -0.000976562, -0.0488281, 0.335938, -9.81836, 12.8.2021 17:14:20.985
411, 2.01432, 0.414929, 161.849, -0.000976562, 0, -0.000976562, -0.0605469, 0.323242, -9.79492, 12.8.2021 17:14:20.993
412, 2.01432, 0.414929, 161.849, 0, 0, 0, -0.108398, 0.338867, -9.84277, 12.8.2021 17:14:21.001
413, 2.01432, 0.414929, 161.849, 0, 0, 0.000976562, -0.0107422, 0.305664, -9.83398, 12.8.2021 17:14:21.009
414, 2.01432, 0.414929, 161.849, 0, 0, 0, -0.0820312, 0.365234, -9.84277, 12.8.2021 17:14:21.017
415, 2.01432, 0.414929, 161.849, -0.000976562, 0, -0.000976562, -0.101562, 0.353516, -9.83594, 12.8.2021 17:14:21.025
416, 2.01432, 0.414929, 161.849, 0, 0, 0, -0.0292969, 0.331055, -9.82031, 12.8.2021 17:14:21.033
417, 2.01432, 0.414929, 161.849, 0, 0, 0, -0.118164, 0.376953, -9.82324, 12.8.2021 17:14:21.041
418, 2.01432, 0.414929, 161.849, 0, 0, 0, -0.0654297, 0.371094, -9.79785, 12.8.2021 17:14:21.049
419, 2.01432, 0.414929, 161.849, -0.00195312, 0, 0, -0.0302734, 0.31543, -9.84961, 12.8.2021 17:14:21.057
420, 2.01432, 0.414929, 161.849, 0, 0.000976562, 0, -0.120117, 0.339844, -9.7959, 12.8.2021 17:14:21.065
421, 2.01432, 0.414929, 161.849, 0, -0.000976562, 0, -0.0576172, 0.369141, -9.80762, 12.8.2021 17:14:21.073
422, 2.01432, 0.414929, 161.849, 0, 0, 0, -0.0830078, 0.360352, -9.75781, 12.8.2021 17:14:21.081
423, 2.01432, 0.414929, 161.849, 0, -0.000976562, 0, -0.117188, 0.351562, -9.78613, 12.8.2021 17:14:21.089
424, 2.01432, 0.414929, 161.849, -0.000976562, -0.000976562, -0.000976562, -0.0322266, 0.34375, -9.82715, 12.8.2021 17:14:21.097
425, 2.01432, 0.414929, 161.849, -0.000976562, 0, -0.000976562, -0.108398, 0.376953, -9.81836, 12.8.2021 17:14:21.105
426, 2.01432, 0.414929, 161.849, 0, 0, 0, -0.0986328, 0.357422, -9.82324, 12.8.2021 17:14:21.111
427, 2.02122, 0.413826, 161.849, -0.000976562, 0, -0.000976562, -0.0292969, 0.328125, -9.80469, 12.8.2021 17:14:21.119
428, 2.02122, 0.413826, 161.849, 0, 0, 0, -0.110352, 0.325195, -9.77441, 12.8.2021 17:14:21.127
429, 2.02232, 0.420731, 161.849, -0.00195312, -0.000976562, 0, -0.0869141, 0.324219, -9.81055, 12.8.2021 17:14:21.137
430, 2.02232, 0.420731, 161.849, 0, -0.000976562, 0, -0.0556641, 0.342773, -9.79199, 12.8.2021 17:14:21.143
431, 2.02232, 0.420731, 161.849, 0, -0.000976562, 0, -0.128906, 0.387695, -9.78711, 12.8.2021 17:14:21.151
432, 2.02232, 0.420731, 161.849, 0, -0.000976562, 0, -0.0537109, 0.335938, -9.83008, 12.8.2021 17:14:21.159
433, 2.02232, 0.420731, 161.849, 0, 0.000976562, 0, -0.0556641, 0.34082, -9.82715, 12.8.2021 17:14:21.167
434, 2.02232, 0.420731, 161.849, 0.000976562, 0, -0.000976562, -0.0986328, 0.367188, -9.80664, 12.8.2021 17:14:21.175
435, 2.02343, 0.427637, 161.848, 0.000976562, -0.000976562, 0, -0.0302734, 0.336914, -9.84863, 12.8.2021 17:14:21.183
436, 2.02343, 0.427637, 161.848, 0, 0, -0.000976562, -0.104492, 0.341797, -9.85449, 12.8.2021 17:14:21.191
437, 2.02343, 0.427637, 161.848, 0.000976562, 0, -0.000976562, -0.0791016, 0.337891, -9.79883, 12.8.2021 17:14:21.199
438, 2.02343, 0.427637, 161.848, 0, 0, 0, -0.0390625, 0.338867, -9.82324, 12.8.2021 17:14:21.207
439, 2.02343, 0.427637, 161.848, -0.00195312, -0.000976562, -0.000976562, -0.129883, 0.371094, -9.79883, 12.8.2021 17:14:21.215
440, 2.02343, 0.427637, 161.848, -0.00195312, -0.000976562, -0.000976562, -0.0703125, 0.324219, -9.83496, 12.8.2021 17:14:21.223
441, 2.02343, 0.427637, 161.848, -0.00195312, -0.000976562, 0, -0.0439453, 0.3125, -9.82129, 12.8.2021 17:14:21.231
442, 2.02343, 0.427637, 161.848, -0.00195312, -0.000976562, -0.000976562, -0.125, 0.345703, -9.80664, 12.8.2021 17:14:21.239
443, 2.02343, 0.427637, 161.848, 0, -0.000976562, -0.000976562, -0.0537109, 0.337891, -9.81348, 12.8.2021 17:14:21.247
444, 2.02453, 0.434543, 161.848, 0.000976562, 0, -0.000976562, -0.0947266, 0.329102, -9.83887, 12.8.2021 17:14:21.255
445, 2.01763, 0.435645, 161.848, 0, 0.000976562, -0.000976562, -0.108398, 0.361328, -9.79785, 12.8.2021 17:14:21.263
446, 2.01763, 0.435645, 161.848, 0, 0, -0.000976562, -0.0244141, 0.337891, -9.79199, 12.8.2021 17:14:21.271
447, 2.01763, 0.435645, 161.848, 0, 0, -0.000976562, -0.09375, 0.350586, -9.81641, 12.8.2021 17:14:21.279
448, 2.01763, 0.435645, 161.848, 0, -0.000976562, -0.000976562, -0.0771484, 0.364258, -9.80762, 12.8.2021 17:14:21.287
449, 2.01763, 0.435645, 161.848, 0, 0, -0.000976562, -0.0292969, 0.318359, -9.78125, 12.8.2021 17:14:21.295
450, 2.01763, 0.435645, 161.848, 0, 0, -0.000976562, -0.118164, 0.334961, -9.85254, 12.8.2021 17:14:21.303
451, 2.01766, 0.435763, 161.856, 0, 0, 0, -0.0605469, 0.333008, -9.78711, 12.8.2021 17:14:21.311
452, 2.01763, 0.435645, 161.848, 0, -0.000976562, 0, -0.0341797, 0.360352, -9.8291, 12.8.2021 17:14:21.319
453, 2.01763, 0.435645, 161.848, 0, -0.000976562, 0, -0.117188, 0.34082, -9.7998, 12.8.2021 17:14:21.327
454, 2.01763, 0.435645, 161.848, -0.00195312, -0.00195312, 0, -0.0273438, 0.333008, -9.79688, 12.8.2021 17:14:21.335
455, 2.01763, 0.435645, 161.848, 0.000976562, -0.000976562, -0.000976562, -0.0634766, 0.355469, -9.82617, 12.8.2021 17:14:21.343
456, 2.01763, 0.435645, 161.848, 0.000976562, -0.000976562, 0, -0.0947266, 0.371094, -9.87012, 12.8.2021 17:14:21.351
457, 2.01652, 0.42874, 161.848, 0, 0, 0, -0.0302734, 0.351562, -9.85547, 12.8.2021 17:14:21.359
458, 2.01652, 0.42874, 161.848, 0, 0, -0.000976562, -0.119141, 0.356445, -9.86816, 12.8.2021 17:14:21.367
459, 2.01652, 0.42874, 161.848, 0, 0, -0.000976562, -0.0927734, 0.332031, -9.85742, 12.8.2021 17:14:21.375
460, 2.01652, 0.42874, 161.848, 0, -0.000976562, 0, -0.0400391, 0.305664, -9.85156, 12.8.2021 17:14:21.383
461, 2.01652, 0.42874, 161.848, -0.000976562, -0.000976562, 0.000976562, -0.111328, 0.328125, -9.8623, 12.8.2021 17:14:21.391
462, 2.00962, 0.429842, 161.849, -0.000976562, -0.000976562, 0, -0.046875, 0.333984, -9.84863, 12.8.2021 17:14:21.399
463, 2.00962, 0.429842, 161.849, -0.00195312, -0.000976562, -0.000976562, -0.0556641, 0.34082, -9.8252, 12.8.2021 17:14:21.407
464, 2.00962, 0.429842, 161.849, -0.00195312, -0.00195312, -0.000976562, -0.113281, 0.359375, -9.80469, 12.8.2021 17:14:21.415
465, 2.00962, 0.429842, 161.849, -0.00195312, -0.000976562, -0.000976562, -0.0244141, 0.314453, -9.80762, 12.8.2021 17:14:21.423
466, 2.00962, 0.429842, 161.849, -0.00195312, 0, -0.000976562, -0.0683594, 0.334961, -9.84863, 12.8.2021 17:14:21.431
467, 2.00962, 0.429842, 161.849, -0.000976562, 0.000976562, 0, -0.0820312, 0.348633, -9.83105, 12.8.2021 17:14:21.439
468, 2.00852, 0.422937, 161.849, -0.000976562, 0, 0, -0.0292969, 0.349609, -9.79199, 12.8.2021 17:14:21.447
469, 2.00852, 0.422937, 161.849, -0.000976562, 0.000976562, -0.000976562, -0.09375, 0.348633, -9.82617, 12.8.2021 17:14:21.455
470, 2.00852, 0.422937, 161.849, -0.000976562, 0, 0, -0.0732422, 0.34375, -9.83398, 12.8.2021 17:14:21.463
471, 2.00852, 0.422937, 161.849, -0.00195312, 0, -0.000976562, -0.0537109, 0.333008, -9.81348, 12.8.2021 17:14:21.471
472, 2.00852, 0.422937, 161.849, -0.00292969, 0, 0, -0.12207, 0.344727, -9.79785, 12.8.2021 17:14:21.479
473, 2.00852, 0.422937, 161.849, -0.00195312, 0, 0, -0.015625, 0.360352, -9.8252, 12.8.2021 17:14:21.487
474, 2.00742, 0.416031, 161.849, -0.00195312, -0.000976562, -0.000976562, -0.0644531, 0.34668, -9.79102, 12.8.2021 17:14:21.495
475, 2.00742, 0.416031, 161.849, -0.000976562, 0, 0, -0.125, 0.34082, -9.82617, 12.8.2021 17:14:21.503
476, 2.00742, 0.416031, 161.849, -0.000976562, 0, 0.000976562, -0.0410156, 0.333008, -9.81152, 12.8.2021 17:14:21.511
477, 2.00742, 0.416031, 161.849, -0.000976562, 0, 0, -0.0683594, 0.325195, -9.86523, 12.8.2021 17:14:21.519
478, 2.00742, 0.416031, 161.849, -0.000976562, -0.000976562, -0.000976562, -0.123047, 0.34082, -9.82422, 12.8.2021 17:14:21.527
479, 2.00742, 0.416031, 161.849, -0.000976562, -0.000976562, -0.000976562, -0.0605469, 0.326172, -9.80371, 12.8.2021 17:14:21.535
480, 2.00742, 0.416031, 161.849, -0.000976562, 0, -0.000976562, -0.161133, 0.360352, -9.83203, 12.8.2021 17:14:21.543
481, 2.00852, 0.422937, 161.849, -0.000976562, 0, 0, -0.0693359, 0.375977, -9.79785, 12.8.2021 17:14:21.551
482, 2.00852, 0.422937, 161.849, -0.00195312, -0.000976562, 0, -0.0439453, 0.333984, -9.82324, 12.8.2021 17:14:21.559
483, 2.00852, 0.422937, 161.849, -0.000976562, -0.000976562, -0.000976562, -0.131836, 0.34082, -9.81445, 12.8.2021 17:14:21.567
484, 2.00852, 0.422937, 161.849, -0.000976562, -0.000976562, 0, -0.0654297, 0.333984, -9.83887, 12.8.2021 17:14:21.575
485, 2.00962, 0.429842, 161.849, -0.00195312, -0.000976562, 0, -0.0654297, 0.335938, -9.81543, 12.8.2021 17:14:21.583
486, 2.00962, 0.429842, 161.849, -0.000976562, 0, 0, -0.0908203, 0.354492, -9.7998, 12.8.2021 17:14:21.591
487, 2.00962, 0.429842, 161.849, 0.000976562, 0, -0.000976562, -0.0224609, 0.345703, -9.82715, 12.8.2021 17:14:21.599
488, 2.00962, 0.429842, 161.849, -0.000976562, 0, -0.000976562, -0.0751953, 0.348633, -9.83105, 12.8.2021 17:14:21.607
489, 2.00962, 0.429842, 161.849, -0.000976562, 0, 0, -0.103516, 0.350586, -9.83105, 12.8.2021 17:14:21.615
490, 2.00962, 0.429842, 161.849, -0.00195312, 0, -0.000976562, -0.0439453, 0.327148, -9.84473, 12.8.2021 17:14:21.623
491, 2.00962, 0.429842, 161.849, -0.00195312, -0.000976562, 0, -0.0820312, 0.34668, -9.78906, 12.8.2021 17:14:21.631
492, 2.00962, 0.429842, 161.849, -0.000976562, 0, 0, -0.0654297, 0.355469, -9.81934, 12.8.2021 17:14:21.639
493, 2.00962, 0.429842, 161.849, 0, -0.000976562, -0.000976562, -0.0341797, 0.339844, -9.80371, 12.8.2021 17:14:21.647
494, 2.00962, 0.429842, 161.849, 0, 0, -0.000976562, -0.132812, 0.375, -9.83691, 12.8.2021 17:14:21.655
495, 2.00962, 0.429842, 161.849, -0.000976562, 0, -0.000976562, -0.0458984, 0.334961, -9.79395, 12.8.2021 17:14:21.663
496, 2.00962, 0.429842, 161.849, -0.000976562, 0.000976562, 0, -0.078125, 0.320312, -9.84863, 12.8.2021 17:14:21.671
497, 2.00962, 0.429842, 161.849, 0, -0.000976562, 0, -0.115234, 0.355469, -9.81641, 12.8.2021 17:14:21.679
498, 2.00962, 0.429842, 161.849, 0.000976562, -0.000976562, -0.000976562, -0.0175781, 0.349609, -9.80859, 12.8.2021 17:14:21.687
499, 2.00962, 0.429842, 161.849, 0, -0.000976562, -0.000976562, -0.0820312, 0.353516, -9.8291, 12.8.2021 17:14:21.695
500, 2.00962, 0.429842, 161.849, 0, 0, -0.000976562, -0.113281, 0.360352, -9.82129, 12.8.2021 17:14:21.703
501, 2.00962, 0.429842, 161.849, 0, 0, -0.000976562, -0.0273438, 0.336914, -9.83984, 12.8.2021 17:14:21.711
502, 2.00962, 0.429842, 161.849, 0, 0, 0, -0.0869141, 0.333984, -9.8291, 12.8.2021 17:14:21.719
503, 2.00962, 0.429842, 161.849, -0.000976562, 0, 0, -0.0703125, 0.34082, -9.82715, 12.8.2021 17:14:21.727
504, 2.00962, 0.429842, 161.849, -0.000976562, 0, 0, -0.0585938, 0.338867, -9.8252, 12.8.2021 17:14:21.735
505, 2.00962, 0.429842, 161.849, 0, -0.000976562, 0, -0.146484, 0.367188, -9.81348, 12.8.2021 17:14:21.743
506, 2.01652, 0.42874, 161.848, -0.000976562, 0, 0, -0.0419922, 0.348633, -9.83887, 12.8.2021 17:14:21.751
507, 2.01652, 0.42874, 161.848, -0.000976562, -0.000976562, 0, -0.0751953, 0.338867, -9.82715, 12.8.2021 17:14:21.759
508, 2.01652, 0.42874, 161.848, -0.000976562, -0.000976562, -0.000976562, -0.0947266, 0.392578, -9.87207, 12.8.2021 17:14:21.767
509, 2.01652, 0.42874, 161.848, 0, -0.00195312, 0, -0.0185547, 0.316406, -9.88965, 12.8.2021 17:14:21.775
510, 2.01652, 0.42874, 161.848, -0.000976562, -0.000976562, 0, -0.0800781, 0.34375, -9.83105, 12.8.2021 17:14:21.783
511, 2.01652, 0.42874, 161.848, -0.000976562, -0.000976562, 0, -0.0957031, 0.364258, -9.78613, 12.8.2021 17:14:21.791
512, 2.01652, 0.42874, 161.848, -0.000976562, -0.000976562, 0, -0.0439453, 0.329102, -9.83984, 12.8.2021 17:14:21.799
513, 2.01652, 0.42874, 161.848, -0.000976562, 0, -0.000976562, -0.126953, 0.357422, -9.82129, 12.8.2021 17:14:21.807
514, 2.01652, 0.42874, 161.848, -0.000976562, -0.000976562, -0.000976562, -0.0566406, 0.336914, -9.85352, 12.8.2021 17:14:21.815
515, 2.01652, 0.42874, 161.848, 0, 0, 0, -0.0585938, 0.345703, -9.82715, 12.8.2021 17:14:21.823
516, 2.02343, 0.427637, 161.848, 0, -0.000976562, 0.000976562, -0.134766, 0.367188, -9.81543, 12.8.2021 17:14:21.831
517, 2.02343, 0.427637, 161.848, 0, -0.000976562, 0, -0.0576172, 0.348633, -9.77734, 12.8.2021 17:14:21.839
518, 2.02453, 0.434543, 161.848, 0, 0, -0.000976562, -0.0771484, 0.37207, -9.82617, 12.8.2021 17:14:21.847
519, 2.02453, 0.434543, 161.848, 0, 0, 0.000976562, -0.110352, 0.375977, -9.80371, 12.8.2021 17:14:21.855
520, 2.02453, 0.434543, 161.848, -0.000976562, 0, 0, -0.0175781, 0.331055, -9.82129, 12.8.2021 17:14:21.863
521, 2.02453, 0.434543, 161.848, -0.000976562, -0.000976562, 0, -0.0917969, 0.335938, -9.8125, 12.8.2021 17:14:21.871
522, 2.02453, 0.434543, 161.848, 0, 0, 0, -0.0888672, 0.366211, -9.7832, 12.8.2021 17:14:21.879
523, 2.02453, 0.434543, 161.848, 0.000976562, -0.000976562, -0.000976562, -0.0351562, 0.302734, -9.83789, 12.8.2021 17:14:21.887
524, 2.02453, 0.434543, 161.848, 0, -0.00195312, -0.000976562, -0.105469, 0.362305, -9.82129, 12.8.2021 17:14:21.895
525, 2.02453, 0.434543, 161.848, 0, -0.00195312, 0, -0.0546875, 0.341797, -9.8623, 12.8.2021 17:14:21.903
526, 2.02453, 0.434543, 161.848, -0.000976562, 0, 0, -0.0537109, 0.316406, -9.80859, 12.8.2021 17:14:21.911
527, 2.02453, 0.434543, 161.848, 0, 0, -0.000976562, -0.131836, 0.359375, -9.78809, 12.8.2021 17:14:21.919
528, 2.02453, 0.434543, 161.848, 0, 0, -0.000976562, -0.0419922, 0.345703, -9.82031, 12.8.2021 17:14:21.927
529, 2.02453, 0.434543, 161.848, -0.000976562, -0.000976562, 0, -0.0927734, 0.330078, -9.86426, 12.8.2021 17:14:21.935
530, 2.02453, 0.434543, 161.848, -0.000976562, 0, 0, -0.0966797, 0.34375, -9.8291, 12.8.2021 17:14:21.943
531, 2.02453, 0.434543, 161.848, 0, 0, 0.000976562, -0.0126953, 0.317383, -9.82617, 12.8.2021 17:14:21.951
532, 2.02453, 0.434543, 161.848, -0.000976562, -0.000976562, 0, -0.0947266, 0.355469, -9.83789, 12.8.2021 17:14:21.959
533, 2.02453, 0.434543, 161.848, -0.000976562, -0.000976562, 0, -0.0966797, 0.336914, -9.83887, 12.8.2021 17:14:21.967
534, 2.02453, 0.434543, 161.848, -0.000976562, 0, -0.000976562, -0.0341797, 0.297852, -9.82617, 12.8.2021 17:14:21.975
535, 2.02453, 0.434543, 161.848, -0.000976562, -0.000976562, -0.000976562, -0.129883, 0.338867, -9.81445, 12.8.2021 17:14:21.983
536, 2.01763, 0.435645, 161.848, -0.000976562, 0, 0, -0.0585938, 0.352539, -9.81934, 12.8.2021 17:14:21.991
537, 2.01763, 0.435645, 161.848, 0, -0.000976562, 0, -0.0576172, 0.339844, -9.79395, 12.8.2021 17:14:21.999
538, 2.01763, 0.435645, 161.848, 0, -0.000976562, 0, -0.120117, 0.355469, -9.82324, 12.8.2021 17:14:22.007
539, 2.01763, 0.435645, 161.848, 0, 0, 0, -0.0341797, 0.302734, -9.82422, 12.8.2021 17:14:22.015
540, 2.01763, 0.435645, 161.848, 0.000976562, -0.000976562, 0, -0.0722656, 0.345703, -9.81543, 12.8.2021 17:14:22.023
541, 2.01072, 0.436748, 161.848, 0, 0, 0, -0.105469, 0.34082, -9.8125, 12.8.2021 17:14:22.031
542, 2.00962, 0.429842, 161.849, 0, 0, -0.000976562, -0.0107422, 0.332031, -9.84961, 12.8.2021 17:14:22.039
543, 2.00962, 0.429842, 161.849, 0, 0, -0.000976562, -0.0927734, 0.336914, -9.85938, 12.8.2021 17:14:22.047
544, 2.00962, 0.429842, 161.849, 0, -0.000976562, 0, -0.0712891, 0.366211, -9.87305, 12.8.2021 17:14:22.055
545, 2.00962, 0.429842, 161.849, -0.000976562, -0.000976562, -0.000976562, -0.0449219, 0.327148, -9.84863, 12.8.2021 17:14:22.063
546, 2.00962, 0.429842, 161.849, 0, -0.000976562, 0, -0.125, 0.362305, -9.82031, 12.8.2021 17:14:22.069
547, 2.00272, 0.430945, 161.849, -0.000976562, 0, 0.000976562, -0.0625, 0.354492, -9.78613, 12.8.2021 17:14:22.077
548, 2.00272, 0.430945, 161.849, 0, 0, 0, -0.046875, 0.319336, -9.83691, 12.8.2021 17:14:22.085
549, 2.00272, 0.430945, 161.849, 0, 0, 0, -0.103516, 0.333008, -9.80566, 12.8.2021 17:14:22.093
550, 2.00162, 0.42404, 161.849, 0, -0.000976562, 0, -0.0107422, 0.329102, -9.82812, 12.8.2021 17:14:22.101
551, 2.00162, 0.42404, 161.849, 0, -0.000976562, 0, -0.0820312, 0.362305, -9.81641, 12.8.2021 17:14:22.109
552, 2.00162, 0.42404, 161.849, -0.000976562, -0.000976562, 0, -0.125, 0.365234, -9.82812, 12.8.2021 17:14:22.117
553, 2.00162, 0.42404, 161.849, 0, 0, 0, -0.0244141, 0.345703, -9.81543, 12.8.2021 17:14:22.125
554, 2.00162, 0.42404, 161.849, -0.000976562, -0.000976562, 0, -0.103516, 0.34082, -9.83105, 12.8.2021 17:14:22.133
555, 2.00162, 0.42404, 161.849, 0, -0.000976562, 0, -0.0917969, 0.368164, -9.85645, 12.8.2021 17:14:22.141
556, 2.00162, 0.42404, 161.849, 0, 0, 0, -0.0419922, 0.324219, -9.82031, 12.8.2021 17:14:22.149
557, 2.00162, 0.42404, 161.849, -0.000976562, -0.000976562, -0.000976562, -0.120117, 0.383789, -9.81543, 12.8.2021 17:14:22.157
558, 2.00852, 0.422937, 161.849, -0.000976562, -0.000976562, 0, -0.0654297, 0.34668, -9.84766, 12.8.2021 17:14:22.165
559, 2.00852, 0.422937, 161.849, 0, -0.00195312, -0.000976562, -0.0732422, 0.353516, -9.84277, 12.8.2021 17:14:22.173
560, 2.00962, 0.429842, 161.849, -0.000976562, -0.000976562, 0, -0.113281, 0.329102, -9.83105, 12.8.2021 17:14:22.181
561, 2.00962, 0.429842, 161.849, -0.000976562, 0, 0, -0.0341797, 0.326172, -9.7998, 12.8.2021 17:14:22.189
562, 2.00962, 0.429842, 161.849, -0.000976562, -0.000976562, -0.000976562, -0.0800781, 0.338867, -9.81934, 12.8.2021 17:14:22.197
563, 2.00962, 0.429842, 161.849, 0, -0.000976562, -0.000976562, -0.115234, 0.365234, -9.81836, 12.8.2021 17:14:22.205
564, 2.00962, 0.429842, 161.849, 0, 0, -0.000976562, -0.0273438, 0.328125, -9.81152, 12.8.2021 17:14:22.213
565, 2.00962, 0.429842, 161.849, 0.000976562, 0, -0.000976562, -0.0986328, 0.322266, -9.83203, 12.8.2021 17:14:22.221
566, 2.00962, 0.429842, 161.849, 0.000976562, -0.000976562, -0.000976562, -0.0800781, 0.341797, -9.86426, 12.8.2021 17:14:22.229
567, 2.00962, 0.429842, 161.849, 0, -0.000976562, -0.000976562, -0.0371094, 0.348633, -9.85059, 12.8.2021 17:14:22.237
568, 2.00962, 0.429842, 161.849, 0, -0.000976562, -0.000976562, -0.103516, 0.347656, -9.79785, 12.8.2021 17:14:22.245
569, 2.00272, 0.430945, 161.849, 0, -0.000976562, 0, -0.0605469, 0.337891, -9.80859, 12.8.2021 17:14:22.253
570, 2.00272, 0.430945, 161.849, 0, -0.000976562, -0.000976562, -0.0654297, 0.341797, -9.83887, 12.8.2021 17:14:22.261
571, 2.00272, 0.430945, 161.849, 0, -0.000976562, -0.000976562, -0.113281, 0.332031, -9.83789, 12.8.2021 17:14:22.269
572, 2.00272, 0.430945, 161.849, 0, 0, -0.000976562, -0.0390625, 0.347656, -9.79395, 12.8.2021 17:14:22.277
573, 2.00272, 0.430945, 161.849, 0, 0, -0.000976562, -0.078125, 0.336914, -9.8457, 12.8.2021 17:14:22.285
574, 2.00272, 0.430945, 161.849, 0.000976562, 0, 0, -0.103516, 0.353516, -9.82812, 12.8.2021 17:14:22.293
575, 2.00272, 0.430945, 161.849, 0.000976562, 0, 0, -0.015625, 0.348633, -9.83496, 12.8.2021 17:14:22.301
576, 2.00272, 0.430945, 161.849, 0, 0, 0, -0.113281, 0.360352, -9.83496, 12.8.2021 17:14:22.309
577, 2.00272, 0.430945, 161.849, -0.000976562, 0, -0.000976562, -0.0966797, 0.338867, -9.83594, 12.8.2021 17:14:22.317
578, 2.00272, 0.430945, 161.849, 0, 0, -0.000976562, -0.0273438, 0.344727, -9.80371, 12.8.2021 17:14:22.325
579, 2.00272, 0.430945, 161.849, -0.000976562, 0, -0.000976562, -0.118164, 0.350586, -9.83105, 12.8.2021 17:14:22.333
580, 2.00272, 0.430945, 161.849, -0.000976562, 0, -0.000976562, -0.0537109, 0.337891, -9.81543, 12.8.2021 17:14:22.341
581, 2.00275, 0.431062, 161.856, -0.000976562, 0, 0, -0.0615234, 0.353516, -9.84766, 12.8.2021 17:14:22.349
582, 2.00272, 0.430945, 161.849, 0, 0, 0, -0.0917969, 0.34082, -9.80566, 12.8.2021 17:14:22.357
583, 2.00855, 0.423054, 161.856, 0, -0.000976562, -0.000976562, 0.000976562, 0.329102, -9.82617, 12.8.2021 17:14:22.365
584, 2.00165, 0.424156, 161.856, 0, -0.000976562, -0.000976562, -0.0751953, 0.322266, -9.85547, 12.8.2021 17:14:22.373
585, 2.00165, 0.424156, 161.856, -0.000976562, 0, -0.000976562, -0.0878906, 0.363281, -9.7666, 12.8.2021 17:14:22.381
586, 2.00855, 0.423054, 161.856, 0, -0.000976562, -0.000976562, -0.0292969, 0.351562, -9.78906, 12.8.2021 17:14:22.389
587, 2.00855, 0.423054, 161.856, -0.000976562, -0.000976562, 0, -0.0830078, 0.34668, -9.85254, 12.8.2021 17:14:22.397
588, 2.00855, 0.423054, 161.856, 0, 0, 0.000976562, -0.0869141, 0.330078, -9.8457, 12.8.2021 17:14:22.405
589, 2.00745, 0.416148, 161.856, 0, -0.000976562, 0, -0.0488281, 0.326172, -9.82324, 12.8.2021 17:14:22.413
590, 2.00745, 0.416148, 161.856, 0, -0.000976562, 0, -0.115234, 0.354492, -9.80664, 12.8.2021 17:14:22.421
591, 2.00742, 0.416031, 161.849, 0, 0, 0, -0.0507812, 0.347656, -9.81738, 12.8.2021 17:14:22.429
592, 2.00742, 0.416031, 161.849, -0.000976562, 0, -0.000976562, -0.0517578, 0.350586, -9.83594, 12.8.2021 17:14:22.437
593, 2.00745, 0.416148, 161.856, -0.000976562, 0, -0.000976562, -0.0839844, 0.362305, -9.80957, 12.8.2021 17:14:22.445
594, 2.00745, 0.416148, 161.856, 0, -0.000976562, -0.000976562, -0.0322266, 0.34375, -9.83887, 12.8.2021 17:14:22.453
595, 2.00745, 0.416148, 161.856, 0, -0.000976562, 0, -0.0917969, 0.34082, -9.81445, 12.8.2021 17:14:22.461
596, 2.00742, 0.416031, 161.849, 0, -0.000976562, 0, -0.109375, 0.353516, -9.85645, 12.8.2021 17:14:22.469
597, 2.00742, 0.416031, 161.849, 0, -0.000976562, 0, -0.0185547, 0.327148, -9.83984, 12.8.2021 17:14:22.477
598, 2.00742, 0.416031, 161.849, 0, 0, 0, -0.0771484, 0.352539, -9.80566, 12.8.2021 17:14:22.485
599, 2.00631, 0.409126, 161.849, -0.000976562, -0.000976562, 0, -0.0830078, 0.336914, -9.85059, 12.8.2021 17:14:22.493
600, 2.00631, 0.409126, 161.849, -0.000976562, 0, 0.000976562, -0.0556641, 0.304688, -9.80176, 12.8.2021 17:14:22.501
601, 2.00631, 0.409126, 161.849, 0, -0.000976562, 0, -0.139648, 0.34082, -9.82129, 12.8.2021 17:14:22.509
602, 2.00631, 0.409126, 161.849, 0, -0.000976562, 0, -0.0419922, 0.335938, -9.83496, 12.8.2021 17:14:22.517
603, 2.00631, 0.409126, 161.849, -0.000976562, 0, 0, -0.0439453, 0.34082, -9.81348, 12.8.2021 17:14:22.525
604, 2.00631, 0.409126, 161.849, 0, -0.000976562, 0, -0.130859, 0.350586, -9.73828, 12.8.2021 17:14:22.533
605, 2.00631, 0.409126, 161.849, 0, -0.000976562, 0, -0.0292969, 0.331055, -9.80469, 12.8.2021 17:14:22.541
606, 2.00631, 0.409126, 161.849, 0, -0.000976562, 0, -0.0625, 0.311523, -9.80176, 12.8.2021 17:14:22.549
607, 2.00631, 0.409126, 161.849, -0.000976562, -0.000976562, 0, -0.0820312, 0.353516, -9.83105, 12.8.2021 17:14:22.557
608, 2.00631, 0.409126, 161.849, 0, 0, -0.000976562, -0.046875, 0.336914, -9.85547, 12.8.2021 17:14:22.565
609, 1.99941, 0.410228, 161.849, 0, 0, -0.000976562, -0.118164, 0.333008, -9.80957, 12.8.2021 17:14:22.573
610, 1.99941, 0.410228, 161.849, 0, -0.000976562, 0, -0.0839844, 0.347656, -9.81738, 12.8.2021 17:14:22.581
611, 1.99941, 0.410228, 161.849, 0, -0.000976562, -0.000976562, -0.0390625, 0.314453, -9.81641, 12.8.2021 17:14:22.589
612, 1.99941, 0.410228, 161.849, -0.000976562, -0.000976562, -0.000976562, -0.129883, 0.353516, -9.83301, 12.8.2021 17:14:22.597
613, 1.99941, 0.410228, 161.849, 0, -0.000976562, -0.000976562, -0.0439453, 0.34082, -9.83691, 12.8.2021 17:14:22.605
614, 2.00051, 0.417134, 161.849, 0, -0.000976562, -0.000976562, -0.0556641, 0.362305, -9.82617, 12.8.2021 17:14:22.613
615, 2.00051, 0.417134, 161.849, 0, 0, 0, -0.0986328, 0.352539, -9.80469, 12.8.2021 17:14:22.621
616, 1.99941, 0.410228, 161.849, 0.000976562, 0, 0, -0.0214844, 0.333984, -9.76172, 12.8.2021 17:14:22.629
617, 1.99941, 0.410228, 161.849, 0, 0, 0, -0.0751953, 0.34668, -9.84277, 12.8.2021 17:14:22.637
618, 1.99941, 0.410228, 161.849, 0, 0, 0, -0.0751953, 0.345703, -9.80762, 12.8.2021 17:14:22.645
619, 1.99941, 0.410228, 161.849, 0, -0.000976562, -0.000976562, -0.0107422, 0.30957, -9.82129, 12.8.2021 17:14:22.653
620, 1.99941, 0.410228, 161.849, 0, -0.000976562, -0.000976562, -0.132812, 0.358398, -9.83496, 12.8.2021 17:14:22.661
621, 1.99941, 0.410228, 161.849, 0, -0.000976562, 0, -0.0585938, 0.348633, -9.85547, 12.8.2021 17:14:22.669
622, 1.99941, 0.410228, 161.849, 0, 0, 0, -0.0273438, 0.317383, -9.83789, 12.8.2021 17:14:22.677
623, 1.99251, 0.411331, 161.849, -0.000976562, 0, -0.000976562, -0.146484, 0.350586, -9.81152, 12.8.2021 17:14:22.685
624, 1.99941, 0.410228, 161.849, 0, -0.000976562, -0.000976562, -0.0146484, 0.37793, -9.77734, 12.8.2021 17:14:22.693
625, 1.99941, 0.410228, 161.849, 0, 0, 0, -0.0654297, 0.324219, -9.83496, 12.8.2021 17:14:22.701
626, 1.99941, 0.410228, 161.849, -0.000976562, 0, -0.000976562, -0.103516, 0.358398, -9.84473, 12.8.2021 17:14:22.709
627, 1.99831, 0.403323, 161.849, -0.000976562, 0, -0.000976562, -0.00292969, 0.356445, -9.79004, 12.8.2021 17:14:22.717
628, 1.99831, 0.403323, 161.849, 0, -0.000976562, 0, -0.0957031, 0.337891, -9.80273, 12.8.2021 17:14:22.725
629, 1.99831, 0.403323, 161.849, 0, 0, 0, -0.0791016, 0.350586, -9.80957, 12.8.2021 17:14:22.733
630, 1.99831, 0.403323, 161.849, 0, -0.000976562, -0.000976562, -0.0341797, 0.314453, -9.81445, 12.8.2021 17:14:22.741
631, 1.99831, 0.403323, 161.849, 0.000976562, 0, 0, -0.141602, 0.350586, -9.81152, 12.8.2021 17:14:22.749
632, 1.99831, 0.403323, 161.849, 0, 0, 0, -0.0488281, 0.338867, -9.85059, 12.8.2021 17:14:22.757
633, 1.99831, 0.403323, 161.849, -0.000976562, 0, -0.000976562, -0.0537109, 0.337891, -9.81348, 12.8.2021 17:14:22.765
634, 1.99831, 0.403323, 161.849, -0.000976562, 0, 0, -0.136719, 0.353516, -9.83008, 12.8.2021 17:14:22.773
635, 1.99831, 0.403323, 161.849, -0.000976562, -0.000976562, -0.000976562, -0.0136719, 0.338867, -9.83691, 12.8.2021 17:14:22.781
636, 1.99831, 0.403323, 161.849, 0, 0, -0.000976562, -0.0673828, 0.319336, -9.80664, 12.8.2021 17:14:22.789
637, 1.99831, 0.403323, 161.849, 0, 0, 0, -0.113281, 0.374023, -9.80664, 12.8.2021 17:14:22.797
638, 1.99831, 0.403323, 161.849, 0, 0, -0.000976562, -0.0078125, 0.333008, -9.81836, 12.8.2021 17:14:22.805
639, 1.99831, 0.403323, 161.849, 0, 0, 0, -0.0605469, 0.364258, -9.81738, 12.8.2021 17:14:22.813
640, 2.00521, 0.40222, 161.849, -0.000976562, 0, 0, -0.0556641, 0.366211, -9.79297, 12.8.2021 17:14:22.821
641, 2.00411, 0.395315, 161.849, 0, 0, 0, -0.0478516, 0.344727, -9.79395, 12.8.2021 17:14:22.829
642, 2.00411, 0.395315, 161.849, 0, -0.000976562, 0, -0.132812, 0.338867, -9.83789, 12.8.2021 17:14:22.837
643, 2.00411, 0.395315, 161.849, 0, -0.000976562, 0, -0.0771484, 0.337891, -9.79395, 12.8.2021 17:14:22.845
644, 2.00411, 0.395315, 161.849, -0.000976562, -0.000976562, -0.000976562, -0.0585938, 0.336914, -9.84863, 12.8.2021 17:14:22.853
645, 2.00521, 0.40222, 161.849, 0, 0, 0, -0.139648, 0.353516, -9.83691, 12.8.2021 17:14:22.861
646, 2.00521, 0.40222, 161.849, 0, 0, 0, -0.0263672, 0.339844, -9.77832, 12.8.2021 17:14:22.869
647, 2.00521, 0.40222, 161.849, 0, 0, 0, -0.0800781, 0.331055, -9.82422, 12.8.2021 17:14:22.877
648, 2.00521, 0.40222, 161.849, 0, -0.000976562, 0, -0.100586, 0.34668, -9.78613, 12.8.2021 17:14:22.885
649, 2.00521, 0.40222, 161.849, 0, -0.000976562, 0, -0.015625, 0.345703, -9.81543, 12.8.2021 17:14:22.893
650, 2.00521, 0.40222, 161.849, 0, -0.000976562, 0, -0.0800781, 0.362305, -9.82422, 12.8.2021 17:14:22.901
651, 2.00521, 0.40222, 161.849, 0, 0, -0.000976562, -0.0800781, 0.37793, -9.84473, 12.8.2021 17:14:22.909
652, 2.01211, 0.401118, 161.849, 0, -0.000976562, 0, -0.0341797, 0.329102, -9.8252, 12.8.2021 17:14:22.917
653, 2.01211, 0.401118, 161.849, -0.000976562, 0, 0, -0.118164, 0.348633, -9.83301, 12.8.2021 17:14:22.925
654, 2.01211, 0.401118, 161.849, -0.000976562, -0.000976562, 0, -0.0537109, 0.359375, -9.80762, 12.8.2021 17:14:22.933
655, 2.01211, 0.401118, 161.849, 0, -0.000976562, -0.000976562, -0.0371094, 0.327148, -9.8418, 12.8.2021 17:14:22.941
656, 2.01211, 0.401118, 161.849, -0.000976562, 0, 0, -0.110352, 0.363281, -9.77637, 12.8.2021 17:14:22.949
657, 2.01211, 0.401118, 161.849, 0, 0, 0, -0.0390625, 0.344727, -9.79199, 12.8.2021 17:14:22.957
658, 2.01211, 0.401118, 161.849, 0, 0.000976562, 0, -0.0673828, 0.337891, -9.81738, 12.8.2021 17:14:22.965
659, 2.01902, 0.400015, 161.849, 0, 0, 0, -0.0986328, 0.357422, -9.79785, 12.8.2021 17:14:22.973
660, 2.01902, 0.400015, 161.849, 0, -0.000976562, -0.000976562, -0.0292969, 0.334961, -9.78516, 12.8.2021 17:14:22.981
661, 2.01902, 0.400015, 161.849, 0, 0, -0.000976562, -0.0888672, 0.352539, -9.81641, 12.8.2021 17:14:22.989
662, 2.01902, 0.400015, 161.849, 0, -0.000976562, -0.000976562, -0.0800781, 0.364258, -9.81934, 12.8.2021 17:14:22.997
663, 2.01902, 0.400015, 161.849, 0, -0.000976562, 0, -0.0605469, 0.34668, -9.78711, 12.8.2021 17:14:23.005
664, 2.01902, 0.400015, 161.849, 0, 0.000976562, 0.000976562, -0.110352, 0.333984, -9.81934, 12.8.2021 17:14:23.013
665, 2.01902, 0.400015, 161.849, 0.000976562, -0.000976562, -0.000976562, -0.0625, 0.335938, -9.81055, 12.8.2021 17:14:23.021
666, 2.01902, 0.400015, 161.849, -0.000976562, -0.000976562, -0.000976562, -0.0566406, 0.325195, -9.86035, 12.8.2021 17:14:23.029
667, 2.02012, 0.40692, 161.849, -0.000976562, -0.000976562, -0.00195312, -0.134766, 0.362305, -9.81152, 12.8.2021 17:14:23.037
668, 2.02012, 0.40692, 161.849, 0.000976562, -0.000976562, -0.00195312, -0.0390625, 0.337891, -9.81543, 12.8.2021 17:14:23.043
669, 2.02012, 0.40692, 161.849, -0.000976562, 0, 0, -0.0507812, 0.350586, -9.8125, 12.8.2021 17:14:23.051
670, 2.02012, 0.40692, 161.849, -0.000976562, 0, 0, -0.101562, 0.360352, -9.82617, 12.8.2021 17:14:23.059
671, 2.02012, 0.40692, 161.849, 0, -0.000976562, 0.000976562, -0.0107422, 0.306641, -9.81738, 12.8.2021 17:14:23.067
672, 2.02012, 0.40692, 161.849, 0, 0, 0, -0.103516, 0.34375, -9.82422, 12.8.2021 17:14:23.075
673, 2.02012, 0.40692, 161.849, -0.000976562, 0, 0, -0.0683594, 0.351562, -9.86719, 12.8.2021 17:14:23.083
674, 2.02012, 0.40692, 161.849, 0, 0, -0.000976562, -0.0566406, 0.350586, -9.83594, 12.8.2021 17:14:23.091
675, 2.02012, 0.40692, 161.849, 0, 0, 0, -0.12207, 0.383789, -9.81055, 12.8.2021 17:14:23.099
676, 2.02012, 0.40692, 161.849, 0, 0, 0, -0.0634766, 0.360352, -9.82227, 12.8.2021 17:14:23.107
677, 2.02012, 0.40692, 161.849, 0, -0.000976562, 0, -0.0585938, 0.323242, -9.80859, 12.8.2021 17:14:23.115
678, 2.02012, 0.40692, 161.849, -0.000976562, -0.000976562, 0, -0.108398, 0.350586, -9.83984, 12.8.2021 17:14:23.123
679, 2.02012, 0.40692, 161.849, -0.000976562, -0.000976562, 0, -0.015625, 0.335938, -9.80859, 12.8.2021 17:14:23.131
680, 2.02012, 0.40692, 161.849, 0, 0.000976562, -0.000976562, -0.0595703, 0.328125, -9.78223, 12.8.2021 17:14:23.139
681, 2.02012, 0.40692, 161.849, 0.000976562, -0.000976562, -0.000976562, -0.132812, 0.380859, -9.88379, 12.8.2021 17:14:23.147
682, 2.02012, 0.40692, 161.849, 0, -0.000976562, 0, -0.0107422, 0.30957, -9.8291, 12.8.2021 17:14:23.155
683, 2.02012, 0.40692, 161.849, 0, 0, 0, -0.0849609, 0.324219, -9.82031, 12.8.2021 17:14:23.163
684, 2.02012, 0.40692, 161.849, -0.000976562, -0.000976562, -0.000976562, -0.0605469, 0.357422, -9.80273, 12.8.2021 17:14:23.171
685, 2.02012, 0.40692, 161.849, 0, -0.000976562, 0, -0.0371094, 0.307617, -9.82324, 12.8.2021 17:14:23.179
686, 2.02012, 0.40692, 161.849, 0.000976562, -0.000976562, 0, -0.136719, 0.345703, -9.80957, 12.8.2021 17:14:23.187
687, 2.02012, 0.40692, 161.849, 0, -0.000976562, 0, -0.0576172, 0.330078, -9.79395, 12.8.2021 17:14:23.195
688, 2.01322, 0.408023, 161.849, -0.000976562, -0.000976562, -0.000976562, -0.0507812, 0.362305, -9.80762, 12.8.2021 17:14:23.203
689, 2.01322, 0.408023, 161.849, 0, 0, -0.000976562, -0.120117, 0.347656, -9.80664, 12.8.2021 17:14:23.211
690, 2.01322, 0.408023, 161.849, 0, -0.000976562, 0, -0.0224609, 0.342773, -9.80859, 12.8.2021 17:14:23.219
691, 2.01322, 0.408023, 161.849, 0, 0, 0, -0.0537109, 0.355469, -9.8291, 12.8.2021 17:14:23.227
692, 2.01322, 0.408023, 161.849, -0.000976562, 0, -0.000976562, -0.102539, 0.349609, -9.88477, 12.8.2021 17:14:23.235
693, 2.01322, 0.408023, 161.849, 0, 0, -0.000976562, -0.0234375, 0.327148, -9.84961, 12.8.2021 17:14:23.243
694, 2.01322, 0.408023, 161.849, 0, 0, -0.000976562, -0.0966797, 0.360352, -9.84766, 12.8.2021 17:14:23.251
695, 2.01322, 0.408023, 161.849, 0.000976562, -0.000976562, -0.000976562, -0.123047, 0.329102, -9.84082, 12.8.2021 17:14:23.259
696, 2.01322, 0.408023, 161.849, 0, 0, 0, -0.0302734, 0.34082, -9.83691, 12.8.2021 17:14:23.267
697, 2.01322, 0.408023, 161.849, 0.000976562, -0.000976562, 0, -0.131836, 0.375977, -9.80566, 12.8.2021 17:14:23.275
698, 2.01322, 0.408023, 161.849, 0, -0.000976562, 0, -0.0722656, 0.362305, -9.8125, 12.8.2021 17:14:23.283
699, 2.01322, 0.408023, 161.849, 0, 0, 0, -0.0703125, 0.328125, -9.80566, 12.8.2021 17:14:23.291
700, 2.01432, 0.414929, 161.849, -0.000976562, 0, -0.000976562, -0.120117, 0.332031, -9.83594, 12.8.2021 17:14:23.299
701, 2.01432, 0.414929, 161.849, -0.000976562, -0.000976562, 0, -0.0136719, 0.333984, -9.85156, 12.8.2021 17:14:23.307
702, 2.01432, 0.414929, 161.849, -0.000976562, 0, 0, -0.0839844, 0.354492, -9.80469, 12.8.2021 17:14:23.315
703, 2.01432, 0.414929, 161.849, -0.000976562, -0.000976562, -0.000976562, -0.101562, 0.373047, -9.84473, 12.8.2021 17:14:23.323
704, 2.01432, 0.414929, 161.849, 0, 0, 0, -0.0322266, 0.321289, -9.82324, 12.8.2021 17:14:23.331
705, 2.01432, 0.414929, 161.849, 0.000976562, -0.000976562, 0, -0.113281, 0.338867, -9.83789, 12.8.2021 17:14:23.339
706, 2.01432, 0.414929, 161.849, 0.000976562, -0.000976562, 0, -0.0849609, 0.341797, -9.8623, 12.8.2021 17:14:23.347
707, 2.01432, 0.414929, 161.849, 0, -0.000976562, 0, -0.0537109, 0.314453, -9.83496, 12.8.2021 17:14:23.355
708, 2.01542, 0.421834, 161.849, 0, -0.000976562, -0.000976562, -0.134766, 0.378906, -9.81738, 12.8.2021 17:14:23.363
709, 2.01542, 0.421834, 161.849, -0.000976562, -0.000976562, -0.000976562, -0.0400391, 0.364258, -9.87402, 12.8.2021 17:14:23.371
710, 2.01542, 0.421834, 161.849, 0, 0, 0, -0.0371094, 0.332031, -9.84668, 12.8.2021 17:14:23.379
711, 2.01542, 0.421834, 161.849, 0, -0.000976562, 0, -0.0849609, 0.360352, -9.84277, 12.8.2021 17:14:23.387
712, 2.01542, 0.421834, 161.849, 0, -0.000976562, 0, -0.0205078, 0.34375, -9.84375, 12.8.2021 17:14:23.395
713, 2.01542, 0.421834, 161.849, 0, 0, -0.000976562, -0.078125, 0.322266, -9.85352, 12.8.2021 17:14:23.403
714, 2.01542, 0.421834, 161.849, 0, 0, -0.000976562, -0.0888672, 0.347656, -9.81445, 12.8.2021 17:14:23.411
715, 2.01542, 0.421834, 161.849, 0, -0.000976562, -0.000976562, -0.0244141, 0.330078, -9.79297, 12.8.2021 17:14:23.419
716, 2.01432, 0.414929, 161.849, 0, -0.000976562, -0.000976562, -0.0888672, 0.356445, -9.77148, 12.8.2021 17:14:23.427
717, 2.01432, 0.414929, 161.849, 0, -0.000976562, 0, -0.0820312, 0.333984, -9.82031, 12.8.2021 17:14:23.435
718, 2.01432, 0.414929, 161.849, 0, -0.000976562, 0, -0.0507812, 0.314453, -9.8252, 12.8.2021 17:14:23.443
719, 2.01432, 0.414929, 161.849, 0, -0.00195312, 0, -0.123047, 0.349609, -9.86816, 12.8.2021 17:14:23.451
720, 2.00742, 0.416031, 161.849, -0.00195312, -0.000976562, 0, -0.0419922, 0.334961, -9.85352, 12.8.2021 17:14:23.459
721, 2.00742, 0.416031, 161.849, 0, -0.000976562, 0, -0.0751953, 0.308594, -9.84668, 12.8.2021 17:14:23.467
722, 2.00742, 0.416031, 161.849, 0, 0, 0, -0.117188, 0.369141, -9.80371, 12.8.2021 17:14:23.475
723, 2.00742, 0.416031, 161.849, 0, 0, -0.000976562, -0.0146484, 0.34668, -9.79199, 12.8.2021 17:14:23.483
724, 2.00742, 0.416031, 161.849, 0, 0, 0, -0.0966797, 0.34375, -9.82129, 12.8.2021 17:14:23.491
725, 2.00742, 0.416031, 161.849, 0, 0, -0.000976562, -0.0869141, 0.349609, -9.80469, 12.8.2021 17:14:23.499
726, 2.00742, 0.416031, 161.849, 0, 0, 0, -0.046875, 0.322266, -9.85645, 12.8.2021 17:14:23.507
727, 2.00742, 0.416031, 161.849, 0, -0.000976562, -0.000976562, -0.116211, 0.350586, -9.83789, 12.8.2021 17:14:23.515
728, 2.00742, 0.416031, 161.849, -0.00195312, -0.000976562, 0, -0.0800781, 0.352539, -9.81934, 12.8.2021 17:14:23.523
729, 2.00742, 0.416031, 161.849, -0.00195312, 0, 0, -0.0634766, 0.331055, -9.82031, 12.8.2021 17:14:23.531
730, 2.00742, 0.416031, 161.849, 0, 0, -0.000976562, -0.120117, 0.347656, -9.7998, 12.8.2021 17:14:23.539
731, 2.00852, 0.422937, 161.849, 0, -0.000976562, 0, -0.0527344, 0.336914, -9.78223, 12.8.2021 17:14:23.547
732, 2.00852, 0.422937, 161.849, 0, 0, -0.000976562, -0.0722656, 0.34082, -9.82422, 12.8.2021 17:14:23.555
733, 2.00852, 0.422937, 161.849, 0, 0, 0, -0.103516, 0.369141, -9.79688, 12.8.2021 17:14:23.563
734, 2.00852, 0.422937, 161.849, 0, 0, -0.000976562, -0.0576172, 0.337891, -9.80371, 12.8.2021 17:14:23.571
735, 2.00852, 0.422937, 161.849, 0.000976562, 0, -0.000976562, -0.101562, 0.34375, -9.83301, 12.8.2021 17:14:23.579
736, 2.00852, 0.422937, 161.849, 0, -0.000976562, 0, -0.0917969, 0.367188, -9.80664, 12.8.2021 17:14:23.587
737, 2.00852, 0.422937, 161.849, 0, -0.000976562, 0, -0.0390625, 0.354492, -9.8125, 12.8.2021 17:14:23.595
738, 2.00962, 0.429842, 161.849, -0.00195312, -0.000976562, -0.000976562, -0.123047, 0.34668, -9.85156, 12.8.2021 17:14:23.603
739, 2.00962, 0.429842, 161.849, 0, -0.000976562, -0.000976562, -0.0703125, 0.360352, -9.84277, 12.8.2021 17:14:23.611
740, 2.00962, 0.429842, 161.849, 0.000976562, -0.000976562, -0.000976562, -0.0371094, 0.317383, -9.83008, 12.8.2021 17:14:23.619
741, 2.00962, 0.429842, 161.849, 0, 0, 0, -0.120117, 0.355469, -9.83008, 12.8.2021 17:14:23.627
742, 2.00962, 0.429842, 161.849, 0.000976562, 0, -0.000976562, -0.0390625, 0.326172, -9.79688, 12.8.2021 17:14:23.635
743, 2.00962, 0.429842, 161.849, 0.000976562, -0.000976562, -0.000976562, -0.0654297, 0.350586, -9.82227, 12.8.2021 17:14:23.643
744, 2.00962, 0.429842, 161.849, 0, 0, -0.000976562, -0.103516, 0.347656, -9.80957, 12.8.2021 17:14:23.651
745, 2.00962, 0.429842, 161.849, 0, 0, 0, -0.00585938, 0.321289, -9.81934, 12.8.2021 17:14:23.659
746, 2.00962, 0.429842, 161.849, 0, 0, -0.000976562, -0.0986328, 0.324219, -9.82031, 12.8.2021 17:14:23.667
747, 2.00962, 0.429842, 161.849, 0, 0, -0.000976562, -0.0810547, 0.344727, -9.78613, 12.8.2021 17:14:23.675
748, 2.00962, 0.429842, 161.849, -0.00195312, -0.000976562, -0.000976562, -0.0214844, 0.318359, -9.87598, 12.8.2021 17:14:23.683
749, 2.00962, 0.429842, 161.849, 0, 0, -0.000976562, -0.0722656, 0.333008, -9.79395, 12.8.2021 17:14:23.691
750, 2.00852, 0.422937, 161.849, -0.00195312, -0.000976562, -0.000976562, -0.0791016, 0.359375, -9.80273, 12.8.2021 17:14:23.699
751, 2.00855, 0.423054, 161.856, 0, -0.000976562, -0.000976562, -0.0439453, 0.345703, -9.83203, 12.8.2021 17:14:23.707
752, 2.00855, 0.423054, 161.856, -0.00195312, -0.000976562, 0, -0.120117, 0.360352, -9.81836, 12.8.2021 17:14:23.715
753, 2.00852, 0.422937, 161.849, 0, 0, 0, -0.0205078, 0.326172, -9.82812, 12.8.2021 17:14:23.723
754, 2.00855, 0.423054, 161.856, 0, 0, -0.00195312, -0.0458984, 0.323242, -9.79492, 12.8.2021 17:14:23.731
755, 2.00855, 0.423054, 161.856, -0.00195312, 0, -0.000976562, -0.0888672, 0.336914, -9.78223, 12.8.2021 17:14:23.739
756, 2.00745, 0.416148, 161.856, -0.00195312, 0, -0.000976562, -0.0175781, 0.339844, -9.80664, 12.8.2021 17:14:23.747
757, 2.00745, 0.416148, 161.856, 0, 0, 0, -0.0869141, 0.360352, -9.83594, 12.8.2021 17:14:23.755
758, 2.00745, 0.416148, 161.856, -0.00195312, -0.000976562, 0.000976562, -0.0722656, 0.349609, -9.7959, 12.8.2021 17:14:23.763
759, 2.00631, 0.409126, 161.849, -0.00195312, -0.000976562, 0.000976562, -0.0488281, 0.333984, -9.82324, 12.8.2021 17:14:23.771
760, 2.00631, 0.409126, 161.849, -0.00195312, -0.000976562, 0, -0.101562, 0.34082, -9.81445, 12.8.2021 17:14:23.779
761, 2.00631, 0.409126, 161.849, 0, -0.000976562, 0, -0.0703125, 0.319336, -9.82715, 12.8.2021 17:14:23.787
762, 2.00631, 0.409126, 161.849, 0, -0.000976562, 0, -0.0371094, 0.329102, -9.83008, 12.8.2021 17:14:23.795
763, 2.00631, 0.409126, 161.849, -0.00195312, -0.000976562, -0.000976562, -0.110352, 0.375, -9.8252, 12.8.2021 17:14:23.803
764, 2.00631, 0.409126, 161.849, 0, 0, -0.000976562, -0.0605469, 0.359375, -9.81445, 12.8.2021 17:14:23.811
765, 2.00631, 0.409126, 161.849, 0.000976562, 0, -0.000976562, -0.0869141, 0.353516, -9.83301, 12.8.2021 17:14:23.819
766, 2.00631, 0.409126, 161.849, 0, 0, 0, -0.118164, 0.364258, -9.81152, 12.8.2021 17:14:23.827
767, 2.00631, 0.409126, 161.849, -0.00195312, -0.000976562, -0.000976562, -0.0175781, 0.301758, -9.80762, 12.8.2021 17:14:23.835
768, 2.00631, 0.409126, 161.849, 0, 0, 0, -0.0869141, 0.344727, -9.80273, 12.8.2021 17:14:23.843
769, 2.00631, 0.409126, 161.849, 0, -0.000976562, 0, -0.101562, 0.387695, -9.85352, 12.8.2021 17:14:23.851
770, 2.00631, 0.409126, 161.849, 0, -0.00195312, 0, -0.0322266, 0.338867, -9.85352, 12.8.2021 17:14:23.859
771, 2.00631, 0.409126, 161.849, 0, 0, -0.000976562, -0.142578, 0.361328, -9.85352, 12.8.2021 17:14:23.867
772, 2.00631, 0.409126, 161.849, 0, 0, -0.000976562, -0.0625, 0.352539, -9.81055, 12.8.2021 17:14:23.875
773, 2.00631, 0.409126, 161.849, -0.00195312, -0.000976562, -0.000976562, -0.0556641, 0.332031, -9.83203, 12.8.2021 17:14:23.883
774, 2.01432, 0.414929, 161.849, -0.00292969, -0.000976562, -0.000976562, -0.103516, 0.366211, -9.7998, 12.8.2021 17:14:23.891
775, 2.01432, 0.414929, 161.849, 0, -0.000976562, -0.000976562, -0.0244141, 0.328125, -9.7998, 12.8.2021 17:14:23.899
776, 2.01432, 0.414929, 161.849, 0, -0.000976562, -0.000976562, -0.0576172, 0.318359, -9.77344, 12.8.2021 17:14:23.907
777, 2.01432, 0.414929, 161.849, -0.00195312, -0.000976562, 0, -0.0830078, 0.339844, -9.85059, 12.8.2021 17:14:23.915
778, 2.01432, 0.414929, 161.849, -0.00195312, -0.000976562, -0.000976562, -0.0351562, 0.317383, -9.83984, 12.8.2021 17:14:23.923
779, 2.01432, 0.414929, 161.849, -0.00195312, 0, 0, -0.109375, 0.332031, -9.85254, 12.8.2021 17:14:23.931
780, 2.01432, 0.414929, 161.849, -0.00195312, 0, -0.000976562, -0.0722656, 0.342773, -9.81055, 12.8.2021 17:14:23.939
781, 2.01322, 0.408023, 161.849, -0.000976562, 0, 0, -0.0302734, 0.307617, -9.83984, 12.8.2021 17:14:23.947
782, 2.01322, 0.408023, 161.849, 0, 0, -0.000976562, -0.0898438, 0.355469, -9.83301, 12.8.2021 17:14:23.955
783, 2.00631, 0.409126, 161.849, 0.000976562, 0, -0.000976562, -0.0566406, 0.329102, -9.84375, 12.8.2021 17:14:23.963
784, 2.00631, 0.409126, 161.849, 0.000976562, 0, 0, -0.0419922, 0.322266, -9.84668, 12.8.2021 17:14:23.971
785, 2.00631, 0.409126, 161.849, -0.000976562, 0, -0.000976562, -0.134766, 0.350586, -9.80664, 12.8.2021 17:14:23.979
786, 2.00631, 0.409126, 161.849, 0, 0, 0, -0.0537109, 0.34082, -9.82227, 12.8.2021 17:14:23.987
787, 1.99941, 0.410228, 161.849, 0, -0.000976562, -0.000976562, -0.0869141, 0.347656, -9.81445, 12.8.2021 17:14:23.995
788, 1.99941, 0.410228, 161.849, 0, -0.000976562, -0.000976562, -0.0830078, 0.34668, -9.84766, 12.8.2021 17:14:24.003
789, 1.99941, 0.410228, 161.849, 0, -0.000976562, -0.000976562, -0.0244141, 0.337891, -9.79492, 12.8.2021 17:14:24.009
790, 1.99945, 0.410345, 161.856, 0.000976562, -0.00195312, -0.000976562, -0.0898438, 0.356445, -9.86426, 12.8.2021 17:14:24.017
791, 1.99945, 0.410345, 161.856, 0, -0.000976562, 0, -0.0683594, 0.34375, -9.8291, 12.8.2021 17:14:24.025
792, 1.99941, 0.410228, 161.849, 0, 0, 0, -0.0341797, 0.311523, -9.78809, 12.8.2021 17:14:24.033
793, 1.99941, 0.410228, 161.849, 0, -0.000976562, 0, -0.12793, 0.360352, -9.83984, 12.8.2021 17:14:24.041
794, 1.99941, 0.410228, 161.849, 0, 0, 0, -0.0683594, 0.336914, -9.84375, 12.8.2021 17:14:24.049
795, 1.99941, 0.410228, 161.849, -0.000976562, -0.000976562, -0.000976562, -0.0644531, 0.303711, -9.875, 12.8.2021 17:14:24.057
796, 1.99251, 0.411331, 161.849, 0, -0.00195312, -0.000976562, -0.108398, 0.352539, -9.7998, 12.8.2021 17:14:24.065
797, 1.99254, 0.411447, 161.856, 0, -0.000976562, -0.000976562, -0.0361328, 0.339844, -9.77832, 12.8.2021 17:14:24.073
798, 1.99254, 0.411447, 161.856, 0, -0.000976562, -0.000976562, -0.0605469, 0.358398, -9.84082, 12.8.2021 17:14:24.081
799, 1.99254, 0.411447, 161.856, -0.000976562, -0.000976562, -0.000976562, -0.0917969, 0.350586, -9.82129, 12.8.2021 17:14:24.089
800, 1.99254, 0.411447, 161.856, -0.000976562, 0, 0, -0.0253906, 0.331055, -9.8252, 12.8.2021 17:14:24.097
801, 1.99254, 0.411447, 161.856, 0, 0, 0, -0.108398, 0.319336, -9.82715, 12.8.2021 17:14:24.105
802, 1.99254, 0.411447, 161.856, -0.000976562, 0, 0, -0.0625, 0.354492, -9.80273, 12.8.2021 17:14:24.113
803, 1.99254, 0.411447, 161.856, 0, -0.000976562, -0.000976562, -0.0449219, 0.308594, -9.86328, 12.8.2021 17:14:24.121
804, 1.99254, 0.411447, 161.856, 0, -0.000976562, 0, -0.136719, 0.353516, -9.8252, 12.8.2021 17:14:24.129
805, 1.99254, 0.411447, 161.856, 0.000976562, -0.000976562, -0.00195312, -0.0556641, 0.347656, -9.81543, 12.8.2021 17:14:24.137
806, 1.99254, 0.411447, 161.856, 0.000976562, -0.000976562, 0, -0.0273438, 0.345703, -9.83691, 12.8.2021 17:14:24.145
807, 1.99254, 0.411447, 161.856, 0, 0, 0, -0.126953, 0.381836, -9.81543, 12.8.2021 17:14:24.153
808, 1.99254, 0.411447, 161.856, 0, 0, -0.000976562, -0.0224609, 0.332031, -9.8418, 12.8.2021 17:14:24.161
809, 1.99254, 0.411447, 161.856, 0, -0.000976562, 0, -0.0654297, 0.34082, -9.82227, 12.8.2021 17:14:24.169
810, 1.99254, 0.411447, 161.856, 0, 0, 0, -0.101562, 0.370117, -9.84961, 12.8.2021 17:14:24.177
811, 1.99141, 0.404426, 161.849, 0, 0, 0, -0.0136719, 0.329102, -9.83301, 12.8.2021 17:14:24.185
812, 1.99141, 0.404426, 161.849, -0.000976562, 0, 0, -0.115234, 0.373047, -9.79004, 12.8.2021 17:14:24.193
813, 1.99141, 0.404426, 161.849, 0, 0, 0, -0.0917969, 0.375, -9.84668, 12.8.2021 17:14:24.201
814, 1.99141, 0.404426, 161.849, -0.00195312, 0, -0.000976562, -0.0439453, 0.348633, -9.83203, 12.8.2021 17:14:24.209
815, 1.99941, 0.410228, 161.849, -0.00195312, 0, 0, -0.116211, 0.323242, -9.85547, 12.8.2021 17:14:24.217
816, 1.99941, 0.410228, 161.849, -0.00195312, -0.000976562, -0.000976562, -0.0556641, 0.335938, -9.83203, 12.8.2021 17:14:24.225
817, 1.99941, 0.410228, 161.849, -0.00195312, -0.000976562, -0.000976562, -0.0507812, 0.319336, -9.81641, 12.8.2021 17:14:24.233
818, 1.99941, 0.410228, 161.849, 0, -0.00195312, 0, -0.113281, 0.337891, -9.81445, 12.8.2021 17:14:24.241
819, 1.99941, 0.410228, 161.849, 0, -0.000976562, 0, -0.0205078, 0.348633, -9.83496, 12.8.2021 17:14:24.249
820, 1.99941, 0.410228, 161.849, -0.00195312, -0.000976562, -0.000976562, -0.0820312, 0.350586, -9.82422, 12.8.2021 17:14:24.257
821, 1.99941, 0.410228, 161.849, -0.00195312, 0, 0, -0.115234, 0.361328, -9.79688, 12.8.2021 17:14:24.265
822, 2.00631, 0.409126, 161.849, -0.00195312, 0, -0.000976562, -0.0302734, 0.332031, -9.83984, 12.8.2021 17:14:24.273
823, 2.00631, 0.409126, 161.849, -0.00195312, -0.000976562, 0, -0.125, 0.338867, -9.84277, 12.8.2021 17:14:24.281
824, 2.00631, 0.409126, 161.849, 0, -0.000976562, -0.000976562, -0.0839844, 0.357422, -9.81641, 12.8.2021 17:14:24.289
825, 2.00631, 0.409126, 161.849, 0, -0.00195312, -0.000976562, -0.0253906, 0.353516, -9.83398, 12.8.2021 17:14:24.297
826, 2.00742, 0.416031, 161.849, 0, -0.000976562, -0.000976562, -0.143555, 0.341797, -9.77344, 12.8.2021 17:14:24.305
827, 2.00745, 0.416148, 161.856, 0, -0.000976562, -0.000976562, -0.0585938, 0.370117, -9.83594, 12.8.2021 17:14:24.313
828, 2.00745, 0.416148, 161.856, 0, -0.000976562, 0, -0.0585938, 0.353516, -9.85742, 12.8.2021 17:14:24.321
829, 2.00742, 0.416031, 161.849, 0, -0.000976562, 0, -0.118164, 0.332031, -9.83789, 12.8.2021 17:14:24.329
830, 2.00742, 0.416031, 161.849, 0, 0, 0, -0.0195312, 0.311523, -9.80762, 12.8.2021 17:14:24.337
831, 2.00742, 0.416031, 161.849, 0, -0.00195312, -0.000976562, -0.0585938, 0.326172, -9.82324, 12.8.2021 17:14:24.345
832, 2.00852, 0.422937, 161.849, 0, -0.00195312, 0, -0.108398, 0.348633, -9.84766, 12.8.2021 17:14:24.353
833, 2.00852, 0.422937, 161.849, 0, 0, -0.000976562, -0.0527344, 0.333008, -9.79688, 12.8.2021 17:14:24.361
834, 2.00855, 0.423054, 161.856, -0.00195312, 0, -0.000976562, -0.137695, 0.351562, -9.84473, 12.8.2021 17:14:24.369
835, 2.00855, 0.423054, 161.856, 0, 0, -0.000976562, -0.0634766, 0.363281, -9.85742, 12.8.2021 17:14:24.377
836, 2.00855, 0.423054, 161.856, -0.00195312, 0, -0.00195312, -0.0351562, 0.320312, -9.85645, 12.8.2021 17:14:24.385
837, 2.00855, 0.423054, 161.856, -0.00195312, -0.000976562, -0.000976562, -0.131836, 0.358398, -9.82812, 12.8.2021 17:14:24.393
838, 2.00855, 0.423054, 161.856, 0, 0, -0.000976562, -0.0390625, 0.337891, -9.79004, 12.8.2021 17:14:24.401
839, 2.00855, 0.423054, 161.856, 0, -0.000976562, 0, -0.0537109, 0.305664, -9.84473, 12.8.2021 17:14:24.409
840, 2.00855, 0.423054, 161.856, 0, 0, -0.000976562, -0.111328, 0.327148, -9.8457, 12.8.2021 17:14:24.417
841, 2.00855, 0.423054, 161.856, -0.00195312, 0, 0, -0.0175781, 0.329102, -9.81836, 12.8.2021 17:14:24.425
842, 2.00855, 0.423054, 161.856, -0.00195312, 0, 0, -0.108398, 0.316406, -9.80371, 12.8.2021 17:14:24.433
843, 2.00165, 0.424156, 161.856, 0, 0, 0, -0.0966797, 0.333984, -9.81445, 12.8.2021 17:14:24.441
844, 2.00165, 0.424156, 161.856, -0.00195312, 0, -0.000976562, -0.03125, 0.337891, -9.79688, 12.8.2021 17:14:24.449
845, 2.00165, 0.424156, 161.856, 0, 0, -0.000976562, -0.105469, 0.352539, -9.81934, 12.8.2021 17:14:24.457
846, 2.00165, 0.424156, 161.856, 0, 0, 0, -0.0849609, 0.358398, -9.84766, 12.8.2021 17:14:24.465
847, 2.00165, 0.424156, 161.856, 0, 0, 0, -0.0605469, 0.333008, -9.80176, 12.8.2021 17:14:24.473
848, 2.00165, 0.424156, 161.856, -0.000976562, 0, 0, -0.121094, 0.366211, -9.85156, 12.8.2021 17:14:24.481
849, 2.00165, 0.424156, 161.856, -0.000976562, 0, 0, -0.0332031, 0.328125, -9.87012, 12.8.2021 17:14:24.489
850, 2.00165, 0.424156, 161.856, 0, -0.000976562, 0, -0.0498047, 0.34668, -9.87402, 12.8.2021 17:14:24.497
851, 2.00162, 0.42404, 161.849, 0, -0.000976562, -0.000976562, -0.103516, 0.359375, -9.80664, 12.8.2021 17:14:24.505
852, 1.99471, 0.425142, 161.849, 0, -0.000976562, 0, -0.0146484, 0.321289, -9.80273, 12.8.2021 17:14:24.513
853, 1.99471, 0.425142, 161.849, 0.000976562, -0.000976562, 0, -0.101562, 0.352539, -9.82422, 12.8.2021 17:14:24.521
854, 1.99471, 0.425142, 161.849, 0, 0, 0, -0.0947266, 0.358398, -9.83594, 12.8.2021 17:14:24.529
855, 1.99471, 0.425142, 161.849, 0, 0, 0.000976562, -0.0390625, 0.319336, -9.83496, 12.8.2021 17:14:24.537
856, 1.99471, 0.425142, 161.849, 0, 0, 0, -0.120117, 0.345703, -9.82324, 12.8.2021 17:14:24.545
857, 1.99471, 0.425142, 161.849, 0, 0, 0, -0.0800781, 0.353516, -9.85254, 12.8.2021 17:14:24.553
858, 1.99471, 0.425142, 161.849, 0, 0, -0.000976562, -0.0751953, 0.341797, -9.85059, 12.8.2021 17:14:24.561
859, 1.99471, 0.425142, 161.849, 0, -0.000976562, -0.00195312, -0.105469, 0.359375, -9.79492, 12.8.2021 17:14:24.569
860, 1.99471, 0.425142, 161.849, -0.000976562, 0, -0.000976562, -0.03125, 0.353516, -9.77734, 12.8.2021 17:14:24.577
861, 1.99471, 0.425142, 161.849, -0.000976562, 0, -0.000976562, -0.0517578, 0.333008, -9.86523, 12.8.2021 17:14:24.585
862, 2.00162, 0.42404, 161.849, -0.000976562, 0, 0.000976562, -0.103516, 0.358398, -9.83496, 12.8.2021 17:14:24.593
863, 2.00162, 0.42404, 161.849, -0.000976562, -0.000976562, 0, -0.0507812, 0.349609, -9.80078, 12.8.2021 17:14:24.601
864, 2.00162, 0.42404, 161.849, 0, 0, -0.000976562, -0.0869141, 0.347656, -9.81445, 12.8.2021 17:14:24.609
865, 2.00162, 0.42404, 161.849, 0.000976562, 0, 0, -0.0820312, 0.360352, -9.81934, 12.8.2021 17:14:24.617
866, 2.00162, 0.42404, 161.849, 0, 0, 0, -0.0371094, 0.337891, -9.81836, 12.8.2021 17:14:24.625
867, 2.00162, 0.42404, 161.849, 0, -0.000976562, 0, -0.117188, 0.341797, -9.76758, 12.8.2021 17:14:24.633
868, 2.00162, 0.42404, 161.849, 0, 0, 0, -0.0996094, 0.353516, -9.84473, 12.8.2021 17:14:24.641
869, 2.00162, 0.42404, 161.849, 0, 0, -0.000976562, -0.0322266, 0.317383, -9.84277, 12.8.2021 17:14:24.649
870, 2.00162, 0.42404, 161.849, 0, 0, -0.000976562, -0.123047, 0.348633, -9.82129, 12.8.2021 17:14:24.657
871, 2.00162, 0.42404, 161.849, 0, 0, 0, -0.0556641, 0.326172, -9.79688, 12.8.2021 17:14:24.665
872, 2.00162, 0.42404, 161.849, 0, 0, -0.000976562, -0.0673828, 0.34082, -9.80566, 12.8.2021 17:14:24.673
873, 2.00162, 0.42404, 161.849, 0.000976562, 0, -0.000976562, -0.105469, 0.381836, -9.81348, 12.8.2021 17:14:24.681
874, 2.00162, 0.42404, 161.849, 0, -0.000976562, -0.000976562, -0.0322266, 0.320312, -9.84473, 12.8.2021 17:14:24.689
875, 2.00162, 0.42404, 161.849, 0, -0.000976562, 0, -0.103516, 0.331055, -9.80078, 12.8.2021 17:14:24.697
876, 2.00162, 0.42404, 161.849, 0, -0.000976562, 0, -0.0771484, 0.352539, -9.82422, 12.8.2021 17:14:24.705
877, 2.00162, 0.42404, 161.849, 0, -0.000976562, -0.000976562, -0.046875, 0.320312, -9.84473, 12.8.2021 17:14:24.713
878, 2.00272, 0.430945, 161.849, 0, -0.000976562, 0, -0.123047, 0.353516, -9.82812, 12.8.2021 17:14:24.721
879, 2.00272, 0.430945, 161.849, 0, -0.000976562, 0, -0.0771484, 0.335938, -9.81543, 12.8.2021 17:14:24.729
880, 2.00272, 0.430945, 161.849, 0, -0.000976562, 0, -0.0556641, 0.328125, -9.78711, 12.8.2021 17:14:24.737
881, 2.00272, 0.430945, 161.849, 0, 0, 0, -0.115234, 0.338867, -9.83105, 12.8.2021 17:14:24.745
882, 2.00272, 0.430945, 161.849, 0, 0, 0, -0.0380859, 0.320312, -9.77344, 12.8.2021 17:14:24.753
883, 2.00272, 0.430945, 161.849, 0, 0, 0, -0.0576172, 0.326172, -9.79883, 12.8.2021 17:14:24.761
884, 1.99582, 0.432048, 161.849, 0, 0, 0, -0.111328, 0.348633, -9.83984, 12.8.2021 17:14:24.769
885, 1.99582, 0.432048, 161.849, 0.000976562, -0.000976562, 0, -0.0439453, 0.317383, -9.83008, 12.8.2021 17:14:24.777
886, 1.99582, 0.432048, 161.849, 0.000976562, -0.000976562, -0.000976562, -0.0966797, 0.353516, -9.83594, 12.8.2021 17:14:24.785
887, 1.99582, 0.432048, 161.849, 0, -0.000976562, -0.000976562, -0.0791016, 0.354492, -9.80273, 12.8.2021 17:14:24.793
888, 1.99582, 0.432048, 161.849, 0, -0.000976562, -0.000976562, -0.0175781, 0.319336, -9.82324, 12.8.2021 17:14:24.801
889, 1.99582, 0.432048, 161.849, -0.000976562, 0, 0, -0.0986328, 0.355469, -9.81641, 12.8.2021 17:14:24.809
890, 1.99582, 0.432048, 161.849, 0, -0.000976562, -0.000976562, -0.0722656, 0.337891, -9.79883, 12.8.2021 17:14:24.817
891, 1.99582, 0.432048, 161.849, 0, -0.000976562, -0.000976562, -0.0517578, 0.332031, -9.85156, 12.8.2021 17:14:24.825
892, 1.98891, 0.43315, 161.849, 0.000976562, -0.000976562, -0.000976562, -0.110352, 0.355469, -9.81836, 12.8.2021 17:14:24.833
893, 1.98891, 0.43315, 161.849, 0.000976562, 0, 0, -0.0224609, 0.354492, -9.79883, 12.8.2021 17:14:24.841
894, 1.98891, 0.43315, 161.849, 0.000976562, 0, 0, -0.0703125, 0.314453, -9.82812, 12.8.2021 17:14:24.849
895, 1.98891, 0.43315, 161.849, 0.000976562, -0.000976562, 0, -0.105469, 0.333008, -9.80078, 12.8.2021 17:14:24.857
896, 1.98781, 0.426245, 161.849, 0, -0.00195312, 0, -0.015625, 0.34082, -9.83691, 12.8.2021 17:14:24.865
897, 1.98781, 0.426245, 161.849, 0, -0.000976562, -0.000976562, -0.103516, 0.375, -9.83691, 12.8.2021 17:14:24.873
898, 1.98781, 0.426245, 161.849, 0.000976562, 0, -0.000976562, -0.0966797, 0.347656, -9.81934, 12.8.2021 17:14:24.881
899, 1.98781, 0.426245, 161.849, 0, -0.000976562, -0.000976562, -0.0439453, 0.329102, -9.81836, 12.8.2021 17:14:24.889
900, 1.98781, 0.426245, 161.849, 0.000976562, -0.000976562, 0, -0.113281, 0.364258, -9.81348, 12.8.2021 17:14:24.897
901, 1.98781, 0.426245, 161.849, 0.000976562, -0.000976562, 0, -0.0517578, 0.301758, -9.86328, 12.8.2021 17:14:24.905
902, 1.98781, 0.426245, 161.849, 0.000976562, -0.000976562, 0, -0.0537109, 0.321289, -9.82031, 12.8.2021 17:14:24.913
903, 1.98781, 0.426245, 161.849, 0, -0.000976562, 0, -0.138672, 0.374023, -9.81055, 12.8.2021 17:14:24.921
904, 1.98781, 0.426245, 161.849, 0, -0.000976562, 0, -0.0429688, 0.322266, -9.77344, 12.8.2021 17:14:24.929
905, 1.98781, 0.426245, 161.849, -0.000976562, -0.000976562, 0, -0.0654297, 0.326172, -9.79395, 12.8.2021 17:14:24.937
906, 1.98781, 0.426245, 161.849, 0, -0.000976562, 0, -0.0859375, 0.34668, -9.78418, 12.8.2021 17:14:24.945
907, 1.98781, 0.426245, 161.849, 0, -0.000976562, 0, -0.0224609, 0.350586, -9.83691, 12.8.2021 17:14:24.953
908, 1.98781, 0.426245, 161.849, 0, -0.000976562, 0, -0.0917969, 0.365234, -9.83496, 12.8.2021 17:14:24.961
909, 1.98781, 0.426245, 161.849, -0.00195312, 0, 0.000976562, -0.0566406, 0.350586, -9.84082, 12.8.2021 17:14:24.969
910, 1.98781, 0.426245, 161.849, -0.00195312, 0, -0.000976562, -0.046875, 0.358398, -9.83398, 12.8.2021 17:14:24.975
911, 1.99471, 0.425142, 161.849, -0.00195312, 0, -0.000976562, -0.101562, 0.348633, -9.84082, 12.8.2021 17:14:24.983
912, 1.99471, 0.425142, 161.849, -0.000976562, 0, 0, -0.0302734, 0.334961, -9.85156, 12.8.2021 17:14:24.991
913, 1.99361, 0.418237, 161.849, -0.00195312, -0.000976562, -0.000976562, -0.0625, 0.306641, -9.81152, 12.8.2021 17:14:24.999
914, 1.99361, 0.418237, 161.849, -0.00195312, -0.000976562, 0, -0.148438, 0.345703, -9.80469, 12.8.2021 17:14:25.007
915, 1.99361, 0.418237, 161.849, -0.00195312, 0, 0, -0.015625, 0.329102, -9.81641, 12.8.2021 17:14:25.015
916, 1.99361, 0.418237, 161.849, -0.000976562, -0.000976562, -0.000976562, -0.0683594, 0.338867, -9.82422, 12.8.2021 17:14:25.023
917, 1.99361, 0.418237, 161.849, -0.00195312, 0, 0, -0.120117, 0.355469, -9.82324, 12.8.2021 17:14:25.031
918, 1.99361, 0.418237, 161.849, -0.000976562, 0, 0, -0.0292969, 0.347656, -9.82031, 12.8.2021 17:14:25.039
919, 1.99361, 0.418237, 161.849, -0.000976562, 0, 0, -0.110352, 0.360352, -9.82324, 12.8.2021 17:14:25.047
920, 2.00051, 0.417134, 161.849, -0.000976562, -0.000976562, 0.000976562, -0.0703125, 0.375, -9.85449, 12.8.2021 17:14:25.055
921, 2.00051, 0.417134, 161.849, -0.000976562, -0.000976562, 0, -0.0625, 0.321289, -9.80859, 12.8.2021 17:14:25.063
922, 2.00051, 0.417134, 161.849, -0.000976562, 0, -0.000976562, -0.108398, 0.338867, -9.82129, 12.8.2021 17:14:25.071
923, 2.00051, 0.417134, 161.849, -0.00195312, -0.000976562, -0.000976562, -0.0537109, 0.333008, -9.80859, 12.8.2021 17:14:25.079
924, 2.00051, 0.417134, 161.849, -0.000976562, 0, 0, -0.0654297, 0.365234, -9.84961, 12.8.2021 17:14:25.087
925, 2.00051, 0.417134, 161.849, -0.00195312, 0, 0, -0.126953, 0.364258, -9.80176, 12.8.2021 17:14:25.095
926, 2.00051, 0.417134, 161.849, -0.000976562, 0, -0.000976562, -0.0195312, 0.352539, -9.81055, 12.8.2021 17:14:25.103
927, 2.00742, 0.416031, 161.849, -0.000976562, -0.000976562, -0.000976562, -0.100586, 0.344727, -9.7959, 12.8.2021 17:14:25.111
928, 2.00742, 0.416031, 161.849, 0, 0, -0.000976562, -0.0888672, 0.382812, -9.79492, 12.8.2021 17:14:25.119
929, 2.00742, 0.416031, 161.849, -0.000976562, 0.000976562, -0.000976562, -0.0253906, 0.329102, -9.8252, 12.8.2021 17:14:25.127
930, 2.00742, 0.416031, 161.849, -0.000976562, 0, 0, -0.0888672, 0.347656, -9.82129, 12.8.2021 17:14:25.135
931, 2.00742, 0.416031, 161.849, -0.00195312, -0.000976562, -0.000976562, -0.09375, 0.347656, -9.81934, 12.8.2021 17:14:25.143
932, 2.01432, 0.414929, 161.849, -0.00195312, -0.000976562, -0.000976562, -0.0390625, 0.362305, -9.8291, 12.8.2021 17:14:25.151
933, 2.01432, 0.414929, 161.849, -0.000976562, 0, -0.000976562, -0.125, 0.381836, -9.82227, 12.8.2021 17:14:25.159
934, 2.01542, 0.421834, 161.849, -0.000976562, -0.000976562, 0.000976562, -0.0371094, 0.338867, -9.83496, 12.8.2021 17:14:25.167
935, 2.02232, 0.420731, 161.849, -0.000976562, 0, 0, -0.0673828, 0.333984, -9.81738, 12.8.2021 17:14:25.175
936, 2.02232, 0.420731, 161.849, -0.000976562, 0, 0, -0.110352, 0.354492, -9.80273, 12.8.2021 17:14:25.183
937, 2.02232, 0.420731, 161.849, -0.00195312, -0.000976562, -0.000976562, -0.0146484, 0.353516, -9.78223, 12.8.2021 17:14:25.191
938, 2.02232, 0.420731, 161.849, 0, -0.000976562, -0.000976562, -0.0800781, 0.325195, -9.85059, 12.8.2021 17:14:25.199
939, 2.02122, 0.413826, 161.849, -0.000976562, 0, 0, -0.0751953, 0.334961, -9.85547, 12.8.2021 17:14:25.207
940, 2.02122, 0.413826, 161.849, -0.000976562, 0, 0, -0.0458984, 0.345703, -9.80859, 12.8.2021 17:14:25.215
941, 2.02122, 0.413826, 161.849, 0, 0, 0, -0.119141, 0.356445, -9.77832, 12.8.2021 17:14:25.223
942, 2.02122, 0.413826, 161.849, 0, -0.000976562, 0, -0.0820312, 0.350586, -9.83594, 12.8.2021 17:14:25.231
943, 2.02122, 0.413826, 161.849, -0.000976562, -0.000976562, 0, -0.0488281, 0.325195, -9.85156, 12.8.2021 17:14:25.239
944, 2.02922, 0.419629, 161.849, -0.000976562, -0.000976562, -0.000976562, -0.108398, 0.357422, -9.81836, 12.8.2021 17:14:25.247
945, 2.02922, 0.419629, 161.849, 0, 0, -0.000976562, -0.0224609, 0.365234, -9.82715, 12.8.2021 17:14:25.255
946, 2.02812, 0.412723, 161.849, 0, 0, -0.000976562, -0.0390625, 0.368164, -9.78906, 12.8.2021 17:14:25.263
947, 2.02812, 0.412723, 161.849, 0, 0, -0.000976562, -0.125, 0.381836, -9.82227, 12.8.2021 17:14:25.271
948, 2.02812, 0.412723, 161.849, 0, -0.000976562, 0, -0.0322266, 0.335938, -9.80859, 12.8.2021 17:14:25.279
949, 2.02812, 0.412723, 161.849, 0, -0.000976562, 0, -0.0966797, 0.324219, -9.81543, 12.8.2021 17:14:25.287
950, 2.02812, 0.412723, 161.849, 0.000976562, 0, 0, -0.103516, 0.34375, -9.81934, 12.8.2021 17:14:25.295
951, 2.02812, 0.412723, 161.849, 0, 0, 0, -0.0322266, 0.330078, -9.85645, 12.8.2021 17:14:25.303
952, 2.02922, 0.419629, 161.849, -0.000976562, -0.000976562, -0.000976562, -0.141602, 0.37207, -9.82031, 12.8.2021 17:14:25.311
953, 2.02922, 0.419629, 161.849, -0.000976562, -0.000976562, -0.000976562, -0.0644531, 0.371094, -9.79102, 12.8.2021 17:14:25.319
954, 2.03613, 0.418526, 161.848, 0, -0.000976562, 0, -0.0488281, 0.324219, -9.81348, 12.8.2021 17:14:25.327
955, 2.03613, 0.418526, 161.848, -0.000976562, -0.000976562, -0.000976562, -0.141602, 0.34668, -9.83789, 12.8.2021 17:14:25.335
956, 2.03613, 0.418526, 161.848, -0.000976562, 0, 0, -0.0488281, 0.322266, -9.83008, 12.8.2021 17:14:25.343
957, 2.03613, 0.418526, 161.848, -0.000976562, 0, 0, -0.0800781, 0.336914, -9.83887, 12.8.2021 17:14:25.351
958, 2.03033, 0.426534, 161.848, 0, 0, -0.000976562, -0.110352, 0.34082, -9.80273, 12.8.2021 17:14:25.359
959, 2.03033, 0.426534, 161.848, -0.000976562, -0.000976562, -0.000976562, 0.00585938, 0.349609, -9.80664, 12.8.2021 17:14:25.367
960, 2.03033, 0.426534, 161.848, 0, 0, -0.000976562, -0.0888672, 0.342773, -9.80273, 12.8.2021 17:14:25.375
961, 2.03033, 0.426534, 161.848, 0.000976562, 0, -0.000976562, -0.0673828, 0.383789, -9.80664, 12.8.2021 17:14:25.383
962, 2.03033, 0.426534, 161.848, 0, -0.000976562, 0, -0.0517578, 0.326172, -9.82812, 12.8.2021 17:14:25.391
963, 2.03033, 0.426534, 161.848, -0.000976562, 0, 0.000976562, -0.100586, 0.368164, -9.78516, 12.8.2021 17:14:25.399
964, 2.03033, 0.426534, 161.848, 0, -0.000976562, -0.000976562, -0.0576172, 0.359375, -9.80566, 12.8.2021 17:14:25.407
965, 2.02922, 0.419629, 161.849, 0, 0, -0.000976562, -0.0341797, 0.337891, -9.81543, 12.8.2021 17:14:25.415
966, 2.02922, 0.419629, 161.849, 0, 0, 0, -0.133789, 0.348633, -9.76172, 12.8.2021 17:14:25.423
967, 2.02922, 0.419629, 161.849, 0.000976562, 0, 0, -0.0458984, 0.335938, -9.82031, 12.8.2021 17:14:25.431
968, 2.02922, 0.419629, 161.849, 0.000976562, -0.000976562, 0, -0.0947266, 0.34375, -9.84082, 12.8.2021 17:14:25.439
969, 2.03033, 0.426534, 161.848, 0, -0.00195312, -0.000976562, -0.117188, 0.357422, -9.80469, 12.8.2021 17:14:25.447
970, 2.03033, 0.426534, 161.848, -0.000976562, -0.000976562, -0.000976562, -0.0292969, 0.342773, -9.81055, 12.8.2021 17:14:25.455
971, 2.03033, 0.426534, 161.848, -0.000976562, -0.000976562, 0, -0.0888672, 0.34375, -9.82227, 12.8.2021 17:14:25.463
972, 2.03033, 0.426534, 161.848, 0, 0, 0, -0.0898438, 0.34668, -9.84277, 12.8.2021 17:14:25.471
973, 2.03033, 0.426534, 161.848, 0, -0.000976562, 0, -0.0273438, 0.324219, -9.83496, 12.8.2021 17:14:25.479
974, 2.03033, 0.426534, 161.848, 0, -0.000976562, -0.000976562, -0.119141, 0.352539, -9.87305, 12.8.2021 17:14:25.487
975, 2.03033, 0.426534, 161.848, 0, 0, -0.000976562, -0.0771484, 0.354492, -9.80762, 12.8.2021 17:14:25.495
976, 2.03033, 0.426534, 161.848, 0.000976562, 0, 0, -0.0458984, 0.357422, -9.80371, 12.8.2021 17:14:25.503
977, 2.03033, 0.426534, 161.848, 0.000976562, -0.000976562, 0, -0.12207, 0.354492, -9.80957, 12.8.2021 17:14:25.511
978, 2.03033, 0.426534, 161.848, 0, -0.00195312, 0.000976562, -0.03125, 0.359375, -9.78906, 12.8.2021 17:14:25.519
979, 2.03033, 0.426534, 161.848, 0, -0.000976562, 0, -0.0400391, 0.341797, -9.84668, 12.8.2021 17:14:25.527
980, 2.03033, 0.426534, 161.848, -0.000976562, 0.000976562, -0.000976562, -0.116211, 0.396484, -9.84375, 12.8.2021 17:14:25.535
981, 2.03033, 0.426534, 161.848, 0, 0, -0.000976562, -0.0488281, 0.338867, -9.8252, 12.8.2021 17:14:25.543
982, 2.03033, 0.426534, 161.848, 0, -0.000976562, 0, -0.0986328, 0.348633, -9.83789, 12.8.2021 17:14:25.551
983, 2.03723, 0.425432, 161.848, 0, 0, 0, -0.0849609, 0.347656, -9.82227, 12.8.2021 17:14:25.559
984, 2.03723, 0.425432, 161.848, -0.000976562, -0.000976562, -0.000976562, -0.0361328, 0.304688, -9.7998, 12.8.2021 17:14:25.567
985, 2.03723, 0.425432, 161.848, 0, 0, -0.000976562, -0.129883, 0.350586, -9.80957, 12.8.2021 17:14:25.575
986, 2.03033, 0.426534, 161.848, 0, 0, 0, -0.0625, 0.328125, -9.79395, 12.8.2021 17:14:25.583
987, 2.03033, 0.426534, 161.848, 0, 0, -0.000976562, -0.0507812, 0.362305, -9.82422, 12.8.2021 17:14:25.591
988, 2.03033, 0.426534, 161.848, 0, 0, -0.000976562, -0.09375, 0.360352, -9.82129, 12.8.2021 17:14:25.599
989, 2.03033, 0.426534, 161.848, 0, 0, -0.000976562, -0.0664062, 0.348633, -9.85254, 12.8.2021 17:14:25.607
990, 2.03033, 0.426534, 161.848, 0, -0.000976562, -0.000976562, -0.0751953, 0.34375, -9.83398, 12.8.2021 17:14:25.615
991, 2.03033, 0.426534, 161.848, 0, 0, -0.000976562, -0.0917969, 0.367188, -9.81836, 12.8.2021 17:14:25.623
992, 2.03036, 0.426653, 161.856, 0, -0.000976562, -0.000976562, -0.0439453, 0.319336, -9.82812, 12.8.2021 17:14:25.631
993, 2.03036, 0.426653, 161.856, -0.000976562, 0, -0.000976562, -0.0957031, 0.321289, -9.79395, 12.8.2021 17:14:25.639
994, 2.03036, 0.426653, 161.856, 0, 0, 0, -0.113281, 0.348633, -9.84473, 12.8.2021 17:14:25.647
995, 2.03036, 0.426653, 161.856, 0, 0, -0.000976562, -0.0439453, 0.318359, -9.79297, 12.8.2021 17:14:25.655
996, 2.03036, 0.426653, 161.856, 0, -0.000976562, -0.000976562, -0.123047, 0.352539, -9.81641, 12.8.2021 17:14:25.663
997, 2.03036, 0.426653, 161.856, -0.000976562, 0, -0.000976562, -0.0703125, 0.349609, -9.80566, 12.8.2021 17:14:25.671
998, 2.03036, 0.426653, 161.856, 0, 0, 0, -0.0390625, 0.326172, -9.80469, 12.8.2021 17:14:25.679
999, 2.03146, 0.433558, 161.855, -0.000976562, 0, 0, -0.12793, 0.366211, -9.85645, 12.8.2021 17:14:25.687
1000, 2.02456, 0.43466, 161.856, 0, -0.000976562, 0, -0.0253906, 0.333984, -9.83496, 12.8.2021 17:14:25.695
1001, 2.02456, 0.43466, 161.856, 0, -0.000976562, 0, -0.0703125, 0.34082, -9.82422, 12.8.2021 17:14:25.703
1002, 2.02456, 0.43466, 161.856, 0, -0.000976562, 0, -0.108398, 0.348633, -9.83105, 12.8.2021 17:14:25.711
1003, 2.02456, 0.43466, 161.856, 0, 0, 0, -0.0351562, 0.348633, -9.8418, 12.8.2021 17:14:25.719
1004, 2.02453, 0.434543, 161.848, 0, -0.000976562, 0, -0.108398, 0.331055, -9.82422, 12.8.2021 17:14:25.727
1005, 2.02453, 0.434543, 161.848, 0, -0.000976562, 0, -0.0820312, 0.338867, -9.83398, 12.8.2021 17:14:25.735
1006, 2.02453, 0.434543, 161.848, 0, -0.000976562, 0, -0.0126953, 0.326172, -9.81641, 12.8.2021 17:14:25.743
1007, 2.02453, 0.434543, 161.848, 0, -0.000976562, -0.000976562, -0.111328, 0.359375, -9.86621, 12.8.2021 17:14:25.751
1008, 2.01763, 0.435645, 161.848, 0.000976562, -0.000976562, -0.000976562, -0.0576172, 0.349609, -9.81055, 12.8.2021 17:14:25.759
1009, 2.01652, 0.42874, 161.848, 0.000976562, 0, 0.000976562, -0.0566406, 0.333984, -9.8418, 12.8.2021 17:14:25.767
1010, 2.01652, 0.42874, 161.848, 0, 0, 0, -0.108398, 0.345703, -9.82129, 12.8.2021 17:14:25.775
1011, 2.01652, 0.42874, 161.848, 0, -0.000976562, 0.000976562, -0.0488281, 0.360352, -9.82715, 12.8.2021 17:14:25.783
1012, 2.01652, 0.42874, 161.848, 0.000976562, 0, 0, -0.0615234, 0.325195, -9.84863, 12.8.2021 17:14:25.791
1013, 2.01652, 0.42874, 161.848, 0.000976562, -0.000976562, -0.000976562, -0.0800781, 0.333984, -9.83887, 12.8.2021 17:14:25.799
1014, 2.01652, 0.42874, 161.848, 0, -0.000976562, 0, -0.0253906, 0.320312, -9.85645, 12.8.2021 17:14:25.807
1015, 2.00962, 0.429842, 161.849, 0, 0, -0.000976562, -0.120117, 0.338867, -9.82617, 12.8.2021 17:14:25.815
1016, 2.00962, 0.429842, 161.849, 0, 0.000976562, 0, -0.0751953, 0.342773, -9.80762, 12.8.2021 17:14:25.823
1017, 2.00852, 0.422937, 161.849, 0, 0.000976562, 0, -0.0253906, 0.326172, -9.82324, 12.8.2021 17:14:25.831
1018, 2.00852, 0.422937, 161.849, 0, -0.000976562, -0.000976562, -0.110352, 0.360352, -9.81348, 12.8.2021 17:14:25.839
1019, 2.00852, 0.422937, 161.849, 0, -0.00195312, 0, -0.0742188, 0.356445, -9.77637, 12.8.2021 17:14:25.847
1020, 2.00852, 0.422937, 161.849, 0, -0.000976562, 0, -0.0673828, 0.333984, -9.82031, 12.8.2021 17:14:25.855
1021, 2.00852, 0.422937, 161.849, 0, 0, 0, -0.131836, 0.364258, -9.80859, 12.8.2021 17:14:25.863
1022, 2.00852, 0.422937, 161.849, 0, 0, 0, -0.0224609, 0.292969, -9.80762, 12.8.2021 17:14:25.871
1023, 2.00852, 0.422937, 161.849, 0, -0.000976562, 0, -0.0390625, 0.338867, -9.83496, 12.8.2021 17:14:25.879
1024, 2.00162, 0.42404, 161.849, 0, -0.000976562, 0, -0.115234, 0.37207, -9.83496, 12.8.2021 17:14:25.887
1025, 2.00162, 0.42404, 161.849, 0, -0.000976562, 0, -0.0507812, 0.324219, -9.81152, 12.8.2021 17:14:25.895
1026, 2.00162, 0.42404, 161.849, -0.000976562, 0, -0.000976562, -0.126953, 0.328125, -9.79297, 12.8.2021 17:14:25.903
1027, 2.00162, 0.42404, 161.849, -0.000976562, -0.000976562, 0, -0.0771484, 0.350586, -9.80957, 12.8.2021 17:14:25.911
1028, 2.00162, 0.42404, 161.849, 0, -0.000976562, 0, -0.0566406, 0.34668, -9.8623, 12.8.2021 17:14:25.919
1029, 2.00272, 0.430945, 161.849, 0, -0.00195312, -0.000976562, -0.115234, 0.364258, -9.81348, 12.8.2021 17:14:25.927
1030, 2.00272, 0.430945, 161.849, 0, -0.000976562, -0.000976562, -0.0605469, 0.305664, -9.83301, 12.8.2021 17:14:25.933
1031, 2.00272, 0.430945, 161.849, 0, -0.000976562, -0.00195312, -0.0703125, 0.324219, -9.83887, 12.8.2021 17:14:25.941
1032, 2.00272, 0.430945, 161.849, -0.000976562, -0.000976562, -0.000976562, -0.123047, 0.376953, -9.81836, 12.8.2021 17:14:25.949
1033, 2.00272, 0.430945, 161.849, -0.000976562, -0.000976562, 0, -0.0410156, 0.334961, -9.78027, 12.8.2021 17:14:25.957
1034, 2.00272, 0.430945, 161.849, 0, -0.000976562, -0.000976562, -0.0800781, 0.338867, -9.84375, 12.8.2021 17:14:25.965
1035, 2.00272, 0.430945, 161.849, 0, 0, -0.000976562, -0.0751953, 0.354492, -9.8125, 12.8.2021 17:14:25.973
1036, 2.00272, 0.430945, 161.849, 0, -0.000976562, 0, -0.00683594, 0.330078, -9.85156, 12.8.2021 17:14:25.981
1037, 2.00272, 0.430945, 161.849, -0.00195312, -0.000976562, -0.000976562, -0.106445, 0.357422, -9.82812, 12.8.2021 17:14:25.989
1038, 2.00272, 0.430945, 161.849, 0, 0, -0.000976562, -0.0966797, 0.352539, -9.81641, 12.8.2021 17:14:25.997
1039, 2.00272, 0.430945, 161.849, 0, -0.00195312, 0, -0.0419922, 0.353516, -9.84863, 12.8.2021 17:14:26.005
1040, 2.00272, 0.430945, 161.849, 0, -0.000976562, 0, -0.145508, 0.351562, -9.78809, 12.8.2021 17:14:26.013
1041, 2.00272, 0.430945, 161.849, 0, 0, -0.000976562, -0.0644531, 0.339844, -9.78418, 12.8.2021 17:14:26.021
1042, 2.00272, 0.430945, 161.849, 0, -0.000976562, 0, -0.0654297, 0.341797, -9.84375, 12.8.2021 17:14:26.029
1043, 2.00382, 0.437851, 161.848, -0.00195312, 0, 0, -0.0800781, 0.381836, -9.82324, 12.8.2021 17:14:26.037
1044, 2.00272, 0.430945, 161.849, 0, 0, 0, -0.00195312, 0.334961, -9.86133, 12.8.2021 17:14:26.045
1045, 2.00962, 0.429842, 161.849, 0.000976562, -0.000976562, -0.000976562, -0.0703125, 0.375, -9.84277, 12.8.2021 17:14:26.053
1046, 2.00962, 0.429842, 161.849, 0, -0.000976562, -0.000976562, -0.0654297, 0.342773, -9.81055, 12.8.2021 17:14:26.061
1047, 2.00962, 0.429842, 161.849, 0.000976562, -0.000976562, 0, -0.0205078, 0.314453, -9.82812, 12.8.2021 17:14:26.069
1048, 2.00962, 0.429842, 161.849, -0.00195312, 0, 0, -0.105469, 0.345703, -9.80469, 12.8.2021 17:14:26.077
1049, 2.00852, 0.422937, 161.849, 0, 0.000976562, -0.000976562, -0.0654297, 0.342773, -9.81738, 12.8.2021 17:14:26.085
1050, 2.00852, 0.422937, 161.849, 0, 0, -0.000976562, -0.0439453, 0.319336, -9.83008, 12.8.2021 17:14:26.093
1051, 2.00852, 0.422937, 161.849, -0.00195312, 0, 0.000976562, -0.129883, 0.357422, -9.81152, 12.8.2021 17:14:26.101
1052, 2.00852, 0.422937, 161.849, -0.00195312, 0, 0, -0.0507812, 0.352539, -9.82227, 12.8.2021 17:14:26.109
1053, 2.00852, 0.422937, 161.849, 0, -0.000976562, -0.000976562, -0.0390625, 0.326172, -9.81348, 12.8.2021 17:14:26.117
1054, 2.00852, 0.422937, 161.849, 0, 0, 0, -0.111328, 0.357422, -9.82812, 12.8.2021 17:14:26.125
1055, 2.00742, 0.416031, 161.849, 0, 0, -0.000976562, -0.0292969, 0.328125, -9.81152, 12.8.2021 17:14:26.133
1056, 2.00742, 0.416031, 161.849, -0.00195312, 0, 0, -0.0742188, 0.323242, -9.79883, 12.8.2021 17:14:26.141
1057, 2.01432, 0.414929, 161.849, -0.00195312, 0, 0, -0.09375, 0.353516, -9.82812, 12.8.2021 17:14:26.149
1058, 2.01432, 0.414929, 161.849, -0.00195312, -0.000976562, 0, -0.0439453, 0.322266, -9.83984, 12.8.2021 17:14:26.157
1059, 2.00742, 0.416031, 161.849, -0.00195312, -0.000976562, 0, -0.0888672, 0.311523, -9.78516, 12.8.2021 17:14:26.165
1060, 2.00742, 0.416031, 161.849, -0.00195312, 0, 0, -0.0556641, 0.335938, -9.81738, 12.8.2021 17:14:26.173
1061, 2.00631, 0.409126, 161.849, -0.00195312, -0.000976562, -0.000976562, -0.0419922, 0.327148, -9.83691, 12.8.2021 17:14:26.181
1062, 2.00631, 0.409126, 161.849, -0.00195312, -0.000976562, -0.000976562, -0.160156, 0.378906, -9.8125, 12.8.2021 17:14:26.189
1063, 2.00631, 0.409126, 161.849, 0, -0.000976562, -0.000976562, -0.0292969, 0.321289, -9.81641, 12.8.2021 17:14:26.197
1064, 2.00631, 0.409126, 161.849, -0.00195312, -0.000976562, 0, -0.0634766, 0.317383, -9.82324, 12.8.2021 17:14:26.205
1065, 2.00631, 0.409126, 161.849, 0, -0.000976562, 0, -0.113281, 0.326172, -9.82227, 12.8.2021 17:14:26.213
1066, 2.00631, 0.409126, 161.849, -0.00195312, 0, -0.000976562, -0.0175781, 0.314453, -9.83105, 12.8.2021 17:14:26.221
1067, 1.99941, 0.410228, 161.849, -0.00195312, -0.000976562, -0.000976562, -0.103516, 0.333984, -9.81445, 12.8.2021 17:14:26.229
1068, 1.99941, 0.410228, 161.849, 0, 0, -0.000976562, -0.101562, 0.355469, -9.82324, 12.8.2021 17:14:26.237
1069, 1.99941, 0.410228, 161.849, 0, 0, -0.000976562, -0.0390625, 0.319336, -9.83008, 12.8.2021 17:14:26.245
1070, 1.99941, 0.410228, 161.849, 0, 0, 0, -0.0957031, 0.349609, -9.7959, 12.8.2021 17:14:26.253
