Seq, Rot x, Rot y, Rot z, Vel x, Vel y, Vel z, Acc x, Acc y, Acc z, Time(m.d.y h:m:s.ms)
0, 1.88707, 0.378585, 347.136, -0.00195312, 0.00195312, -0.000976562, -0.0654297, 0.324219, -9.80859, 1.11.2022 19:4:42.212
1, 1.89323, 0.370853, 347.136, -0.00195312, 0.00195312, -0.000976562, -0.0917969, 0.335938, -9.80078, 1.11.2022 19:4:42.220
2, 1.89323, 0.370853, 347.136, -0.00195312, 0.000976562, -0.000976562, -0.0458984, 0.303711, -9.79492, 1.11.2022 19:4:42.228
3, 1.89323, 0.370853, 347.136, -0.00195312, 0.000976562, 0.000976562, -0.09375, 0.352539, -9.80469, 1.11.2022 19:4:42.236
4, 1.89323, 0.370853, 347.136, -0.000976562, 0.00195312, 0, -0.0410156, 0.348633, -9.77246, 1.11.2022 19:4:42.244
5, 1.89323, 0.370853, 347.136, -0.00195312, 0.000976562, 0, -0.0244141, 0.30957, -9.80469, 1.11.2022 19:4:42.252
6, 1.89323, 0.370853, 347.136, -0.00195312, 0.00195312, 0.000976562, -0.120117, 0.357422, -9.80176, 1.11.2022 19:4:42.260
7, 1.89323, 0.370853, 347.136, -0.00195312, 0.000976562, 0, -0.0283203, 0.329102, -9.75488, 1.11.2022 19:4:42.268
8, 1.89323, 0.370853, 347.136, -0.000976562, 0.00195312, 0, -0.0458984, 0.31543, -9.76465, 1.11.2022 19:4:42.276
9, 1.89323, 0.370853, 347.136, -0.00292969, 0.000976562, 0.000976562, -0.0791016, 0.337891, -9.80762, 1.11.2022 19:4:42.284
10, 1.90018, 0.37007, 347.136, -0.000976562, 0.00195312, 0.000976562, 0.0107422, 0.335938, -9.83105, 1.11.2022 19:4:42.292
11, 1.90018, 0.37007, 347.136, -0.000976562, 0.00195312, 0, -0.0869141, 0.336914, -9.84082, 1.11.2022 19:4:42.300
12, 1.89938, 0.363008, 347.13, -0.000976562, 0.00195312, 0, -0.0703125, 0.326172, -9.82031, 1.11.2022 19:4:42.308
13, 1.89938, 0.363008, 347.13, -0.00195312, 0.00195312, 0, -0.0175781, 0.330078, -9.7832, 1.11.2022 19:4:42.316
14, 1.89938, 0.363008, 347.13, -0.00195312, 0.00195312, 0, -0.0976562, 0.322266, -9.77051, 1.11.2022 19:4:42.324
15, 1.89938, 0.363008, 347.13, -0.00195312, 0.000976562, -0.000976562, -0.0507812, 0.308594, -9.77637, 1.11.2022 19:4:42.332
16, 1.89938, 0.363008, 347.13, -0.00195312, 0.000976562, 0, -0.0556641, 0.326172, -9.81543, 1.11.2022 19:4:42.340
17, 1.89938, 0.363008, 347.13, -0.00195312, 0, 0.000976562, -0.12207, 0.351562, -9.76953, 1.11.2022 19:4:42.348
18, 1.89938, 0.363008, 347.13, -0.000976562, 0.000976562, -0.000976562, -0.0146484, 0.337891, -9.80469, 1.11.2022 19:4:42.356
19, 1.89938, 0.363008, 347.13, -0.00292969, 0.000976562, -0.000976562, -0.0693359, 0.313477, -9.77832, 1.11.2022 19:4:42.364
20, 1.90633, 0.362225, 347.13, -0.00195312, 0.00195312, 0.000976562, -0.0546875, 0.339844, -9.77246, 1.11.2022 19:4:42.372
21, 1.90633, 0.362225, 347.13, -0.000976562, 0.00195312, 0.000976562, -0.0361328, 0.337891, -9.80176, 1.11.2022 19:4:42.380
22, 1.90554, 0.355276, 347.13, -0.00195312, 0.000976562, 0, -0.0888672, 0.355469, -9.8125, 1.11.2022 19:4:42.388
23, 1.90554, 0.355276, 347.13, -0.00195312, 0.000976562, 0.000976562, -0.0869141, 0.347656, -9.80566, 1.11.2022 19:4:42.396
24, 1.90554, 0.355276, 347.13, -0.00195312, 0.000976562, 0.000976562, -0.0458984, 0.323242, -9.80664, 1.11.2022 19:4:42.404
25, 1.90554, 0.355276, 347.13, -0.000976562, 0.00195312, 0, -0.117188, 0.347656, -9.79102, 1.11.2022 19:4:42.412
26, 1.90554, 0.355276, 347.13, -0.000976562, 0.000976562, -0.000976562, -0.0107422, 0.34082, -9.83008, 1.11.2022 19:4:42.420
27, 1.90554, 0.355276, 347.13, -0.000976562, 0.000976562, 0, -0.0625, 0.318359, -9.80371, 1.11.2022 19:4:42.428
28, 1.90554, 0.355276, 347.13, -0.000976562, 0.000976562, 0, -0.0644531, 0.34082, -9.75391, 1.11.2022 19:4:42.436
29, 1.90554, 0.355276, 347.13, -0.00195312, 0.00195312, 0, -0.0292969, 0.334961, -9.77832, 1.11.2022 19:4:42.444
30, 1.91249, 0.354493, 347.13, -0.00195312, 0.00195312, 0.000976562, -0.0820312, 0.342773, -9.7959, 1.11.2022 19:4:42.452
31, 1.94722, 0.350576, 347.13, 0, -0.000976562, 0, -0.0585938, 0.358398, -9.83398, 1.11.2022 19:4:42.460
32, 1.94722, 0.350576, 347.13, -0.000976562, -0.000976562, -0.000976562, -0.0302734, 0.310547, -9.85449, 1.11.2022 19:4:42.468
33, 1.95417, 0.349792, 347.13, 0, -0.000976562, -0.000976562, -0.0986328, 0.361328, -9.79492, 1.11.2022 19:4:42.476
34, 1.95417, 0.349792, 347.13, -0.000976562, -0.000976562, -0.000976562, -0.0263672, 0.353516, -9.78223, 1.11.2022 19:4:42.484
35, 1.95417, 0.349792, 347.13, 0, -0.00195312, -0.00195312, -0.0390625, 0.342773, -9.80176, 1.11.2022 19:4:42.492
36, 1.95417, 0.349792, 347.13, -0.000976562, -0.000976562, -0.000976562, -0.0810547, 0.361328, -9.76953, 1.11.2022 19:4:42.500
37, 1.95417, 0.349792, 347.13, 0, -0.000976562, -0.000976562, -0.0244141, 0.279297, -9.76562, 1.11.2022 19:4:42.508
38, 1.95417, 0.349792, 347.13, -0.000976562, 0, -0.000976562, -0.0791016, 0.330078, -9.78223, 1.11.2022 19:4:42.516
39, 1.95417, 0.349792, 347.13, -0.00195312, 0, -0.000976562, -0.0791016, 0.359375, -9.78809, 1.11.2022 19:4:42.524
40, 1.95338, 0.342843, 347.13, -0.00195312, 0, -0.000976562, -0.0253906, 0.308594, -9.85449, 1.11.2022 19:4:42.532
41, 1.95338, 0.342843, 347.13, 0, 0, -0.000976562, -0.12207, 0.345703, -9.81152, 1.11.2022 19:4:42.540
42, 1.95338, 0.342843, 347.13, -0.000976562, 0, 0, -0.0458984, 0.344727, -9.77734, 1.11.2022 19:4:42.548
43, 1.95338, 0.342843, 347.13, -0.000976562, -0.000976562, 0, -0.0224609, 0.307617, -9.81934, 1.11.2022 19:4:42.556
44, 1.95338, 0.342843, 347.13, -0.000976562, -0.000976562, -0.000976562, -0.0820312, 0.342773, -9.78906, 1.11.2022 19:4:42.564
45, 1.95338, 0.342843, 347.13, -0.000976562, 0, -0.00195312, -0.0410156, 0.342773, -9.80566, 1.11.2022 19:4:42.572
46, 1.95338, 0.342843, 347.13, -0.000976562, 0, 0, -0.0537109, 0.328125, -9.81055, 1.11.2022 19:4:42.580
47, 1.95338, 0.342843, 347.13, -0.000976562, 0, -0.000976562, -0.105469, 0.341797, -9.78418, 1.11.2022 19:4:42.588
48, 1.95338, 0.342843, 347.13, -0.000976562, -0.000976562, -0.000976562, 0.000976562, 0.330078, -9.85645, 1.11.2022 19:4:42.596
49, 1.95338, 0.342843, 347.13, 0, 0, -0.00195312, -0.0634766, 0.333984, -9.84375, 1.11.2022 19:4:42.604
50, 1.95338, 0.342843, 347.13, -0.000976562, -0.000976562, -0.000976562, -0.0869141, 0.357422, -9.80273, 1.11.2022 19:4:42.612
51, 1.95338, 0.342843, 347.13, -0.000976562, 0, -0.000976562, -0.0439453, 0.298828, -9.79297, 1.11.2022 19:4:42.620
52, 1.95338, 0.342843, 347.13, -0.000976562, -0.000976562, -0.000976562, -0.108398, 0.329102, -9.82617, 1.11.2022 19:4:42.628
53, 1.95338, 0.342843, 347.13, -0.000976562, 0, 0, -0.0537109, 0.329102, -9.81543, 1.11.2022 19:4:42.636
54, 1.95338, 0.342843, 347.13, -0.000976562, -0.000976562, -0.000976562, -0.0253906, 0.314453, -9.82129, 1.11.2022 19:4:42.644
55, 1.95338, 0.342843, 347.13, -0.000976562, 0, -0.000976562, -0.0888672, 0.360352, -9.82617, 1.11.2022 19:4:42.652
56, 1.95338, 0.342843, 347.13, -0.000976562, -0.000976562, -0.000976562, -0.0205078, 0.353516, -9.83691, 1.11.2022 19:4:42.660
57, 1.95338, 0.342843, 347.13, -0.000976562, 0, -0.000976562, -0.0673828, 0.34082, -9.81543, 1.11.2022 19:4:42.668
58, 1.95338, 0.342843, 347.13, 0, 0, -0.000976562, -0.0644531, 0.339844, -9.78027, 1.11.2022 19:4:42.676
59, 1.95338, 0.342843, 347.13, -0.000976562, -0.000976562, -0.000976562, -0.0078125, 0.310547, -9.77637, 1.11.2022 19:4:42.684
60, 1.95338, 0.342843, 347.13, -0.000976562, 0, -0.000976562, -0.0820312, 0.335938, -9.81055, 1.11.2022 19:4:42.692
61, 1.95338, 0.342843, 347.13, -0.00195312, -0.00195312, -0.000976562, -0.0478516, 0.366211, -9.79102, 1.11.2022 19:4:42.700
62, 1.9526, 0.335894, 347.13, 0, -0.000976562, -0.000976562, -0.0371094, 0.337891, -9.81348, 1.11.2022 19:4:42.708
63, 1.9526, 0.335894, 347.13, -0.000976562, -0.000976562, -0.000976562, -0.0986328, 0.342773, -9.8125, 1.11.2022 19:4:42.716
64, 1.9526, 0.335894, 347.13, -0.000976562, -0.000976562, 0.000976562, -0.0410156, 0.308594, -9.77832, 1.11.2022 19:4:42.724
65, 1.9526, 0.335894, 347.13, 0, -0.000976562, 0.000976562, -0.0849609, 0.327148, -9.84863, 1.11.2022 19:4:42.732
66, 1.95338, 0.342843, 347.13, 0, -0.000976562, -0.000976562, -0.0976562, 0.351562, -9.78125, 1.11.2022 19:4:42.740
67, 1.95338, 0.342843, 347.13, -0.000976562, 0, -0.000976562, -0.0146484, 0.337891, -9.80176, 1.11.2022 19:4:42.748
68, 1.95338, 0.342843, 347.13, -0.000976562, -0.000976562, -0.000976562, -0.0878906, 0.334961, -9.85547, 1.11.2022 19:4:42.756
69, 1.95338, 0.342843, 347.13, -0.000976562, 0, -0.00195312, -0.0722656, 0.331055, -9.80859, 1.11.2022 19:4:42.764
70, 1.95338, 0.342843, 347.13, 0, 0, -0.000976562, -0.0244141, 0.325195, -9.78125, 1.11.2022 19:4:42.772
71, 1.95338, 0.342843, 347.13, -0.000976562, -0.000976562, -0.000976562, -0.113281, 0.331055, -9.80078, 1.11.2022 19:4:42.780
72, 1.95338, 0.342843, 347.13, -0.000976562, 0, 0.000976562, -0.0361328, 0.31543, -9.77832, 1.11.2022 19:4:42.788
73, 1.95338, 0.342843, 347.13, -0.000976562, -0.000976562, -0.000976562, -0.0224609, 0.319336, -9.81152, 1.11.2022 19:4:42.796
74, 1.95338, 0.342843, 347.13, 0, -0.000976562, -0.000976562, -0.0800781, 0.350586, -9.81934, 1.11.2022 19:4:42.804
75, 1.95338, 0.342843, 347.13, 0, 0, -0.000976562, -0.0175781, 0.326172, -9.80176, 1.11.2022 19:4:42.812
76, 1.9526, 0.335894, 347.13, 0, 0, 0.000976562, -0.0625, 0.314453, -9.81348, 1.11.2022 19:4:42.820
77, 1.9526, 0.335894, 347.13, -0.000976562, -0.00195312, 0.000976562, -0.0888672, 0.351562, -9.77637, 1.11.2022 19:4:42.828
78, 1.9526, 0.335894, 347.13, -0.000976562, -0.000976562, -0.000976562, -0.0175781, 0.314453, -9.81445, 1.11.2022 19:4:42.836
79, 1.94565, 0.336678, 347.13, -0.00195312, 0, 0, -0.0839844, 0.313477, -9.79395, 1.11.2022 19:4:42.844
80, 1.94565, 0.336678, 347.13, -0.000976562, 0, -0.000976562, -0.0390625, 0.319336, -9.81641, 1.11.2022 19:4:42.852
81, 1.94565, 0.336678, 347.13, -0.000976562, -0.000976562, -0.00195312, -0.0195312, 0.348633, -9.78027, 1.11.2022 19:4:42.860
82, 1.94565, 0.336678, 347.13, -0.000976562, 0, -0.000976562, -0.102539, 0.394531, -9.76562, 1.11.2022 19:4:42.868
83, 1.94565, 0.336678, 347.13, 0, 0, -0.00195312, -0.03125, 0.375, -9.7627, 1.11.2022 19:4:42.876
84, 1.9526, 0.335894, 347.13, 0, 0, -0.000976562, -0.0693359, 0.389648, -9.77832, 1.11.2022 19:4:42.884
85, 1.9526, 0.335894, 347.13, 0.00195312, 0, 0.000976562, -0.112305, 0.358398, -9.77637, 1.11.2022 19:4:42.892
86, 1.9526, 0.335894, 347.13, 0.00195312, 0, 0.000976562, -0.0263672, 0.291016, -9.75391, 1.11.2022 19:4:42.900
87, 1.9526, 0.335894, 347.13, 0, -0.000976562, 0.000976562, -0.0751953, 0.297852, -9.80957, 1.11.2022 19:4:42.908
88, 1.9526, 0.335894, 347.13, 0, -0.00195312, 0, -0.0664062, 0.295898, -9.85449, 1.11.2022 19:4:42.916
89, 1.9526, 0.335894, 347.13, -0.000976562, -0.000976562, -0.000976562, -0.0078125, 0.294922, -9.80762, 1.11.2022 19:4:42.924
90, 1.9526, 0.335894, 347.13, -0.000976562, 0, -0.000976562, -0.111328, 0.34082, -9.83301, 1.11.2022 19:4:42.932
91, 1.9526, 0.335894, 347.13, -0.00195312, -0.000976562, -0.000976562, -0.0644531, 0.320312, -9.78516, 1.11.2022 19:4:42.940
92, 1.9526, 0.335894, 347.13, -0.00195312, -0.000976562, -0.000976562, -0.0224609, 0.290039, -9.79883, 1.11.2022 19:4:42.948
93, 1.94565, 0.336678, 347.13, -0.000976562, -0.000976562, -0.000976562, -0.0908203, 0.351562, -9.7627, 1.11.2022 19:4:42.956
94, 1.94565, 0.336678, 347.13, -0.000976562, -0.000976562, 0.000976562, -0.0146484, 0.369141, -9.7959, 1.11.2022 19:4:42.964
95, 1.94565, 0.336678, 347.13, 0, -0.000976562, -0.000976562, -0.0771484, 0.369141, -9.79785, 1.11.2022 19:4:42.972
96, 1.94565, 0.336678, 347.13, 0, 0, -0.000976562, -0.0908203, 0.392578, -9.79883, 1.11.2022 19:4:42.980
97, 1.9526, 0.335894, 347.13, 0.000976562, -0.000976562, 0, -0.0185547, 0.373047, -9.85254, 1.11.2022 19:4:42.988
98, 1.9526, 0.335894, 347.13, 0.000976562, -0.00195312, 0, -0.0917969, 0.299805, -9.80859, 1.11.2022 19:4:42.996
99, 1.9526, 0.335894, 347.13, 0, -0.000976562, -0.000976562, -0.0458984, 0.292969, -9.81445, 1.11.2022 19:4:43.004
100, 1.9526, 0.335894, 347.13, 0.000976562, -0.000976562, -0.000976562, -0.0185547, 0.272461, -9.87207, 1.11.2022 19:4:43.012
101, 1.94565, 0.336678, 347.13, 0, 0, 0, -0.118164, 0.3125, -9.81738, 1.11.2022 19:4:43.020
102, 1.94565, 0.336678, 347.13, -0.00195312, 0, 0, -0.0195312, 0.305664, -9.76465, 1.11.2022 19:4:43.028
103, 1.94565, 0.336678, 347.13, -0.00195312, -0.000976562, -0.000976562, -0.0507812, 0.349609, -9.78711, 1.11.2022 19:4:43.036
104, 1.94565, 0.336678, 347.13, -0.00195312, -0.000976562, -0.000976562, -0.126953, 0.367188, -9.81543, 1.11.2022 19:4:43.044
105, 1.94565, 0.336678, 347.13, -0.00195312, -0.00195312, -0.000976562, -0.0244141, 0.318359, -9.77832, 1.11.2022 19:4:43.052
106, 1.9526, 0.335894, 347.13, -0.00195312, -0.000976562, -0.000976562, -0.0703125, 0.345703, -9.80762, 1.11.2022 19:4:43.060
107, 1.9526, 0.335894, 347.13, -0.000976562, -0.000976562, -0.000976562, -0.0703125, 0.335938, -9.80859, 1.11.2022 19:4:43.068
108, 1.9526, 0.335894, 347.13, -0.000976562, -0.000976562, -0.000976562, -0.0166016, 0.334961, -9.77832, 1.11.2022 19:4:43.076
109, 1.94644, 0.343627, 347.13, 0.000976562, -0.000976562, 0, -0.0986328, 0.382812, -9.79004, 1.11.2022 19:4:43.084
110, 1.94644, 0.343627, 347.13, 0.000976562, -0.000976562, 0, -0.0175781, 0.323242, -9.81152, 1.11.2022 19:4:43.092
111, 1.94644, 0.343627, 347.13, 0, -0.000976562, 0, -0.0517578, 0.28418, -9.84961, 1.11.2022 19:4:43.100
112, 1.94644, 0.343627, 347.13, 0, 0, 0, -0.0849609, 0.269531, -9.84082, 1.11.2022 19:4:43.106
113, 1.94642, 0.343511, 347.123, -0.000976562, -0.000976562, -0.000976562, -0.00683594, 0.274414, -9.74707, 1.11.2022 19:4:43.114
114, 1.94644, 0.343627, 347.13, -0.00195312, -0.000976562, -0.00195312, -0.0556641, 0.317383, -9.82031, 1.11.2022 19:4:43.122
115, 1.94644, 0.343627, 347.13, -0.000976562, -0.000976562, -0.00195312, -0.0683594, 0.365234, -9.83105, 1.11.2022 19:4:43.130
116, 1.94644, 0.343627, 347.13, -0.00195312, -0.00195312, -0.000976562, -0.00390625, 0.350586, -9.82324, 1.11.2022 19:4:43.138
117, 1.94644, 0.343627, 347.13, -0.00195312, -0.00195312, -0.00195312, -0.0703125, 0.354492, -9.80078, 1.11.2022 19:4:43.146
118, 1.94644, 0.343627, 347.13, -0.00195312, -0.000976562, -0.000976562, -0.0576172, 0.384766, -9.76465, 1.11.2022 19:4:43.154
119, 1.94644, 0.343627, 347.13, 0, 0, -0.000976562, -0.0458984, 0.382812, -9.79297, 1.11.2022 19:4:43.162
120, 1.94644, 0.343627, 347.13, 0, 0, -0.000976562, -0.114258, 0.375, -9.75488, 1.11.2022 19:4:43.170
121, 1.94644, 0.343627, 347.13, 0.000976562, 0.000976562, -0.000976562, -0.0449219, 0.336914, -9.75684, 1.11.2022 19:4:43.178
122, 1.94644, 0.343627, 347.13, 0.000976562, 0.000976562, 0, -0.0351562, 0.322266, -9.75, 1.11.2022 19:4:43.186
123, 1.94644, 0.343627, 347.13, 0, -0.000976562, -0.000976562, -0.113281, 0.325195, -9.84766, 1.11.2022 19:4:43.194
124, 1.94644, 0.343627, 347.13, -0.000976562, 0, -0.000976562, -0.0390625, 0.295898, -9.82617, 1.11.2022 19:4:43.202
125, 1.94644, 0.343627, 347.13, -0.00195312, 0, -0.000976562, -0.0800781, 0.279297, -9.84766, 1.11.2022 19:4:43.210
126, 1.94565, 0.336678, 347.13, -0.00292969, 0, -0.000976562, -0.0488281, 0.305664, -9.84961, 1.11.2022 19:4:43.218
127, 1.94565, 0.336678, 347.13, -0.00390625, 0, -0.00195312, -0.015625, 0.302734, -9.84082, 1.11.2022 19:4:43.226
128, 1.9526, 0.335894, 347.13, -0.00292969, -0.000976562, -0.000976562, -0.0898438, 0.330078, -9.8457, 1.11.2022 19:4:43.234
129, 1.95338, 0.342843, 347.13, -0.00292969, -0.000976562, -0.00195312, -0.0576172, 0.371094, -9.80469, 1.11.2022 19:4:43.242
130, 1.95338, 0.342843, 347.13, -0.00195312, 0, -0.00195312, -0.0214844, 0.368164, -9.78223, 1.11.2022 19:4:43.250
131, 1.9526, 0.335894, 347.13, -0.00195312, 0, 0, -0.0898438, 0.376953, -9.83496, 1.11.2022 19:4:43.258
132, 1.9526, 0.335894, 347.13, 0, -0.000976562, 0, -0.0341797, 0.362305, -9.80762, 1.11.2022 19:4:43.266
133, 1.95338, 0.342843, 347.13, 0.000976562, -0.000976562, 0, -0.0673828, 0.335938, -9.81738, 1.11.2022 19:4:43.274
134, 1.95955, 0.335111, 347.13, 0.00195312, -0.000976562, 0.00195312, -0.0742188, 0.331055, -9.80078, 1.11.2022 19:4:43.282
135, 1.95876, 0.328162, 347.13, 0.000976562, -0.000976562, 0, 0.00878906, 0.275391, -9.80176, 1.11.2022 19:4:43.290
136, 1.95876, 0.328162, 347.13, 0.000976562, -0.000976562, 0, -0.0810547, 0.296875, -9.78027, 1.11.2022 19:4:43.298
137, 1.95182, 0.328945, 347.13, 0.000976562, -0.000976562, -0.000976562, -0.0771484, 0.275391, -9.79785, 1.11.2022 19:4:43.306
138, 1.95182, 0.328945, 347.13, -0.00292969, -0.000976562, -0.000976562, -0.0371094, 0.266602, -9.80371, 1.11.2022 19:4:43.314
139, 1.95182, 0.328945, 347.13, -0.00292969, -0.000976562, -0.000976562, -0.120117, 0.334961, -9.78809, 1.11.2022 19:4:43.322
140, 1.94487, 0.329729, 347.13, -0.00292969, -0.000976562, -0.000976562, -0.0703125, 0.375, -9.83105, 1.11.2022 19:4:43.330
141, 1.94487, 0.329729, 347.13, -0.00292969, -0.000976562, -0.000976562, -0.0957031, 0.362305, -9.80273, 1.11.2022 19:4:43.338
142, 1.94565, 0.336678, 347.13, -0.00195312, 0.000976562, -0.00195312, -0.144531, 0.357422, -9.82324, 1.11.2022 19:4:43.346
143, 1.94565, 0.336678, 347.13, 0, 0, -0.000976562, -0.0410156, 0.393555, -9.80957, 1.11.2022 19:4:43.354
144, 1.94565, 0.336678, 347.13, 0.00195312, -0.000976562, -0.000976562, -0.0966797, 0.363281, -9.83984, 1.11.2022 19:4:43.362
145, 1.94644, 0.343627, 347.13, 0.00195312, -0.000976562, 0, -0.0742188, 0.357422, -9.80469, 1.11.2022 19:4:43.370
146, 1.94644, 0.343627, 347.13, 0.00292969, -0.000976562, 0, 0.00195312, 0.306641, -9.79102, 1.11.2022 19:4:43.378
147, 1.94644, 0.343627, 347.13, 0.00292969, -0.000976562, 0, -0.101562, 0.286133, -9.8252, 1.11.2022 19:4:43.386
148, 1.94722, 0.350576, 347.13, 0.000976562, 0, -0.000976562, -0.0615234, 0.307617, -9.8418, 1.11.2022 19:4:43.394
149, 1.94027, 0.351359, 347.13, -0.000976562, -0.000976562, 0, 0.00585938, 0.257812, -9.84668, 1.11.2022 19:4:43.402
150, 1.94027, 0.351359, 347.13, -0.00292969, -0.000976562, -0.000976562, -0.0439453, 0.308594, -9.79492, 1.11.2022 19:4:43.410
151, 1.94027, 0.351359, 347.13, -0.00390625, -0.000976562, -0.00195312, 0.00878906, 0.334961, -9.7998, 1.11.2022 19:4:43.418
152, 1.93949, 0.34441, 347.13, -0.00292969, -0.000976562, -0.000976562, -0.0722656, 0.350586, -9.81738, 1.11.2022 19:4:43.426
153, 1.93949, 0.34441, 347.13, -0.00292969, 0, -0.000976562, -0.0917969, 0.397461, -9.80566, 1.11.2022 19:4:43.434
154, 1.93949, 0.34441, 347.13, -0.000976562, 0, 0.000976562, -0.0644531, 0.366211, -9.78613, 1.11.2022 19:4:43.442
155, 1.93949, 0.34441, 347.13, 0, 0, -0.000976562, -0.0820312, 0.374023, -9.79785, 1.11.2022 19:4:43.450
156, 1.93949, 0.34441, 347.13, 0.000976562, -0.000976562, -0.000976562, -0.0878906, 0.324219, -9.75586, 1.11.2022 19:4:43.458
157, 1.93949, 0.34441, 347.13, 0.00195312, 0, -0.000976562, -0.0410156, 0.318359, -9.78809, 1.11.2022 19:4:43.466
158, 1.94027, 0.351359, 347.13, 0.000976562, -0.000976562, -0.000976562, -0.137695, 0.291016, -9.8418, 1.11.2022 19:4:43.474
159, 1.94027, 0.351359, 347.13, 0.000976562, 0, -0.000976562, -0.0322266, 0.301758, -9.80762, 1.11.2022 19:4:43.482
160, 1.94027, 0.351359, 347.13, -0.00195312, 0, -0.000976562, -0.0458984, 0.275391, -9.79395, 1.11.2022 19:4:43.490
161, 1.94027, 0.351359, 347.13, -0.000976562, -0.000976562, 0.00195312, -0.0966797, 0.304688, -9.82324, 1.11.2022 19:4:43.498
162, 1.93333, 0.352142, 347.13, -0.00292969, -0.000976562, -0.000976562, -0.00292969, 0.326172, -9.81641, 1.11.2022 19:4:43.506
163, 1.93333, 0.352142, 347.13, -0.00292969, 0, -0.00195312, -0.0605469, 0.342773, -9.8125, 1.11.2022 19:4:43.514
164, 1.93333, 0.352142, 347.13, -0.00195312, 0, -0.000976562, -0.0722656, 0.387695, -9.80176, 1.11.2022 19:4:43.522
165, 1.93333, 0.352142, 347.13, 0, 0, 0, -0.0292969, 0.367188, -9.8125, 1.11.2022 19:4:43.530
166, 1.94027, 0.351359, 347.13, 0, 0, 0, -0.123047, 0.374023, -9.82031, 1.11.2022 19:4:43.538
167, 1.94027, 0.351359, 347.13, 0.00195312, 0, 0, -0.0673828, 0.344727, -9.79395, 1.11.2022 19:4:43.546
168, 1.94026, 0.351244, 347.123, 0.000976562, -0.000976562, 0, -0.0078125, 0.296875, -9.80762, 1.11.2022 19:4:43.554
169, 1.94026, 0.351244, 347.123, 0.000976562, -0.000976562, 0, -0.108398, 0.335938, -9.8291, 1.11.2022 19:4:43.562
170, 1.94026, 0.351244, 347.123, 0, -0.000976562, -0.00195312, -0.00195312, 0.305664, -9.75586, 1.11.2022 19:4:43.570
171, 1.94026, 0.351244, 347.123, 0, 0, -0.00195312, -0.0371094, 0.324219, -9.81641, 1.11.2022 19:4:43.578
172, 1.94027, 0.351359, 347.13, -0.00292969, -0.000976562, -0.00195312, -0.0576172, 0.341797, -9.77539, 1.11.2022 19:4:43.586
173, 1.93949, 0.34441, 347.13, -0.00195312, -0.000976562, -0.000976562, -0.000976562, 0.308594, -9.80078, 1.11.2022 19:4:43.594
174, 1.93949, 0.34441, 347.13, -0.00195312, -0.00195312, -0.000976562, -0.0488281, 0.300781, -9.82617, 1.11.2022 19:4:43.602
175, 1.93949, 0.34441, 347.13, -0.00195312, -0.00195312, -0.000976562, -0.046875, 0.34375, -9.82715, 1.11.2022 19:4:43.610
176, 1.93949, 0.34441, 347.13, -0.00195312, -0.000976562, -0.000976562, -0.015625, 0.345703, -9.8252, 1.11.2022 19:4:43.618
177, 1.93871, 0.337461, 347.13, 0, -0.000976562, -0.00195312, -0.0898438, 0.350586, -9.8291, 1.11.2022 19:4:43.626
178, 1.93871, 0.337461, 347.13, -0.00195312, -0.000976562, -0.00195312, -0.0625, 0.342773, -9.80371, 1.11.2022 19:4:43.634
179, 1.93871, 0.337461, 347.13, -0.00195312, -0.000976562, -0.000976562, -0.0507812, 0.329102, -9.81836, 1.11.2022 19:4:43.642
180, 1.93871, 0.337461, 347.13, 0, 0, -0.000976562, -0.0878906, 0.34082, -9.74609, 1.11.2022 19:4:43.650
181, 1.93871, 0.337461, 347.13, 0.000976562, 0, -0.000976562, -0.0390625, 0.296875, -9.80273, 1.11.2022 19:4:43.658
182, 1.93793, 0.330512, 347.13, 0.000976562, -0.000976562, -0.000976562, -0.0751953, 0.314453, -9.82324, 1.11.2022 19:4:43.666
183, 1.93793, 0.330512, 347.13, 0, -0.000976562, -0.000976562, -0.105469, 0.316406, -9.79199, 1.11.2022 19:4:43.674
184, 1.93793, 0.330512, 347.13, 0, -0.000976562, -0.000976562, -0.0302734, 0.317383, -9.83105, 1.11.2022 19:4:43.682
185, 1.93098, 0.331295, 347.13, 0, 0, -0.000976562, -0.0957031, 0.334961, -9.77441, 1.11.2022 19:4:43.690
186, 1.93176, 0.338244, 347.13, -0.00195312, -0.000976562, 0, -0.0527344, 0.351562, -9.77734, 1.11.2022 19:4:43.698
187, 1.93098, 0.331295, 347.13, -0.00195312, 0, -0.000976562, -0.03125, 0.339844, -9.77832, 1.11.2022 19:4:43.706
188, 1.93871, 0.337461, 347.13, -0.00195312, 0, -0.000976562, -0.114258, 0.361328, -9.77148, 1.11.2022 19:4:43.714
189, 1.93871, 0.337461, 347.13, 0, 0.000976562, -0.000976562, -0.0556641, 0.333008, -9.79004, 1.11.2022 19:4:43.722
190, 1.93871, 0.337461, 347.13, 0, 0.00195312, 0.000976562, -0.0791016, 0.344727, -9.79395, 1.11.2022 19:4:43.730
191, 1.93871, 0.337461, 347.13, 0, 0.000976562, -0.000976562, -0.120117, 0.359375, -9.81152, 1.11.2022 19:4:43.738
192, 1.93871, 0.337461, 347.13, 0, -0.000976562, -0.000976562, -0.0410156, 0.318359, -9.77344, 1.11.2022 19:4:43.746
193, 1.93871, 0.337461, 347.13, 0, 0, -0.000976562, -0.0722656, 0.331055, -9.79688, 1.11.2022 19:4:43.754
194, 1.93949, 0.34441, 347.13, 0.000976562, -0.00195312, -0.00195312, -0.0644531, 0.352539, -9.88086, 1.11.2022 19:4:43.762
195, 1.93949, 0.34441, 347.13, 0.000976562, -0.00195312, -0.00195312, 0.0322266, 0.311523, -9.79883, 1.11.2022 19:4:43.770
196, 1.93949, 0.34441, 347.13, -0.00195312, -0.00195312, -0.00195312, -0.0185547, 0.336914, -9.84668, 1.11.2022 19:4:43.778
197, 1.93871, 0.337461, 347.13, 0, -0.000976562, 0, 0.0107422, 0.326172, -9.8125, 1.11.2022 19:4:43.786
198, 1.93871, 0.337461, 347.13, -0.000976562, 0, 0.000976562, -0.0107422, 0.324219, -9.83105, 1.11.2022 19:4:43.794
199, 1.93793, 0.330512, 347.13, 0, 0.000976562, -0.000976562, -0.0576172, 0.325195, -9.79004, 1.11.2022 19:4:43.802
200, 1.94487, 0.329729, 347.13, 0, 0, -0.000976562, -0.0214844, 0.338867, -9.77148, 1.11.2022 19:4:43.810
201, 1.94409, 0.32278, 347.13, 0, -0.000976562, -0.000976562, -0.0673828, 0.336914, -9.77539, 1.11.2022 19:4:43.818
202, 1.94409, 0.32278, 347.13, -0.00292969, -0.000976562, -0.000976562, -0.104492, 0.34082, -9.74609, 1.11.2022 19:4:43.826
203, 1.94409, 0.32278, 347.13, 0, 0, -0.000976562, -0.0458984, 0.349609, -9.78418, 1.11.2022 19:4:43.834
204, 1.94409, 0.32278, 347.13, 0, -0.000976562, -0.000976562, -0.0605469, 0.334961, -9.78516, 1.11.2022 19:4:43.842
205, 1.94409, 0.32278, 347.13, 0, -0.00195312, 0, -0.0556641, 0.34082, -9.82031, 1.11.2022 19:4:43.850
206, 1.94409, 0.32278, 347.13, 0.000976562, 0, -0.000976562, -0.0205078, 0.305664, -9.84766, 1.11.2022 19:4:43.858
207, 1.94331, 0.315831, 347.13, 0.00195312, -0.000976562, -0.000976562, -0.125977, 0.330078, -9.84961, 1.11.2022 19:4:43.866
208, 1.94331, 0.315831, 347.13, 0, 0, -0.000976562, -0.0253906, 0.307617, -9.81934, 1.11.2022 19:4:43.874
209, 1.94331, 0.315831, 347.13, -0.00195312, -0.000976562, -0.000976562, -0.0888672, 0.302734, -9.81152, 1.11.2022 19:4:43.882
210, 1.94331, 0.315831, 347.13, -0.00292969, 0, 0.000976562, -0.143555, 0.308594, -9.78613, 1.11.2022 19:4:43.890
211, 1.94409, 0.32278, 347.13, -0.00292969, -0.000976562, 0, -0.0625, 0.311523, -9.81152, 1.11.2022 19:4:43.898
212, 1.93714, 0.323563, 347.13, 0, -0.000976562, -0.00195312, -0.0771484, 0.342773, -9.7959, 1.11.2022 19:4:43.906
213, 1.93714, 0.323563, 347.13, 0, -0.00195312, -0.000976562, -0.0527344, 0.379883, -9.78125, 1.11.2022 19:4:43.914
214, 1.93714, 0.323563, 347.13, 0, -0.00195312, -0.000976562, 0.0175781, 0.331055, -9.81641, 1.11.2022 19:4:43.922
215, 1.93793, 0.330512, 347.13, 0, -0.000976562, -0.000976562, -0.0820312, 0.367188, -9.81445, 1.11.2022 19:4:43.930
216, 1.93793, 0.330512, 347.13, 0.000976562, -0.000976562, 0, -0.0263672, 0.332031, -9.77148, 1.11.2022 19:4:43.938
217, 1.93714, 0.323563, 347.13, 0.00195312, 0, 0, -0.0126953, 0.313477, -9.79297, 1.11.2022 19:4:43.946
218, 1.93714, 0.323563, 347.13, 0.000976562, 0, 0, -0.0878906, 0.341797, -9.76074, 1.11.2022 19:4:43.954
219, 1.93714, 0.323563, 347.13, 0, 0, -0.000976562, -0.0283203, 0.291016, -9.75781, 1.11.2022 19:4:43.962
220, 1.93714, 0.323563, 347.13, 0, -0.000976562, 0, -0.0703125, 0.314453, -9.80664, 1.11.2022 19:4:43.970
221, 1.93714, 0.323563, 347.13, -0.00195312, -0.00195312, -0.000976562, -0.0537109, 0.333008, -9.80859, 1.11.2022 19:4:43.978
222, 1.93714, 0.323563, 347.13, -0.00195312, -0.00292969, -0.000976562, -0.00683594, 0.300781, -9.85547, 1.11.2022 19:4:43.986
223, 1.93714, 0.323563, 347.13, -0.00195312, -0.00195312, -0.000976562, -0.0507812, 0.355469, -9.82227, 1.11.2022 19:4:43.994
224, 1.93714, 0.323563, 347.13, -0.00195312, -0.000976562, -0.00195312, -0.0605469, 0.348633, -9.83203, 1.11.2022 19:4:44.002
225, 1.93714, 0.323563, 347.13, 0, 0, -0.000976562, -0.0175781, 0.331055, -9.82617, 1.11.2022 19:4:44.010
226, 1.93636, 0.316614, 347.13, 0, 0, -0.00195312, -0.131836, 0.367188, -9.80371, 1.11.2022 19:4:44.018
227, 1.93636, 0.316614, 347.13, 0, 0, -0.00195312, -0.0878906, 0.356445, -9.76465, 1.11.2022 19:4:44.026
228, 1.93714, 0.323563, 347.13, 0, -0.000976562, 0, -0.0654297, 0.306641, -9.79297, 1.11.2022 19:4:44.034
229, 1.93714, 0.323563, 347.13, 0.000976562, -0.000976562, -0.000976562, -0.115234, 0.334961, -9.79297, 1.11.2022 19:4:44.042
230, 1.93714, 0.323563, 347.13, 0.000976562, -0.00195312, -0.00195312, -0.0292969, 0.288086, -9.81445, 1.11.2022 19:4:44.050
231, 1.93714, 0.323563, 347.13, 0.000976562, -0.00195312, -0.000976562, -0.0585938, 0.304688, -9.82617, 1.11.2022 19:4:44.058
232, 1.9302, 0.324347, 347.13, 0, -0.000976562, -0.000976562, -0.0605469, 0.335938, -9.8252, 1.11.2022 19:4:44.066
233, 1.9302, 0.324347, 347.13, 0.000976562, -0.000976562, -0.000976562, -0.00585938, 0.3125, -9.82617, 1.11.2022 19:4:44.072
234, 1.93098, 0.331295, 347.13, 0, 0, -0.000976562, -0.0947266, 0.332031, -9.83398, 1.11.2022 19:4:44.080
235, 1.93098, 0.331295, 347.13, -0.00195312, 0, -0.000976562, -0.0537109, 0.30957, -9.80469, 1.11.2022 19:4:44.088
236, 1.9302, 0.324347, 347.13, 0, 0, -0.000976562, -0.0527344, 0.318359, -9.77344, 1.11.2022 19:4:44.096
237, 1.92403, 0.332079, 347.13, 0.000976562, -0.000976562, 0, -0.117188, 0.336914, -9.77441, 1.11.2022 19:4:44.104
238, 1.92403, 0.332079, 347.13, 0, -0.00195312, 0, -0.0146484, 0.333008, -9.79688, 1.11.2022 19:4:44.112
239, 1.92403, 0.332079, 347.13, 0, -0.00195312, -0.000976562, -0.0556641, 0.34082, -9.82715, 1.11.2022 19:4:44.120
240, 1.92403, 0.332079, 347.13, 0.000976562, -0.00195312, 0, -0.0703125, 0.345703, -9.82715, 1.11.2022 19:4:44.128
241, 1.92403, 0.332079, 347.13, 0.000976562, 0, -0.000976562, 0.0351562, 0.339844, -9.7959, 1.11.2022 19:4:44.136
242, 1.92403, 0.332079, 347.13, 0.000976562, 0, 0.00195312, -0.0507812, 0.311523, -9.78809, 1.11.2022 19:4:44.144
243, 1.92325, 0.32513, 347.13, 0, 0, -0.000976562, -0.0429688, 0.320312, -9.76855, 1.11.2022 19:4:44.152
244, 1.92325, 0.32513, 347.13, 0, 0, -0.000976562, -0.00585938, 0.301758, -9.81055, 1.11.2022 19:4:44.160
245, 1.92325, 0.32513, 347.13, -0.00195312, -0.000976562, -0.000976562, -0.112305, 0.334961, -9.76758, 1.11.2022 19:4:44.168
246, 1.92325, 0.32513, 347.13, -0.00195312, -0.000976562, -0.000976562, -0.0458984, 0.344727, -9.79199, 1.11.2022 19:4:44.176
247, 1.92247, 0.318181, 347.13, 0, 0, -0.000976562, -0.0292969, 0.331055, -9.80859, 1.11.2022 19:4:44.184
248, 1.92247, 0.318181, 347.13, 0, -0.000976562, 0, -0.118164, 0.34375, -9.82422, 1.11.2022 19:4:44.192
249, 1.92247, 0.318181, 347.13, 0.000976562, -0.000976562, 0, -0.0136719, 0.324219, -9.83105, 1.11.2022 19:4:44.200
250, 1.92247, 0.318181, 347.13, 0, -0.000976562, 0, -0.0673828, 0.369141, -9.80469, 1.11.2022 19:4:44.208
251, 1.92247, 0.318181, 347.13, 0, 0, -0.000976562, -0.0693359, 0.359375, -9.78613, 1.11.2022 19:4:44.216
252, 1.92245, 0.318066, 347.124, 0, 0, 0, -0.0107422, 0.317383, -9.84082, 1.11.2022 19:4:44.224
253, 1.92245, 0.318066, 347.124, 0.000976562, 0, -0.000976562, -0.105469, 0.359375, -9.78809, 1.11.2022 19:4:44.232
254, 1.92245, 0.318066, 347.124, 0.000976562, 0, 0, -0.0791016, 0.320312, -9.78711, 1.11.2022 19:4:44.240
255, 1.92245, 0.318066, 347.124, 0.000976562, 0, 0, -0.0625, 0.299805, -9.80957, 1.11.2022 19:4:44.248
256, 1.92245, 0.318066, 347.124, 0, 0, 0, -0.126953, 0.319336, -9.8125, 1.11.2022 19:4:44.256
257, 1.92245, 0.318066, 347.124, 0, 0, -0.000976562, -0.0244141, 0.313477, -9.80273, 1.11.2022 19:4:44.264
258, 1.92245, 0.318066, 347.124, -0.00195312, -0.00195312, -0.00195312, -0.0214844, 0.310547, -9.77637, 1.11.2022 19:4:44.272
259, 1.92323, 0.325015, 347.124, 0, -0.000976562, -0.00195312, -0.0751953, 0.324219, -9.8252, 1.11.2022 19:4:44.280
260, 1.92323, 0.325015, 347.124, -0.00195312, 0, -0.000976562, 0.0224609, 0.350586, -9.84277, 1.11.2022 19:4:44.288
261, 1.92247, 0.318181, 347.13, -0.00195312, 0, -0.00195312, -0.0566406, 0.351562, -9.85059, 1.11.2022 19:4:44.296
262, 1.92247, 0.318181, 347.13, 0, 0, -0.000976562, -0.0478516, 0.361328, -9.79102, 1.11.2022 19:4:44.304
263, 1.92941, 0.317398, 347.13, 0, -0.000976562, 0, -0.0654297, 0.318359, -9.79688, 1.11.2022 19:4:44.312
264, 1.92939, 0.317283, 347.124, 0, 0, -0.000976562, -0.109375, 0.335938, -9.72754, 1.11.2022 19:4:44.320
265, 1.92939, 0.317283, 347.124, 0, -0.000976562, 0, -0.0263672, 0.331055, -9.74805, 1.11.2022 19:4:44.328
266, 1.92939, 0.317283, 347.124, 0, -0.000976562, -0.000976562, -0.0390625, 0.335938, -9.82715, 1.11.2022 19:4:44.336
267, 1.92939, 0.317283, 347.124, 0, 0, -0.000976562, -0.0771484, 0.326172, -9.81543, 1.11.2022 19:4:44.344
268, 1.92939, 0.317283, 347.124, -0.00195312, -0.000976562, -0.000976562, -0.0107422, 0.30957, -9.82129, 1.11.2022 19:4:44.352
269, 1.92939, 0.317283, 347.124, 0, 0, 0, -0.0390625, 0.319336, -9.82812, 1.11.2022 19:4:44.360
270, 1.92939, 0.317283, 347.124, -0.000976562, -0.000976562, 0, -0.0742188, 0.364258, -9.79297, 1.11.2022 19:4:44.368
271, 1.92939, 0.317283, 347.124, 0, 0, -0.000976562, -0.0078125, 0.324219, -9.81934, 1.11.2022 19:4:44.376
272, 1.92861, 0.310334, 347.124, -0.00195312, -0.000976562, -0.000976562, -0.0917969, 0.355469, -9.81445, 1.11.2022 19:4:44.384
273, 1.93556, 0.30955, 347.124, 0, -0.000976562, -0.000976562, -0.0644531, 0.358398, -9.76953, 1.11.2022 19:4:44.392
274, 1.93556, 0.30955, 347.124, 0, -0.00195312, 0, -0.0605469, 0.330078, -9.78516, 1.11.2022 19:4:44.400
275, 1.93634, 0.316499, 347.124, 0.000976562, -0.000976562, -0.000976562, -0.0839844, 0.34668, -9.78125, 1.11.2022 19:4:44.408
276, 1.93634, 0.316499, 347.124, 0, 0, -0.000976562, -0.00976562, 0.327148, -9.76465, 1.11.2022 19:4:44.416
277, 1.93556, 0.30955, 347.124, 0, -0.000976562, -0.00195312, -0.0488281, 0.34082, -9.81543, 1.11.2022 19:4:44.424
278, 1.93634, 0.316499, 347.124, 0.000976562, -0.000976562, -0.000976562, -0.0869141, 0.355469, -9.8125, 1.11.2022 19:4:44.432
279, 1.93556, 0.30955, 347.124, 0, -0.000976562, -0.000976562, -0.00585938, 0.319336, -9.82812, 1.11.2022 19:4:44.440
280, 1.93556, 0.30955, 347.124, 0.000976562, -0.000976562, -0.000976562, -0.0722656, 0.291992, -9.79785, 1.11.2022 19:4:44.448
281, 1.93556, 0.30955, 347.124, 0.000976562, -0.000976562, -0.000976562, -0.0820312, 0.34082, -9.81738, 1.11.2022 19:4:44.456
282, 1.93556, 0.30955, 347.124, -0.000976562, -0.000976562, 0, -0.0410156, 0.323242, -9.79688, 1.11.2022 19:4:44.464
283, 1.93634, 0.316499, 347.124, -0.00195312, -0.000976562, -0.000976562, -0.12207, 0.316406, -9.78711, 1.11.2022 19:4:44.472
284, 1.94328, 0.315715, 347.124, -0.00195312, -0.000976562, -0.000976562, -0.0507812, 0.357422, -9.80273, 1.11.2022 19:4:44.480
285, 1.94328, 0.315715, 347.124, 0, -0.000976562, -0.000976562, 0.00195312, 0.357422, -9.80664, 1.11.2022 19:4:44.488
286, 1.94328, 0.315715, 347.124, -0.00195312, 0, -0.000976562, -0.0908203, 0.374023, -9.79492, 1.11.2022 19:4:44.496
287, 1.94328, 0.315715, 347.124, 0, -0.000976562, -0.000976562, -0.0078125, 0.331055, -9.80664, 1.11.2022 19:4:44.504
288, 1.94328, 0.315715, 347.124, 0.000976562, -0.000976562, 0, -0.0556641, 0.333008, -9.80566, 1.11.2022 19:4:44.512
289, 1.94328, 0.315715, 347.124, 0, 0, 0, -0.0673828, 0.335938, -9.8125, 1.11.2022 19:4:44.520
290, 1.94328, 0.315715, 347.124, 0.000976562, -0.000976562, 0, -0.0292969, 0.300781, -9.77246, 1.11.2022 19:4:44.528
291, 1.94328, 0.315715, 347.124, 0, -0.000976562, -0.000976562, -0.0869141, 0.314453, -9.82227, 1.11.2022 19:4:44.536
292, 1.94328, 0.315715, 347.124, -0.000976562, 0, 0.000976562, -0.0693359, 0.337891, -9.79395, 1.11.2022 19:4:44.544
293, 1.94328, 0.315715, 347.124, 0, -0.000976562, -0.000976562, -0.0253906, 0.302734, -9.82129, 1.11.2022 19:4:44.552
294, 1.94328, 0.315715, 347.124, 0, -0.000976562, -0.00195312, -0.0986328, 0.321289, -9.79199, 1.11.2022 19:4:44.560
295, 1.94328, 0.315715, 347.124, 0, -0.000976562, -0.00195312, -0.0537109, 0.359375, -9.81055, 1.11.2022 19:4:44.568
296, 1.94328, 0.315715, 347.124, 0, -0.00195312, -0.00195312, -0.0390625, 0.34375, -9.83887, 1.11.2022 19:4:44.576
297, 1.94328, 0.315715, 347.124, -0.000976562, -0.000976562, 0, -0.0800781, 0.34082, -9.8125, 1.11.2022 19:4:44.584
298, 1.94328, 0.315715, 347.124, 0, -0.000976562, -0.000976562, -0.0322266, 0.317383, -9.84668, 1.11.2022 19:4:44.592
299, 1.94328, 0.315715, 347.124, 0, 0, -0.000976562, -0.0771484, 0.3125, -9.82031, 1.11.2022 19:4:44.600
300, 1.94328, 0.315715, 347.124, 0.000976562, -0.000976562, -0.000976562, -0.0839844, 0.308594, -9.77539, 1.11.2022 19:4:44.608
301, 1.94328, 0.315715, 347.124, 0, -0.000976562, 0, -0.015625, 0.299805, -9.81738, 1.11.2022 19:4:44.616
302, 1.93712, 0.323448, 347.124, 0, -0.000976562, 0, -0.0917969, 0.325195, -9.85059, 1.11.2022 19:4:44.624
303, 1.93712, 0.323448, 347.124, 0.000976562, -0.00195312, 0, -0.0517578, 0.329102, -9.82715, 1.11.2022 19:4:44.632
304, 1.93712, 0.323448, 347.124, 0.000976562, -0.00195312, -0.000976562, -0.0371094, 0.299805, -9.80957, 1.11.2022 19:4:44.640
305, 1.93018, 0.324232, 347.124, 0, -0.000976562, -0.000976562, -0.0742188, 0.334961, -9.78711, 1.11.2022 19:4:44.648
306, 1.93018, 0.324232, 347.124, 0, -0.000976562, -0.000976562, -0.0175781, 0.355469, -9.83691, 1.11.2022 19:4:44.656
307, 1.93018, 0.324232, 347.124, 0, 0, -0.000976562, -0.0585938, 0.329102, -9.8252, 1.11.2022 19:4:44.664
308, 1.93018, 0.324232, 347.124, 0, 0, -0.000976562, -0.0771484, 0.349609, -9.79102, 1.11.2022 19:4:44.672
309, 1.93018, 0.324232, 347.124, 0.000976562, -0.000976562, 0, -0.0078125, 0.341797, -9.7832, 1.11.2022 19:4:44.680
310, 1.93018, 0.324232, 347.124, -0.00195312, -0.000976562, -0.000976562, -0.0888672, 0.318359, -9.78906, 1.11.2022 19:4:44.688
311, 1.93018, 0.324232, 347.124, -0.00195312, -0.000976562, -0.000976562, -0.0527344, 0.317383, -9.74805, 1.11.2022 19:4:44.696
312, 1.93018, 0.324232, 347.124, 0, -0.000976562, -0.000976562, -0.0244141, 0.341797, -9.77832, 1.11.2022 19:4:44.704
313, 1.93018, 0.324232, 347.124, 0, -0.000976562, -0.000976562, -0.0888672, 0.344727, -9.79785, 1.11.2022 19:4:44.712
314, 1.93018, 0.324232, 347.124, 0, -0.000976562, -0.000976562, -0.0439453, 0.311523, -9.80664, 1.11.2022 19:4:44.720
315, 1.92939, 0.317283, 347.124, 0, -0.000976562, -0.000976562, -0.03125, 0.303711, -9.79297, 1.11.2022 19:4:44.728
316, 1.92939, 0.317283, 347.124, 0, -0.000976562, 0, -0.0722656, 0.316406, -9.80859, 1.11.2022 19:4:44.736
317, 1.92245, 0.318066, 347.124, 0, 0, -0.00195312, -0.00488281, 0.291992, -9.78711, 1.11.2022 19:4:44.744
318, 1.92245, 0.318066, 347.124, -0.00195312, 0, -0.000976562, -0.0869141, 0.323242, -9.80078, 1.11.2022 19:4:44.752
319, 1.92245, 0.318066, 347.124, -0.00195312, -0.000976562, -0.000976562, -0.0693359, 0.351562, -9.77246, 1.11.2022 19:4:44.760
320, 1.92245, 0.318066, 347.124, 0, -0.00195312, -0.000976562, -0.0244141, 0.314453, -9.81445, 1.11.2022 19:4:44.768
321, 1.92245, 0.318066, 347.124, -0.00195312, -0.000976562, -0.000976562, -0.0986328, 0.334961, -9.78223, 1.11.2022 19:4:44.776
322, 1.92245, 0.318066, 347.124, -0.00195312, -0.000976562, -0.000976562, -0.0341797, 0.337891, -9.80371, 1.11.2022 19:4:44.784
323, 1.92245, 0.318066, 347.124, 0, -0.00195312, -0.00195312, -0.0458984, 0.352539, -9.80371, 1.11.2022 19:4:44.792
324, 1.92245, 0.318066, 347.124, 0, -0.000976562, -0.000976562, -0.09375, 0.351562, -9.78613, 1.11.2022 19:4:44.800
325, 1.92245, 0.318066, 347.124, 0.000976562, -0.000976562, -0.000976562, -0.0195312, 0.31543, -9.78125, 1.11.2022 19:4:44.808
326, 1.92245, 0.318066, 347.124, 0.000976562, -0.000976562, 0, -0.0507812, 0.3125, -9.81836, 1.11.2022 19:4:44.816
327, 1.92245, 0.318066, 347.124, 0, -0.000976562, 0, -0.0673828, 0.327148, -9.76562, 1.11.2022 19:4:44.824
328, 1.92245, 0.318066, 347.124, -0.00195312, -0.000976562, -0.00195312, 0.00976562, 0.322266, -9.76953, 1.11.2022 19:4:44.832
329, 1.92245, 0.318066, 347.124, -0.00195312, 0, -0.000976562, -0.0722656, 0.331055, -9.80859, 1.11.2022 19:4:44.840
330, 1.92245, 0.318066, 347.124, 0, 0, -0.000976562, -0.0771484, 0.337891, -9.7959, 1.11.2022 19:4:44.848
331, 1.92166, 0.311118, 347.124, -0.00195312, 0, -0.000976562, -0.0292969, 0.316406, -9.79297, 1.11.2022 19:4:44.856
332, 1.92166, 0.311118, 347.124, 0, 0, -0.000976562, -0.103516, 0.362305, -9.81152, 1.11.2022 19:4:44.864
333, 1.92166, 0.311118, 347.124, 0.000976562, -0.000976562, 0, -0.03125, 0.348633, -9.77539, 1.11.2022 19:4:44.872
334, 1.92166, 0.311118, 347.124, 0, 0, 0, -0.0507812, 0.329102, -9.81836, 1.11.2022 19:4:44.880
335, 1.92166, 0.311118, 347.124, -0.00195312, -0.000976562, -0.000976562, -0.109375, 0.34082, -9.72754, 1.11.2022 19:4:44.888
336, 1.92166, 0.311118, 347.124, 0, 0, -0.000976562, -0.00390625, 0.319336, -9.81934, 1.11.2022 19:4:44.896
337, 1.92861, 0.310334, 347.124, 0, 0, -0.000976562, -0.0644531, 0.341797, -9.78418, 1.11.2022 19:4:44.904
338, 1.92861, 0.310334, 347.124, 0, -0.000976562, -0.00195312, -0.0556641, 0.339844, -9.78711, 1.11.2022 19:4:44.912
339, 1.92861, 0.310334, 347.124, -0.00195312, 0, -0.000976562, -0.0126953, 0.31543, -9.78809, 1.11.2022 19:4:44.920
340, 1.92861, 0.310334, 347.124, 0, 0, -0.000976562, -0.108398, 0.310547, -9.83691, 1.11.2022 19:4:44.928
341, 1.92861, 0.310334, 347.124, -0.000976562, 0, 0, -0.0410156, 0.334961, -9.79004, 1.11.2022 19:4:44.936
342, 1.92861, 0.310334, 347.124, -0.00195312, 0, -0.000976562, -0.0292969, 0.336914, -9.78711, 1.11.2022 19:4:44.944
343, 1.92861, 0.310334, 347.124, 0, 0, -0.000976562, -0.103516, 0.347656, -9.80762, 1.11.2022 19:4:44.952
344, 1.92861, 0.310334, 347.124, 0, -0.000976562, -0.000976562, -0.0214844, 0.323242, -9.78125, 1.11.2022 19:4:44.960
345, 1.92861, 0.310334, 347.124, 0.000976562, -0.000976562, -0.000976562, -0.0507812, 0.350586, -9.82227, 1.11.2022 19:4:44.968
346, 1.92861, 0.310334, 347.124, 0, -0.000976562, 0, -0.0742188, 0.345703, -9.75586, 1.11.2022 19:4:44.976
347, 1.92861, 0.310334, 347.124, 0, -0.000976562, 0, -0.0078125, 0.300781, -9.7793, 1.11.2022 19:4:44.984
348, 1.92861, 0.310334, 347.124, 0, 0, -0.000976562, -0.0957031, 0.318359, -9.79688, 1.11.2022 19:4:44.992
349, 1.92861, 0.310334, 347.124, 0, -0.000976562, -0.000976562, -0.0576172, 0.364258, -9.80273, 1.11.2022 19:4:45.000
350, 1.92861, 0.310334, 347.124, 0.000976562, -0.000976562, -0.000976562, -0.0341797, 0.304688, -9.81445, 1.11.2022 19:4:45.008
351, 1.92861, 0.310334, 347.124, 0, -0.000976562, -0.000976562, -0.111328, 0.34375, -9.82812, 1.11.2022 19:4:45.014
352, 1.92861, 0.310334, 347.124, 0.000976562, 0, -0.00195312, -0.0488281, 0.333008, -9.80859, 1.11.2022 19:4:45.022
353, 1.92861, 0.310334, 347.124, 0.000976562, -0.000976562, -0.000976562, -0.0673828, 0.316406, -9.80859, 1.11.2022 19:4:45.030
354, 1.92939, 0.317283, 347.124, 0, -0.00195312, -0.000976562, -0.0908203, 0.342773, -9.7959, 1.11.2022 19:4:45.038
355, 1.92939, 0.317283, 347.124, 0.000976562, -0.00195312, 0, -0.0292969, 0.307617, -9.81934, 1.11.2022 19:4:45.046
356, 1.92939, 0.317283, 347.124, 0, -0.000976562, 0, -0.0556641, 0.342773, -9.79395, 1.11.2022 19:4:45.054
357, 1.92939, 0.317283, 347.124, 0.000976562, -0.000976562, -0.000976562, -0.0771484, 0.350586, -9.82617, 1.11.2022 19:4:45.062
358, 1.92939, 0.317283, 347.124, 0.000976562, -0.000976562, -0.000976562, 0.0117188, 0.31543, -9.76758, 1.11.2022 19:4:45.070
359, 1.92939, 0.317283, 347.124, 0.000976562, -0.00195312, -0.000976562, -0.0605469, 0.321289, -9.81836, 1.11.2022 19:4:45.078
360, 1.92939, 0.317283, 347.124, 0, 0, -0.000976562, -0.0410156, 0.337891, -9.79883, 1.11.2022 19:4:45.086
361, 1.92939, 0.317283, 347.124, 0, -0.000976562, -0.000976562, -0.03125, 0.323242, -9.79688, 1.11.2022 19:4:45.094
362, 1.92939, 0.317283, 347.124, -0.00195312, -0.000976562, -0.000976562, -0.0908203, 0.349609, -9.7959, 1.11.2022 19:4:45.102
363, 1.92939, 0.317283, 347.124, -0.000976562, 0, 0, -0.0478516, 0.339844, -9.78223, 1.11.2022 19:4:45.110
364, 1.92939, 0.317283, 347.124, -0.00195312, -0.000976562, -0.000976562, -0.0625, 0.328125, -9.80859, 1.11.2022 19:4:45.118
365, 1.92939, 0.317283, 347.124, -0.000976562, -0.000976562, 0, -0.0625, 0.331055, -9.80859, 1.11.2022 19:4:45.126
366, 1.92939, 0.317283, 347.124, 0, -0.000976562, -0.000976562, -0.0078125, 0.319336, -9.81641, 1.11.2022 19:4:45.134
367, 1.93634, 0.316499, 347.124, 0, 0, -0.000976562, -0.0693359, 0.359375, -9.79297, 1.11.2022 19:4:45.142
368, 1.93634, 0.316499, 347.124, 0, -0.000976562, -0.00195312, -0.0644531, 0.351562, -9.77441, 1.11.2022 19:4:45.150
369, 1.93634, 0.316499, 347.124, 0, -0.000976562, -0.000976562, -0.0175781, 0.308594, -9.80078, 1.11.2022 19:4:45.158
370, 1.93634, 0.316499, 347.124, 0, -0.000976562, -0.000976562, -0.115234, 0.319336, -9.81055, 1.11.2022 19:4:45.166
371, 1.93634, 0.316499, 347.124, 0, -0.000976562, -0.000976562, -0.0546875, 0.332031, -9.76367, 1.11.2022 19:4:45.174
372, 1.93634, 0.316499, 347.124, -0.00195312, -0.000976562, -0.000976562, -0.0390625, 0.324219, -9.83496, 1.11.2022 19:4:45.182
373, 1.93634, 0.316499, 347.124, 0, -0.000976562, -0.000976562, -0.115234, 0.331055, -9.80566, 1.11.2022 19:4:45.190
374, 1.93634, 0.316499, 347.124, -0.000976562, 0, 0, -0.000976562, 0.326172, -9.81934, 1.11.2022 19:4:45.198
375, 1.93634, 0.316499, 347.124, 0, 0, -0.000976562, -0.0576172, 0.31543, -9.78027, 1.11.2022 19:4:45.206
376, 1.93634, 0.316499, 347.124, 0, -0.000976562, -0.000976562, -0.0722656, 0.349609, -9.79785, 1.11.2022 19:4:45.214
377, 1.93634, 0.316499, 347.124, -0.00195312, -0.000976562, -0.00195312, -0.00390625, 0.331055, -9.82129, 1.11.2022 19:4:45.222
378, 1.93634, 0.316499, 347.124, -0.00195312, 0, -0.000976562, -0.0986328, 0.345703, -9.82617, 1.11.2022 19:4:45.230
379, 1.93634, 0.316499, 347.124, 0, 0, -0.000976562, -0.0644531, 0.370117, -9.7627, 1.11.2022 19:4:45.238
380, 1.93634, 0.316499, 347.124, 0, 0, 0, -0.03125, 0.311523, -9.78613, 1.11.2022 19:4:45.246
381, 1.93634, 0.316499, 347.124, -0.00195312, -0.00195312, -0.000976562, -0.0908203, 0.339844, -9.7959, 1.11.2022 19:4:45.254
382, 1.93634, 0.316499, 347.124, 0.000976562, -0.000976562, 0, -0.0429688, 0.333008, -9.78516, 1.11.2022 19:4:45.262
383, 1.93634, 0.316499, 347.124, 0, -0.00195312, 0, -0.0556641, 0.313477, -9.79004, 1.11.2022 19:4:45.270
384, 1.93712, 0.323448, 347.124, 0.000976562, -0.00195312, 0, -0.120117, 0.333008, -9.78906, 1.11.2022 19:4:45.278
385, 1.93712, 0.323448, 347.124, 0, -0.000976562, 0, 0.00292969, 0.317383, -9.84082, 1.11.2022 19:4:45.286
386, 1.93712, 0.323448, 347.124, 0, -0.000976562, 0, -0.0820312, 0.334961, -9.79395, 1.11.2022 19:4:45.294
387, 1.93712, 0.323448, 347.124, 0, -0.00195312, -0.000976562, -0.0742188, 0.338867, -9.76562, 1.11.2022 19:4:45.302
388, 1.93712, 0.323448, 347.124, 0.000976562, 0, -0.000976562, -0.00390625, 0.332031, -9.83984, 1.11.2022 19:4:45.310
389, 1.93712, 0.323448, 347.124, 0, -0.000976562, -0.000976562, -0.112305, 0.318359, -9.79883, 1.11.2022 19:4:45.318
390, 1.93712, 0.323448, 347.124, -0.00195312, -0.000976562, -0.000976562, -0.0527344, 0.328125, -9.78027, 1.11.2022 19:4:45.326
391, 1.93712, 0.323448, 347.124, -0.00292969, 0, -0.000976562, -0.0458984, 0.331055, -9.80859, 1.11.2022 19:4:45.334
392, 1.93791, 0.330397, 347.123, 0, 0, -0.000976562, -0.12207, 0.359375, -9.80469, 1.11.2022 19:4:45.342
393, 1.93791, 0.330397, 347.123, 0, -0.000976562, 0, -0.015625, 0.324219, -9.83789, 1.11.2022 19:4:45.350
394, 1.93791, 0.330397, 347.123, 0, 0, -0.000976562, -0.0771484, 0.311523, -9.80371, 1.11.2022 19:4:45.358
395, 1.93791, 0.330397, 347.123, 0, -0.000976562, -0.000976562, -0.115234, 0.339844, -9.77637, 1.11.2022 19:4:45.366
396, 1.93791, 0.330397, 347.123, 0.000976562, 0, -0.000976562, -0.000976562, 0.291016, -9.8252, 1.11.2022 19:4:45.374
397, 1.93791, 0.330397, 347.123, 0, 0, -0.000976562, -0.0869141, 0.333008, -9.80078, 1.11.2022 19:4:45.382
398, 1.93791, 0.330397, 347.123, 0, -0.000976562, -0.00195312, -0.0732422, 0.319336, -9.83691, 1.11.2022 19:4:45.390
399, 1.93096, 0.331181, 347.123, 0, 0, -0.000976562, -0.03125, 0.311523, -9.78613, 1.11.2022 19:4:45.398
400, 1.93174, 0.33813, 347.123, 0, -0.000976562, -0.000976562, -0.100586, 0.345703, -9.80469, 1.11.2022 19:4:45.406
401, 1.93174, 0.33813, 347.123, 0, -0.000976562, -0.000976562, -0.0361328, 0.333008, -9.79492, 1.11.2022 19:4:45.414
402, 1.93174, 0.33813, 347.123, 0, 0, -0.000976562, -0.0722656, 0.328125, -9.80566, 1.11.2022 19:4:45.422
403, 1.93174, 0.33813, 347.123, 0, 0, -0.000976562, -0.103516, 0.378906, -9.81348, 1.11.2022 19:4:45.430
404, 1.93174, 0.33813, 347.123, -0.00195312, 0, -0.000976562, -0.00585938, 0.324219, -9.81641, 1.11.2022 19:4:45.438
405, 1.93174, 0.33813, 347.123, -0.00195312, 0, -0.000976562, -0.0839844, 0.321289, -9.79395, 1.11.2022 19:4:45.446
406, 1.93174, 0.33813, 347.123, 0, 0, -0.000976562, -0.0625, 0.347656, -9.79395, 1.11.2022 19:4:45.454
407, 1.93174, 0.33813, 347.123, 0, -0.000976562, -0.000976562, -0.0224609, 0.308594, -9.79102, 1.11.2022 19:4:45.462
408, 1.93174, 0.33813, 347.123, 0, -0.000976562, -0.00195312, -0.0917969, 0.328125, -9.80371, 1.11.2022 19:4:45.470
409, 1.93253, 0.345079, 347.123, 0, -0.00195312, -0.000976562, -0.0673828, 0.345703, -9.8125, 1.11.2022 19:4:45.478
410, 1.93255, 0.345193, 347.13, 0.000976562, -0.00195312, -0.00195312, -0.0439453, 0.311523, -9.81445, 1.11.2022 19:4:45.486
411, 1.93255, 0.345193, 347.13, 0, -0.000976562, -0.000976562, -0.0888672, 0.357422, -9.81641, 1.11.2022 19:4:45.494
412, 1.93255, 0.345193, 347.13, -0.00195312, -0.000976562, -0.000976562, -0.0136719, 0.34375, -9.84473, 1.11.2022 19:4:45.502
413, 1.93255, 0.345193, 347.13, 0, 0, -0.000976562, -0.0839844, 0.34375, -9.76953, 1.11.2022 19:4:45.510
414, 1.93255, 0.345193, 347.13, 0.000976562, 0, -0.000976562, -0.0859375, 0.351562, -9.78613, 1.11.2022 19:4:45.518
415, 1.93255, 0.345193, 347.13, 0.000976562, 0, -0.000976562, -0.0175781, 0.361328, -9.78906, 1.11.2022 19:4:45.526
416, 1.93949, 0.34441, 347.13, 0, -0.000976562, -0.000976562, -0.100586, 0.326172, -9.80078, 1.11.2022 19:4:45.534
417, 1.93949, 0.34441, 347.13, 0, -0.000976562, -0.000976562, -0.0693359, 0.327148, -9.77734, 1.11.2022 19:4:45.542
418, 1.93949, 0.34441, 347.13, 0, -0.000976562, -0.00195312, -0.0341797, 0.313477, -9.77832, 1.11.2022 19:4:45.550
419, 1.94027, 0.351359, 347.13, 0, -0.000976562, -0.000976562, -0.118164, 0.341797, -9.85449, 1.11.2022 19:4:45.558
420, 1.94027, 0.351359, 347.13, 0, -0.000976562, -0.000976562, -0.0537109, 0.30957, -9.81348, 1.11.2022 19:4:45.566
421, 1.94027, 0.351359, 347.13, 0, 0, -0.000976562, -0.0605469, 0.349609, -9.78906, 1.11.2022 19:4:45.574
422, 1.94027, 0.351359, 347.13, -0.00195312, 0, 0, -0.0957031, 0.352539, -9.79297, 1.11.2022 19:4:45.582
423, 1.94027, 0.351359, 347.13, 0, -0.000976562, 0, -0.00976562, 0.31543, -9.77148, 1.11.2022 19:4:45.590
424, 1.94027, 0.351359, 347.13, 0, 0, 0, -0.0439453, 0.342773, -9.79395, 1.11.2022 19:4:45.598
425, 1.94027, 0.351359, 347.13, 0, 0.000976562, 0, -0.0654297, 0.369141, -9.7959, 1.11.2022 19:4:45.606
426, 1.94722, 0.350576, 347.13, 0, -0.000976562, 0, -0.00878906, 0.317383, -9.83789, 1.11.2022 19:4:45.614
427, 1.94722, 0.350576, 347.13, -0.000976562, -0.000976562, 0.000976562, -0.078125, 0.333984, -9.84375, 1.11.2022 19:4:45.622
428, 1.94722, 0.350576, 347.13, 0, -0.000976562, 0, -0.0556641, 0.345703, -9.80859, 1.11.2022 19:4:45.630
429, 1.94722, 0.350576, 347.13, -0.00195312, -0.000976562, 0, -0.0380859, 0.34375, -9.77539, 1.11.2022 19:4:45.638
430, 1.94722, 0.350576, 347.13, -0.00195312, -0.000976562, 0, -0.123047, 0.37207, -9.81836, 1.11.2022 19:4:45.646
431, 1.95417, 0.349792, 347.13, 0, 0, 0, -0.0263672, 0.323242, -9.7832, 1.11.2022 19:4:45.654
432, 1.95417, 0.349792, 347.13, 0, -0.000976562, 0, -0.0478516, 0.325195, -9.78516, 1.11.2022 19:4:45.662
433, 1.95417, 0.349792, 347.13, 0, 0, -0.000976562, -0.0888672, 0.354492, -9.7959, 1.11.2022 19:4:45.670
434, 1.95417, 0.349792, 347.13, 0, 0, 0, -0.00585938, 0.305664, -9.83887, 1.11.2022 19:4:45.678
435, 1.95338, 0.342843, 347.13, 0, 0, 0, -0.0966797, 0.333008, -9.80762, 1.11.2022 19:4:45.686
436, 1.95338, 0.342843, 347.13, -0.00195312, 0, 0, -0.0537109, 0.347656, -9.81055, 1.11.2022 19:4:45.694
437, 1.95338, 0.342843, 347.13, 0, -0.000976562, 0, -0.0126953, 0.335938, -9.81152, 1.11.2022 19:4:45.702
438, 1.95338, 0.342843, 347.13, 0, 0, -0.000976562, -0.0908203, 0.351562, -9.78809, 1.11.2022 19:4:45.710
439, 1.95338, 0.342843, 347.13, 0.000976562, -0.00195312, 0, -0.0527344, 0.342773, -9.79199, 1.11.2022 19:4:45.718
440, 1.96033, 0.34206, 347.13, 0, -0.00195312, 0, -0.0292969, 0.324219, -9.81348, 1.11.2022 19:4:45.726
441, 1.96033, 0.34206, 347.13, 0, -0.000976562, 0, -0.100586, 0.34082, -9.80273, 1.11.2022 19:4:45.734
442, 1.96033, 0.34206, 347.13, 0, -0.000976562, 0, -0.0078125, 0.308594, -9.79297, 1.11.2022 19:4:45.742
443, 1.96033, 0.34206, 347.13, 0, -0.000976562, 0, -0.0458984, 0.311523, -9.80664, 1.11.2022 19:4:45.750
444, 1.96033, 0.34206, 347.13, 0, -0.000976562, -0.00195312, -0.0703125, 0.357422, -9.80273, 1.11.2022 19:4:45.758
445, 1.96033, 0.34206, 347.13, 0, -0.000976562, 0, -0.00878906, 0.319336, -9.83105, 1.11.2022 19:4:45.766
446, 1.95955, 0.335111, 347.13, 0, -0.000976562, 0, -0.0771484, 0.358398, -9.83105, 1.11.2022 19:4:45.774
447, 1.95955, 0.335111, 347.13, -0.00195312, -0.000976562, 0, -0.0625, 0.334961, -9.78516, 1.11.2022 19:4:45.782
448, 1.95955, 0.335111, 347.13, 0, -0.000976562, 0, -0.0390625, 0.344727, -9.78516, 1.11.2022 19:4:45.790
449, 1.95955, 0.335111, 347.13, -0.00195312, 0, 0, -0.0888672, 0.356445, -9.7793, 1.11.2022 19:4:45.798
450, 1.95955, 0.335111, 347.13, -0.00195312, 0, 0, -0.0244141, 0.326172, -9.80664, 1.11.2022 19:4:45.806
451, 1.95955, 0.335111, 347.13, 0, 0, 0, -0.0439453, 0.331055, -9.81152, 1.11.2022 19:4:45.814
452, 1.95876, 0.328162, 347.13, 0.000976562, -0.000976562, 0.000976562, -0.0722656, 0.323242, -9.80176, 1.11.2022 19:4:45.822
453, 1.95876, 0.328162, 347.13, 0, -0.000976562, 0, -0.0263672, 0.334961, -9.77539, 1.11.2022 19:4:45.830
454, 1.95876, 0.328162, 347.13, 0, 0, -0.00195312, -0.0986328, 0.342773, -9.80078, 1.11.2022 19:4:45.838
455, 1.95876, 0.328162, 347.13, 0, -0.000976562, 0, -0.0732422, 0.336914, -9.83887, 1.11.2022 19:4:45.846
456, 1.95876, 0.328162, 347.13, 0, -0.000976562, 0.000976562, -0.0439453, 0.3125, -9.83008, 1.11.2022 19:4:45.854
457, 1.95876, 0.328162, 347.13, 0, -0.000976562, 0, -0.0986328, 0.344727, -9.79297, 1.11.2022 19:4:45.862
458, 1.95876, 0.328162, 347.13, 0, -0.000976562, 0.000976562, -0.0478516, 0.356445, -9.78223, 1.11.2022 19:4:45.870
459, 1.95874, 0.328046, 347.123, 0, -0.000976562, 0, -0.0507812, 0.321289, -9.79199, 1.11.2022 19:4:45.878
460, 1.95874, 0.328046, 347.123, 0, 0, 0.000976562, -0.0986328, 0.337891, -9.79395, 1.11.2022 19:4:45.886
461, 1.95874, 0.328046, 347.123, 0, -0.000976562, 0, -0.0195312, 0.298828, -9.78418, 1.11.2022 19:4:45.894
462, 1.95874, 0.328046, 347.123, 0, -0.000976562, 0, -0.0585938, 0.316406, -9.81836, 1.11.2022 19:4:45.902
463, 1.95953, 0.334995, 347.123, 0.000976562, 0, -0.00195312, -0.107422, 0.334961, -9.79102, 1.11.2022 19:4:45.910
464, 1.95258, 0.335778, 347.123, 0, -0.000976562, 0, -0.0439453, 0.326172, -9.80176, 1.11.2022 19:4:45.918
465, 1.95258, 0.335778, 347.123, 0, -0.000976562, 0, -0.0927734, 0.344727, -9.86621, 1.11.2022 19:4:45.926
466, 1.95258, 0.335778, 347.123, 0, -0.000976562, 0, -0.0722656, 0.334961, -9.7959, 1.11.2022 19:4:45.934
467, 1.95258, 0.335778, 347.123, 0, 0, 0, -0.0527344, 0.298828, -9.7666, 1.11.2022 19:4:45.940
468, 1.95258, 0.335778, 347.123, 0.000976562, 0.000976562, 0, -0.105469, 0.339844, -9.7959, 1.11.2022 19:4:45.948
469, 1.95258, 0.335778, 347.123, -0.000976562, 0, 0, -0.0341797, 0.352539, -9.80078, 1.11.2022 19:4:45.956
470, 1.95336, 0.342727, 347.123, -0.000976562, -0.000976562, 0, -0.0556641, 0.338867, -9.83203, 1.11.2022 19:4:45.964
471, 1.95336, 0.342727, 347.123, 0, -0.000976562, -0.00195312, -0.0791016, 0.344727, -9.78223, 1.11.2022 19:4:45.972
472, 1.95338, 0.342843, 347.13, 0, -0.000976562, 0, -0.0078125, 0.334961, -9.78809, 1.11.2022 19:4:45.980
473, 1.95338, 0.342843, 347.13, 0.000976562, 0, -0.00195312, -0.0537109, 0.352539, -9.82227, 1.11.2022 19:4:45.988
474, 1.95338, 0.342843, 347.13, 0, 0, 0, -0.0654297, 0.327148, -9.83496, 1.11.2022 19:4:45.996
475, 1.95338, 0.342843, 347.13, 0, -0.000976562, 0, -0.03125, 0.322266, -9.76855, 1.11.2022 19:4:46.004
476, 1.95338, 0.342843, 347.13, 0, 0, 0.000976562, -0.100586, 0.331055, -9.79883, 1.11.2022 19:4:46.012
477, 1.95336, 0.342727, 347.123, 0, 0, 0, -0.0341797, 0.328125, -9.80859, 1.11.2022 19:4:46.020
478, 1.94642, 0.343511, 347.123, 0, 0.000976562, 0.000976562, -0.0371094, 0.322266, -9.8252, 1.11.2022 19:4:46.028
479, 1.94564, 0.336562, 347.123, 0, 0, 0, -0.09375, 0.347656, -9.81445, 1.11.2022 19:4:46.036
480, 1.94564, 0.336562, 347.123, 0, 0, 0.000976562, -0.0175781, 0.316406, -9.80273, 1.11.2022 19:4:46.044
481, 1.94564, 0.336562, 347.123, 0.000976562, 0, 0, -0.0722656, 0.333984, -9.81543, 1.11.2022 19:4:46.052
482, 1.94564, 0.336562, 347.123, 0.000976562, 0, 0.000976562, -0.0791016, 0.373047, -9.79004, 1.11.2022 19:4:46.060
483, 1.94564, 0.336562, 347.123, 0, 0, 0, -0.0175781, 0.323242, -9.80469, 1.11.2022 19:4:46.068
484, 1.94564, 0.336562, 347.123, 0, -0.000976562, 0, -0.0869141, 0.328125, -9.80859, 1.11.2022 19:4:46.076
485, 1.94564, 0.336562, 347.123, 0, -0.000976562, 0, -0.0742188, 0.321289, -9.79004, 1.11.2022 19:4:46.084
486, 1.94564, 0.336562, 347.123, -0.000976562, 0, -0.000976562, -0.0175781, 0.316406, -9.80762, 1.11.2022 19:4:46.092
487, 1.94564, 0.336562, 347.123, 0, 0, -0.00195312, -0.124023, 0.351562, -9.77637, 1.11.2022 19:4:46.100
488, 1.94564, 0.336562, 347.123, 0.000976562, 0, 0, -0.0439453, 0.326172, -9.81641, 1.11.2022 19:4:46.108
489, 1.94564, 0.336562, 347.123, 0, -0.000976562, -0.000976562, -0.0566406, 0.341797, -9.8418, 1.11.2022 19:4:46.116
490, 1.94564, 0.336562, 347.123, 0, -0.000976562, -0.00195312, -0.0869141, 0.355469, -9.83301, 1.11.2022 19:4:46.124
491, 1.94564, 0.336562, 347.123, 0, -0.000976562, -0.000976562, -0.0078125, 0.314453, -9.80957, 1.11.2022 19:4:46.132
492, 1.94564, 0.336562, 347.123, -0.00195312, -0.00195312, -0.000976562, -0.0791016, 0.344727, -9.78906, 1.11.2022 19:4:46.140
493, 1.94564, 0.336562, 347.123, -0.000976562, -0.000976562, -0.00195312, -0.0742188, 0.356445, -9.79297, 1.11.2022 19:4:46.148
494, 1.94564, 0.336562, 347.123, -0.00195312, -0.000976562, -0.000976562, -0.000976562, 0.304688, -9.80762, 1.11.2022 19:4:46.156
495, 1.94564, 0.336562, 347.123, -0.00195312, 0, -0.000976562, -0.108398, 0.329102, -9.81445, 1.11.2022 19:4:46.164
496, 1.94642, 0.343511, 347.123, -0.00195312, -0.000976562, -0.000976562, -0.0625, 0.319336, -9.80859, 1.11.2022 19:4:46.172
497, 1.94642, 0.343511, 347.123, -0.000976562, -0.000976562, -0.000976562, -0.0556641, 0.330078, -9.78027, 1.11.2022 19:4:46.180
498, 1.94644, 0.343627, 347.13, 0, -0.000976562, -0.000976562, -0.0722656, 0.339844, -9.78418, 1.11.2022 19:4:46.188
499, 1.94644, 0.343627, 347.13, 0, -0.000976562, -0.000976562, 0.00878906, 0.333984, -9.82129, 1.11.2022 19:4:46.196
500, 1.94642, 0.343511, 347.123, -0.000976562, 0, 0, -0.0751953, 0.335938, -9.82227, 1.11.2022 19:4:46.204
501, 1.94564, 0.336562, 347.123, -0.000976562, 0, 0, -0.0791016, 0.353516, -9.77441, 1.11.2022 19:4:46.212
502, 1.94564, 0.336562, 347.123, -0.000976562, 0, -0.000976562, -0.0175781, 0.333008, -9.80957, 1.11.2022 19:4:46.220
503, 1.94564, 0.336562, 347.123, -0.000976562, -0.000976562, -0.00195312, -0.0839844, 0.328125, -9.7959, 1.11.2022 19:4:46.228
504, 1.94565, 0.336678, 347.13, -0.000976562, -0.000976562, -0.00195312, -0.0556641, 0.319336, -9.82324, 1.11.2022 19:4:46.236
505, 1.94565, 0.336678, 347.13, -0.000976562, -0.000976562, -0.00195312, -0.0175781, 0.299805, -9.80273, 1.11.2022 19:4:46.244
506, 1.94565, 0.336678, 347.13, -0.00195312, -0.000976562, -0.00292969, -0.124023, 0.353516, -9.75, 1.11.2022 19:4:46.252
507, 1.94565, 0.336678, 347.13, -0.00195312, -0.000976562, -0.00195312, -0.0117188, 0.336914, -9.77148, 1.11.2022 19:4:46.260
508, 1.94565, 0.336678, 347.13, -0.000976562, -0.000976562, -0.000976562, -0.0605469, 0.306641, -9.80664, 1.11.2022 19:4:46.268
509, 1.94565, 0.336678, 347.13, -0.000976562, -0.000976562, -0.000976562, -0.12207, 0.357422, -9.79492, 1.11.2022 19:4:46.276
510, 1.94565, 0.336678, 347.13, -0.000976562, -0.000976562, -0.000976562, -0.0078125, 0.328125, -9.79297, 1.11.2022 19:4:46.284
511, 1.94565, 0.336678, 347.13, -0.000976562, -0.000976562, -0.000976562, -0.0742188, 0.330078, -9.79395, 1.11.2022 19:4:46.292
512, 1.94565, 0.336678, 347.13, 0, -0.00195312, -0.000976562, -0.0820312, 0.339844, -9.79395, 1.11.2022 19:4:46.300
513, 1.94565, 0.336678, 347.13, -0.000976562, -0.000976562, 0, -0.00683594, 0.31543, -9.76465, 1.11.2022 19:4:46.308
514, 1.94565, 0.336678, 347.13, -0.000976562, 0, -0.000976562, -0.0966797, 0.345703, -9.8125, 1.11.2022 19:4:46.316
515, 1.94565, 0.336678, 347.13, -0.000976562, -0.000976562, -0.00195312, -0.0380859, 0.317383, -9.77344, 1.11.2022 19:4:46.324
516, 1.94565, 0.336678, 347.13, -0.000976562, -0.000976562, -0.00195312, -0.0195312, 0.319336, -9.80957, 1.11.2022 19:4:46.332
517, 1.94565, 0.336678, 347.13, -0.000976562, -0.000976562, -0.000976562, -0.0791016, 0.342773, -9.78906, 1.11.2022 19:4:46.340
518, 1.94565, 0.336678, 347.13, -0.000976562, -0.000976562, 0, -0.00488281, 0.344727, -9.79199, 1.11.2022 19:4:46.348
519, 1.94565, 0.336678, 347.13, 0.000976562, 0, 0.000976562, -0.0576172, 0.323242, -9.7832, 1.11.2022 19:4:46.356
520, 1.94565, 0.336678, 347.13, -0.000976562, -0.000976562, 0, -0.0771484, 0.358398, -9.83105, 1.11.2022 19:4:46.364
521, 1.94487, 0.329729, 347.13, -0.000976562, -0.000976562, 0.000976562, 0.00390625, 0.34082, -9.83008, 1.11.2022 19:4:46.372
522, 1.94487, 0.329729, 347.13, -0.000976562, 0, 0, -0.113281, 0.352539, -9.81641, 1.11.2022 19:4:46.380
523, 1.94487, 0.329729, 347.13, -0.000976562, -0.000976562, 0, -0.0742188, 0.349609, -9.7959, 1.11.2022 19:4:46.388
524, 1.94487, 0.329729, 347.13, -0.000976562, -0.000976562, 0.000976562, -0.0195312, 0.345703, -9.81348, 1.11.2022 19:4:46.396
525, 1.94487, 0.329729, 347.13, -0.000976562, -0.000976562, 0, -0.103516, 0.350586, -9.81152, 1.11.2022 19:4:46.404
526, 1.95182, 0.328945, 347.13, -0.000976562, -0.00195312, 0, -0.0458984, 0.339844, -9.79395, 1.11.2022 19:4:46.412
527, 1.95182, 0.328945, 347.13, -0.000976562, -0.000976562, -0.000976562, -0.0507812, 0.336914, -9.78516, 1.11.2022 19:4:46.420
528, 1.95182, 0.328945, 347.13, -0.000976562, -0.000976562, 0, -0.100586, 0.369141, -9.7998, 1.11.2022 19:4:46.428
529, 1.95182, 0.328945, 347.13, -0.000976562, -0.000976562, 0, -0.0175781, 0.323242, -9.7832, 1.11.2022 19:4:46.436
530, 1.95182, 0.328945, 347.13, -0.000976562, -0.000976562, -0.000976562, -0.0820312, 0.342773, -9.81934, 1.11.2022 19:4:46.444
531, 1.95955, 0.335111, 347.13, 0.000976562, -0.000976562, 0, -0.0693359, 0.34668, -9.76758, 1.11.2022 19:4:46.452
532, 1.95955, 0.335111, 347.13, -0.000976562, -0.000976562, 0, -0.0214844, 0.328125, -9.78516, 1.11.2022 19:4:46.460
533, 1.95955, 0.335111, 347.13, -0.00195312, -0.00195312, 0, -0.0986328, 0.34082, -9.80273, 1.11.2022 19:4:46.468
534, 1.95955, 0.335111, 347.13, -0.00195312, -0.000976562, 0, -0.0751953, 0.335938, -9.81055, 1.11.2022 19:4:46.476
535, 1.95955, 0.335111, 347.13, -0.000976562, -0.000976562, 0, -0.0244141, 0.325195, -9.76465, 1.11.2022 19:4:46.484
536, 1.95955, 0.335111, 347.13, -0.000976562, -0.000976562, 0, -0.0986328, 0.337891, -9.78906, 1.11.2022 19:4:46.492
537, 1.95955, 0.335111, 347.13, 0.000976562, -0.000976562, 0, -0.0224609, 0.333008, -9.7998, 1.11.2022 19:4:46.500
538, 1.95955, 0.335111, 347.13, -0.000976562, -0.000976562, 0, -0.0771484, 0.306641, -9.81152, 1.11.2022 19:4:46.508
539, 1.95955, 0.335111, 347.13, -0.000976562, -0.000976562, -0.000976562, -0.0917969, 0.321289, -9.81543, 1.11.2022 19:4:46.516
540, 1.95955, 0.335111, 347.13, -0.000976562, -0.000976562, -0.000976562, 0.0126953, 0.321289, -9.8291, 1.11.2022 19:4:46.524
541, 1.95955, 0.335111, 347.13, -0.000976562, -0.00195312, 0, -0.0625, 0.342773, -9.80078, 1.11.2022 19:4:46.532
542, 1.95955, 0.335111, 347.13, -0.000976562, -0.000976562, 0, -0.0380859, 0.34668, -9.78223, 1.11.2022 19:4:46.540
543, 1.95955, 0.335111, 347.13, -0.000976562, -0.000976562, 0, -0.0078125, 0.314453, -9.81641, 1.11.2022 19:4:46.548
544, 1.95955, 0.335111, 347.13, 0.000976562, -0.000976562, 0, -0.0986328, 0.328125, -9.78223, 1.11.2022 19:4:46.556
545, 1.95955, 0.335111, 347.13, -0.000976562, -0.000976562, 0, -0.0214844, 0.336914, -9.76367, 1.11.2022 19:4:46.564
546, 1.95876, 0.328162, 347.13, -0.000976562, 0, -0.000976562, -0.0507812, 0.332031, -9.78027, 1.11.2022 19:4:46.572
547, 1.95876, 0.328162, 347.13, -0.000976562, 0, 0, -0.0908203, 0.334961, -9.78223, 1.11.2022 19:4:46.580
548, 1.95876, 0.328162, 347.13, -0.000976562, 0, 0.000976562, -0.0078125, 0.330078, -9.79297, 1.11.2022 19:4:46.588
549, 1.95876, 0.328162, 347.13, -0.000976562, 0, 0.000976562, -0.0273438, 0.326172, -9.80664, 1.11.2022 19:4:46.596
550, 1.95796, 0.321097, 347.124, -0.000976562, -0.000976562, -0.000976562, -0.0742188, 0.336914, -9.76074, 1.11.2022 19:4:46.604
551, 1.95796, 0.321097, 347.124, 0.000976562, -0.000976562, -0.000976562, -0.0273438, 0.316406, -9.7998, 1.11.2022 19:4:46.612
552, 1.95796, 0.321097, 347.124, -0.000976562, -0.000976562, 0.000976562, -0.09375, 0.34668, -9.7793, 1.11.2022 19:4:46.620
553, 1.95796, 0.321097, 347.124, -0.000976562, 0, 0, -0.0537109, 0.354492, -9.8125, 1.11.2022 19:4:46.628
554, 1.95101, 0.32188, 347.124, -0.000976562, -0.000976562, -0.000976562, -0.0195312, 0.311523, -9.79785, 1.11.2022 19:4:46.636
555, 1.95101, 0.32188, 347.124, -0.000976562, 0, 0, -0.124023, 0.351562, -9.77832, 1.11.2022 19:4:46.644
556, 1.95023, 0.314931, 347.124, -0.000976562, -0.000976562, -0.000976562, -0.0126953, 0.333008, -9.81348, 1.11.2022 19:4:46.652
557, 1.95023, 0.314931, 347.124, -0.000976562, 0, 0, -0.0556641, 0.307617, -9.82129, 1.11.2022 19:4:46.660
558, 1.95023, 0.314931, 347.124, -0.000976562, 0.000976562, -0.00195312, -0.0742188, 0.333008, -9.80371, 1.11.2022 19:4:46.668
559, 1.95023, 0.314931, 347.124, 0.000976562, -0.000976562, -0.000976562, -0.0107422, 0.307617, -9.82617, 1.11.2022 19:4:46.676
560, 1.95023, 0.314931, 347.124, 0.000976562, -0.000976562, -0.000976562, -0.0791016, 0.357422, -9.80469, 1.11.2022 19:4:46.684
561, 1.95025, 0.315048, 347.13, 0, -0.00195312, -0.00195312, -0.0527344, 0.352539, -9.80078, 1.11.2022 19:4:46.692
562, 1.95025, 0.315048, 347.13, -0.000976562, -0.000976562, -0.000976562, -0.0195312, 0.318359, -9.77832, 1.11.2022 19:4:46.700
563, 1.95025, 0.315048, 347.13, -0.000976562, -0.000976562, -0.00195312, -0.0869141, 0.323242, -9.79688, 1.11.2022 19:4:46.708
564, 1.95025, 0.315048, 347.13, -0.000976562, -0.000976562, -0.00195312, -0.0341797, 0.361328, -9.80078, 1.11.2022 19:4:46.716
565, 1.94947, 0.308099, 347.131, 0, -0.000976562, -0.00195312, -0.0175781, 0.335938, -9.81152, 1.11.2022 19:4:46.724
566, 1.94947, 0.308099, 347.131, 0.000976562, -0.000976562, -0.000976562, -0.110352, 0.361328, -9.78516, 1.11.2022 19:4:46.732
567, 1.94947, 0.308099, 347.131, -0.000976562, -0.000976562, -0.000976562, -0.0380859, 0.321289, -9.73633, 1.11.2022 19:4:46.740
568, 1.94947, 0.308099, 347.131, -0.00195312, 0, 0, -0.0869141, 0.322266, -9.82715, 1.11.2022 19:4:46.748
569, 1.94947, 0.308099, 347.131, -0.000976562, -0.000976562, -0.000976562, -0.0761719, 0.358398, -9.77441, 1.11.2022 19:4:46.756
570, 1.94947, 0.308099, 347.131, 0.000976562, -0.000976562, 0.000976562, -0.00488281, 0.325195, -9.7832, 1.11.2022 19:4:46.764
571, 1.95025, 0.315048, 347.13, 0.000976562, -0.000976562, 0.000976562, -0.0839844, 0.316406, -9.79199, 1.11.2022 19:4:46.772
572, 1.95025, 0.315048, 347.13, 0.000976562, -0.000976562, 0.000976562, -0.0507812, 0.323242, -9.78516, 1.11.2022 19:4:46.780
573, 1.94947, 0.308099, 347.131, -0.000976562, -0.000976562, -0.000976562, -0.0244141, 0.318359, -9.80273, 1.11.2022 19:4:46.788
574, 1.95025, 0.315048, 347.13, -0.000976562, -0.000976562, 0.000976562, -0.09375, 0.333008, -9.8125, 1.11.2022 19:4:46.796
575, 1.95023, 0.314931, 347.124, 0.000976562, -0.00195312, 0.000976562, -0.03125, 0.316406, -9.79492, 1.11.2022 19:4:46.804
576, 1.95023, 0.314931, 347.124, -0.000976562, -0.000976562, 0.000976562, -0.0556641, 0.321289, -9.79492, 1.11.2022 19:4:46.812
577, 1.94328, 0.315715, 347.124, 0.000976562, -0.000976562, -0.000976562, -0.0869141, 0.364258, -9.80469, 1.11.2022 19:4:46.820
578, 1.94328, 0.315715, 347.124, -0.000976562, -0.000976562, 0.000976562, 0.00390625, 0.291992, -9.80078, 1.11.2022 19:4:46.828
579, 1.94328, 0.315715, 347.124, -0.000976562, -0.000976562, 0.000976562, -0.0859375, 0.310547, -9.78027, 1.11.2022 19:4:46.836
580, 1.94328, 0.315715, 347.124, -0.000976562, -0.000976562, -0.000976562, -0.0605469, 0.329102, -9.82031, 1.11.2022 19:4:46.844
581, 1.9425, 0.308766, 347.124, -0.00195312, -0.000976562, -0.00195312, -0.0078125, 0.302734, -9.81445, 1.11.2022 19:4:46.852
582, 1.9425, 0.308766, 347.124, -0.000976562, -0.000976562, -0.000976562, -0.113281, 0.337891, -9.80469, 1.11.2022 19:4:46.860
583, 1.93634, 0.316499, 347.124, -0.000976562, -0.000976562, -0.000976562, -0.0458984, 0.34668, -9.77246, 1.11.2022 19:4:46.868
584, 1.93556, 0.30955, 347.124, -0.000976562, -0.000976562, -0.000976562, -0.0419922, 0.310547, -9.83984, 1.11.2022 19:4:46.876
585, 1.93634, 0.316499, 347.124, -0.000976562, -0.000976562, 0, -0.102539, 0.338867, -9.76074, 1.11.2022 19:4:46.884
586, 1.93634, 0.316499, 347.124, -0.000976562, -0.000976562, -0.00195312, -0.0390625, 0.334961, -9.79004, 1.11.2022 19:4:46.890
587, 1.93634, 0.316499, 347.124, -0.000976562, -0.000976562, -0.000976562, -0.0693359, 0.339844, -9.77539, 1.11.2022 19:4:46.898
588, 1.93634, 0.316499, 347.124, -0.000976562, -0.000976562, -0.000976562, -0.0605469, 0.347656, -9.80762, 1.11.2022 19:4:46.906
589, 1.93634, 0.316499, 347.124, 0, -0.000976562, 0, -0.015625, 0.296875, -9.80566, 1.11.2022 19:4:46.914
590, 1.93634, 0.316499, 347.124, -0.000976562, -0.000976562, 0, -0.0986328, 0.357422, -9.82324, 1.11.2022 19:4:46.922
591, 1.93634, 0.316499, 347.124, -0.000976562, 0, -0.000976562, -0.0625, 0.336914, -9.77734, 1.11.2022 19:4:46.930
592, 1.93634, 0.316499, 347.124, 0, -0.000976562, -0.000976562, 0.00195312, 0.306641, -9.79395, 1.11.2022 19:4:46.938
593, 1.93634, 0.316499, 347.124, 0, -0.000976562, -0.000976562, -0.09375, 0.328125, -9.78418, 1.11.2022 19:4:46.946
594, 1.92939, 0.317283, 347.124, -0.000976562, -0.000976562, -0.000976562, -0.0371094, 0.34375, -9.8252, 1.11.2022 19:4:46.954
595, 1.92939, 0.317283, 347.124, -0.000976562, -0.00195312, -0.000976562, -0.0527344, 0.308594, -9.78809, 1.11.2022 19:4:46.962
596, 1.92939, 0.317283, 347.124, -0.000976562, -0.00195312, 0, -0.0742188, 0.344727, -9.79102, 1.11.2022 19:4:46.970
597, 1.92939, 0.317283, 347.124, -0.000976562, -0.000976562, 0, -0.0146484, 0.303711, -9.78906, 1.11.2022 19:4:46.978
598, 1.92939, 0.317283, 347.124, -0.000976562, 0, -0.000976562, -0.0791016, 0.328125, -9.77734, 1.11.2022 19:4:46.986
599, 1.92939, 0.317283, 347.124, -0.000976562, 0, -0.000976562, -0.0712891, 0.361328, -9.76953, 1.11.2022 19:4:46.994
600, 1.92939, 0.317283, 347.124, -0.000976562, -0.000976562, -0.000976562, -0.0244141, 0.337891, -9.80859, 1.11.2022 19:4:47.002
601, 1.92939, 0.317283, 347.124, -0.000976562, -0.000976562, -0.000976562, -0.0986328, 0.349609, -9.79785, 1.11.2022 19:4:47.010
602, 1.92939, 0.317283, 347.124, -0.000976562, -0.00195312, -0.000976562, -0.0390625, 0.366211, -9.80078, 1.11.2022 19:4:47.018
603, 1.93634, 0.316499, 347.124, -0.000976562, -0.000976562, -0.000976562, -0.0537109, 0.342773, -9.81055, 1.11.2022 19:4:47.026
604, 1.93634, 0.316499, 347.124, -0.000976562, -0.000976562, -0.000976562, -0.09375, 0.34082, -9.80273, 1.11.2022 19:4:47.034
605, 1.93634, 0.316499, 347.124, -0.000976562, 0, -0.000976562, -0.0195312, 0.318359, -9.79102, 1.11.2022 19:4:47.042
606, 1.93634, 0.316499, 347.124, 0, -0.000976562, -0.000976562, -0.0693359, 0.333008, -9.79199, 1.11.2022 19:4:47.050
607, 1.93712, 0.323448, 347.124, 0, 0, -0.000976562, -0.0693359, 0.320312, -9.75684, 1.11.2022 19:4:47.058
608, 1.93634, 0.316499, 347.124, -0.000976562, 0, -0.000976562, -0.0244141, 0.332031, -9.77637, 1.11.2022 19:4:47.066
609, 1.93712, 0.323448, 347.124, -0.000976562, 0.000976562, -0.00195312, -0.0908203, 0.352539, -9.7959, 1.11.2022 19:4:47.074
610, 1.94407, 0.322664, 347.124, -0.000976562, -0.000976562, -0.000976562, -0.0478516, 0.334961, -9.76855, 1.11.2022 19:4:47.082
611, 1.94407, 0.322664, 347.124, -0.000976562, -0.000976562, -0.000976562, -0.00683594, 0.310547, -9.75586, 1.11.2022 19:4:47.090
612, 1.94328, 0.315715, 347.124, -0.000976562, -0.000976562, -0.000976562, -0.0722656, 0.336914, -9.78223, 1.11.2022 19:4:47.098
613, 1.94328, 0.315715, 347.124, -0.000976562, -0.000976562, -0.000976562, -0.0107422, 0.326172, -9.81152, 1.11.2022 19:4:47.106
614, 1.94328, 0.315715, 347.124, 0, -0.000976562, -0.000976562, -0.0146484, 0.323242, -9.7832, 1.11.2022 19:4:47.114
615, 1.94328, 0.315715, 347.124, -0.000976562, -0.000976562, -0.000976562, -0.0800781, 0.327148, -9.8457, 1.11.2022 19:4:47.122
616, 1.94328, 0.315715, 347.124, -0.000976562, -0.000976562, 0, -0.000976562, 0.321289, -9.82617, 1.11.2022 19:4:47.130
617, 1.9425, 0.308766, 347.124, 0, -0.000976562, 0, -0.0634766, 0.345703, -9.82227, 1.11.2022 19:4:47.138
618, 1.9425, 0.308766, 347.124, -0.000976562, -0.000976562, -0.000976562, -0.0693359, 0.34668, -9.77441, 1.11.2022 19:4:47.146
619, 1.9425, 0.308766, 347.124, -0.00195312, -0.00195312, -0.000976562, -0.00976562, 0.3125, -9.76465, 1.11.2022 19:4:47.154
620, 1.9425, 0.308766, 347.124, -0.00195312, -0.000976562, -0.00195312, -0.0820312, 0.342773, -9.81738, 1.11.2022 19:4:47.162
621, 1.9425, 0.308766, 347.124, -0.00195312, -0.000976562, -0.000976562, -0.0292969, 0.333008, -9.80859, 1.11.2022 19:4:47.170
622, 1.94172, 0.301817, 347.124, -0.000976562, -0.000976562, -0.00195312, -0.0224609, 0.296875, -9.79102, 1.11.2022 19:4:47.178
623, 1.94172, 0.301817, 347.124, 0, -0.000976562, -0.000976562, -0.0742188, 0.328125, -9.79395, 1.11.2022 19:4:47.186
624, 1.94172, 0.301817, 347.124, 0, -0.000976562, -0.000976562, -0.0146484, 0.320312, -9.77832, 1.11.2022 19:4:47.194
625, 1.94172, 0.301817, 347.124, -0.000976562, -0.000976562, -0.000976562, -0.0341797, 0.335938, -9.81152, 1.11.2022 19:4:47.202
626, 1.94093, 0.294868, 347.124, -0.000976562, 0, 0.000976562, -0.0888672, 0.342773, -9.80762, 1.11.2022 19:4:47.210
627, 1.94093, 0.294868, 347.124, -0.000976562, 0, -0.000976562, 0, 0.31543, -9.78125, 1.11.2022 19:4:47.218
628, 1.94093, 0.294868, 347.124, 0, -0.000976562, -0.000976562, -0.0839844, 0.333008, -9.79395, 1.11.2022 19:4:47.226
629, 1.94093, 0.294868, 347.124, -0.000976562, -0.000976562, 0, -0.0771484, 0.344727, -9.80078, 1.11.2022 19:4:47.234
630, 1.94093, 0.294868, 347.124, -0.00195312, -0.000976562, -0.000976562, -0.0224609, 0.337891, -9.81152, 1.11.2022 19:4:47.242
631, 1.94093, 0.294868, 347.124, -0.000976562, -0.00195312, -0.000976562, -0.0947266, 0.348633, -9.83789, 1.11.2022 19:4:47.250
632, 1.94093, 0.294868, 347.124, -0.00195312, -0.000976562, -0.000976562, -0.0224609, 0.333008, -9.81641, 1.11.2022 19:4:47.258
633, 1.94093, 0.294868, 347.124, -0.00195312, -0.000976562, -0.000976562, -0.0507812, 0.328125, -9.80664, 1.11.2022 19:4:47.266
634, 1.94093, 0.294868, 347.124, -0.00195312, 0, -0.00195312, -0.101562, 0.313477, -9.8623, 1.11.2022 19:4:47.274
635, 1.94093, 0.294868, 347.124, -0.000976562, 0, -0.00195312, -0.00878906, 0.304688, -9.83105, 1.11.2022 19:4:47.282
636, 1.94015, 0.287919, 347.124, -0.000976562, -0.000976562, -0.000976562, -0.0507812, 0.347656, -9.81055, 1.11.2022 19:4:47.290
637, 1.94015, 0.287919, 347.124, -0.000976562, -0.000976562, 0, -0.0693359, 0.356445, -9.77734, 1.11.2022 19:4:47.298
638, 1.94015, 0.287919, 347.124, -0.000976562, 0, -0.000976562, -0.00878906, 0.329102, -9.73828, 1.11.2022 19:4:47.306
639, 1.94015, 0.287919, 347.124, -0.000976562, 0, -0.00195312, -0.0888672, 0.335938, -9.81055, 1.11.2022 19:4:47.314
640, 1.94015, 0.287919, 347.124, -0.000976562, 0, -0.000976562, -0.0527344, 0.328125, -9.79688, 1.11.2022 19:4:47.322
641, 1.94015, 0.287919, 347.124, -0.000976562, 0, -0.000976562, -0.0175781, 0.299805, -9.80078, 1.11.2022 19:4:47.330
642, 1.94015, 0.287919, 347.124, -0.000976562, -0.000976562, -0.000976562, -0.0751953, 0.345703, -9.83887, 1.11.2022 19:4:47.338
643, 1.94015, 0.287919, 347.124, 0, -0.000976562, -0.000976562, -0.0253906, 0.304688, -9.82422, 1.11.2022 19:4:47.346
644, 1.94015, 0.287919, 347.124, -0.000976562, 0, -0.000976562, -0.0292969, 0.318359, -9.80664, 1.11.2022 19:4:47.354
645, 1.94015, 0.287919, 347.124, -0.000976562, -0.000976562, -0.000976562, -0.0742188, 0.344727, -9.77734, 1.11.2022 19:4:47.362
646, 1.93321, 0.288703, 347.124, 0, 0, 0, -0.00292969, 0.320312, -9.77637, 1.11.2022 19:4:47.370
647, 1.93242, 0.281754, 347.124, 0, 0, 0, -0.0771484, 0.354492, -9.80957, 1.11.2022 19:4:47.378
648, 1.93242, 0.281754, 347.124, 0, 0, 0.000976562, -0.0771484, 0.328125, -9.80078, 1.11.2022 19:4:47.386
649, 1.93242, 0.281754, 347.124, 0.000976562, 0, 0.000976562, -0.0146484, 0.323242, -9.80469, 1.11.2022 19:4:47.394
650, 1.93242, 0.281754, 347.124, 0.000976562, -0.000976562, 0.000976562, -0.105469, 0.344727, -9.77441, 1.11.2022 19:4:47.402
651, 1.93242, 0.281754, 347.124, 0, -0.000976562, -0.000976562, -0.0224609, 0.331055, -9.82812, 1.11.2022 19:4:47.410
652, 1.93242, 0.281754, 347.124, 0, -0.000976562, -0.000976562, -0.0175781, 0.31543, -9.78809, 1.11.2022 19:4:47.418
653, 1.93242, 0.281754, 347.124, 0, -0.000976562, -0.000976562, -0.0888672, 0.331055, -9.81055, 1.11.2022 19:4:47.426
654, 1.93242, 0.281754, 347.124, 0, -0.000976562, -0.00195312, 0.00488281, 0.314453, -9.75781, 1.11.2022 19:4:47.434
655, 1.93242, 0.281754, 347.124, 0, 0, 0, -0.0322266, 0.321289, -9.80664, 1.11.2022 19:4:47.442
656, 1.93242, 0.281754, 347.124, 0, 0, 0, -0.0751953, 0.335938, -9.82422, 1.11.2022 19:4:47.450
657, 1.93242, 0.281754, 347.124, 0.000976562, -0.000976562, 0.000976562, -0.0126953, 0.326172, -9.81641, 1.11.2022 19:4:47.458
658, 1.93242, 0.281754, 347.124, 0, 0, 0, -0.09375, 0.368164, -9.78125, 1.11.2022 19:4:47.466
659, 1.93242, 0.281754, 347.124, 0.000976562, -0.000976562, 0.000976562, -0.0439453, 0.323242, -9.79199, 1.11.2022 19:4:47.474
660, 1.93164, 0.274805, 347.124, 0, -0.000976562, -0.000976562, -0.0224609, 0.296875, -9.78613, 1.11.2022 19:4:47.482
661, 1.93164, 0.274805, 347.124, 0, -0.000976562, -0.000976562, -0.112305, 0.356445, -9.79297, 1.11.2022 19:4:47.490
662, 1.93242, 0.281754, 347.124, -0.00195312, -0.000976562, 0, -0.0410156, 0.328125, -9.79199, 1.11.2022 19:4:47.498
663, 1.93242, 0.281754, 347.124, 0, -0.000976562, -0.000976562, -0.0390625, 0.294922, -9.80469, 1.11.2022 19:4:47.506
664, 1.92548, 0.282538, 347.124, 0.000976562, -0.000976562, -0.000976562, -0.0869141, 0.326172, -9.8252, 1.11.2022 19:4:47.514
665, 1.92548, 0.282538, 347.124, 0.000976562, -0.000976562, -0.000976562, -0.015625, 0.311523, -9.80957, 1.11.2022 19:4:47.522
666, 1.92548, 0.282538, 347.124, 0.000976562, -0.00195312, 0.000976562, -0.0722656, 0.316406, -9.80859, 1.11.2022 19:4:47.530
667, 1.92548, 0.282538, 347.124, -0.00195312, -0.000976562, 0, -0.0820312, 0.344727, -9.80078, 1.11.2022 19:4:47.538
668, 1.92548, 0.282538, 347.124, 0, 0, 0.000976562, -0.0205078, 0.324219, -9.82812, 1.11.2022 19:4:47.546
669, 1.92548, 0.282538, 347.124, 0, -0.000976562, -0.000976562, -0.0888672, 0.344727, -9.78906, 1.11.2022 19:4:47.554
670, 1.92548, 0.282538, 347.124, 0, -0.00195312, -0.000976562, -0.0390625, 0.316406, -9.7998, 1.11.2022 19:4:47.562
671, 1.91931, 0.290271, 347.124, 0.000976562, 0, 0, -0.0458984, 0.318359, -9.79492, 1.11.2022 19:4:47.570
672, 1.91931, 0.290271, 347.124, 0, -0.000976562, 0.000976562, -0.105469, 0.342773, -9.7959, 1.11.2022 19:4:47.578
673, 1.91931, 0.290271, 347.124, 0, -0.000976562, -0.000976562, -0.00390625, 0.322266, -9.83789, 1.11.2022 19:4:47.586
674, 1.91931, 0.290271, 347.124, 0, -0.000976562, -0.00195312, -0.0488281, 0.294922, -9.81641, 1.11.2022 19:4:47.594
675, 1.91931, 0.290271, 347.124, 0.000976562, 0, 0, -0.078125, 0.338867, -9.84766, 1.11.2022 19:4:47.602
676, 1.91931, 0.290271, 347.124, 0, 0, 0, -0.000976562, 0.330078, -9.79102, 1.11.2022 19:4:47.610
677, 1.91931, 0.290271, 347.124, -0.00195312, 0, -0.00195312, -0.0791016, 0.337891, -9.79395, 1.11.2022 19:4:47.618
678, 1.91931, 0.290271, 347.124, -0.000976562, 0, -0.000976562, -0.0546875, 0.336914, -9.76562, 1.11.2022 19:4:47.626
679, 1.91931, 0.290271, 347.124, -0.000976562, -0.000976562, 0, -0.0361328, 0.310547, -9.75488, 1.11.2022 19:4:47.634
680, 1.91931, 0.290271, 347.124, -0.000976562, -0.000976562, -0.000976562, -0.103516, 0.336914, -9.83398, 1.11.2022 19:4:47.642
681, 1.91237, 0.291054, 347.124, 0, 0, -0.000976562, -0.0380859, 0.317383, -9.7666, 1.11.2022 19:4:47.650
682, 1.91237, 0.291054, 347.124, -0.000976562, -0.000976562, -0.000976562, -0.0341797, 0.331055, -9.81836, 1.11.2022 19:4:47.658
683, 1.91315, 0.298003, 347.124, 0, -0.000976562, 0, -0.120117, 0.330078, -9.78613, 1.11.2022 19:4:47.666
684, 1.91315, 0.298003, 347.124, -0.000976562, -0.000976562, -0.000976562, -0.00585938, 0.323242, -9.7998, 1.11.2022 19:4:47.674
685, 1.91315, 0.298003, 347.124, -0.00195312, -0.000976562, -0.00195312, -0.0478516, 0.341797, -9.76074, 1.11.2022 19:4:47.682
686, 1.91315, 0.298003, 347.124, -0.000976562, 0, -0.000976562, -0.0888672, 0.344727, -9.77734, 1.11.2022 19:4:47.690
687, 1.91315, 0.298003, 347.124, -0.000976562, 0, -0.000976562, -0.0126953, 0.330078, -9.7998, 1.11.2022 19:4:47.698
688, 1.9201, 0.29722, 347.124, -0.00195312, 0, 0, -0.108398, 0.319336, -9.82031, 1.11.2022 19:4:47.706
689, 1.91315, 0.298003, 347.124, 0, -0.000976562, -0.000976562, -0.0605469, 0.3125, -9.83496, 1.11.2022 19:4:47.714
690, 1.91315, 0.298003, 347.124, 0, -0.000976562, 0, -0.0507812, 0.333008, -9.81055, 1.11.2022 19:4:47.722
691, 1.91394, 0.304952, 347.124, -0.000976562, 0, -0.000976562, -0.107422, 0.330078, -9.76562, 1.11.2022 19:4:47.730
692, 1.91394, 0.304952, 347.124, -0.000976562, -0.000976562, -0.00195312, -0.0292969, 0.34082, -9.80664, 1.11.2022 19:4:47.738
693, 1.91394, 0.304952, 347.124, -0.000976562, -0.000976562, -0.000976562, -0.0556641, 0.321289, -9.81348, 1.11.2022 19:4:47.746
694, 1.91394, 0.304952, 347.124, -0.000976562, -0.000976562, -0.000976562, -0.0908203, 0.344727, -9.77734, 1.11.2022 19:4:47.754
695, 1.91472, 0.311901, 347.124, -0.000976562, 0, -0.000976562, -0.00292969, 0.325195, -9.79297, 1.11.2022 19:4:47.762
696, 1.92166, 0.311118, 347.124, -0.000976562, -0.000976562, -0.000976562, -0.0859375, 0.336914, -9.77246, 1.11.2022 19:4:47.770
697, 1.92166, 0.311118, 347.124, -0.000976562, -0.000976562, -0.000976562, -0.0361328, 0.322266, -9.77148, 1.11.2022 19:4:47.778
698, 1.92166, 0.311118, 347.124, 0, -0.00195312, -0.000976562, -0.0458984, 0.308594, -9.77148, 1.11.2022 19:4:47.786
699, 1.91472, 0.311901, 347.124, -0.000976562, -0.000976562, -0.000976562, -0.103516, 0.326172, -9.80566, 1.11.2022 19:4:47.794
700, 1.91472, 0.311901, 347.124, -0.000976562, 0, -0.000976562, -0.0273438, 0.322266, -9.83789, 1.11.2022 19:4:47.802
701, 1.91472, 0.311901, 347.124, -0.00195312, -0.000976562, -0.000976562, -0.0488281, 0.326172, -9.80664, 1.11.2022 19:4:47.810
702, 1.9155, 0.31885, 347.124, -0.000976562, -0.000976562, -0.000976562, -0.103516, 0.333008, -9.80566, 1.11.2022 19:4:47.818
703, 1.9155, 0.31885, 347.124, -0.000976562, -0.000976562, -0.000976562, -0.0126953, 0.314453, -9.81445, 1.11.2022 19:4:47.826
704, 1.9155, 0.31885, 347.124, 0, -0.000976562, -0.00195312, -0.0771484, 0.323242, -9.78711, 1.11.2022 19:4:47.834
705, 1.9155, 0.31885, 347.124, 0.000976562, 0, -0.000976562, -0.0908203, 0.311523, -9.79688, 1.11.2022 19:4:47.840
706, 1.9155, 0.31885, 347.124, 0, -0.000976562, -0.000976562, -0.0146484, 0.323242, -9.79297, 1.11.2022 19:4:47.848
707, 1.9155, 0.31885, 347.124, 0, -0.000976562, -0.000976562, -0.117188, 0.341797, -9.75293, 1.11.2022 19:4:47.856
708, 1.91629, 0.325799, 347.123, -0.00195312, -0.000976562, -0.000976562, -0.0625, 0.328125, -9.81055, 1.11.2022 19:4:47.864
709, 1.91629, 0.325799, 347.123, -0.00195312, -0.000976562, -0.000976562, -0.0322266, 0.34082, -9.80859, 1.11.2022 19:4:47.872
710, 1.91629, 0.325799, 347.123, -0.00195312, -0.000976562, -0.000976562, -0.0820312, 0.365234, -9.82129, 1.11.2022 19:4:47.882
711, 1.91629, 0.325799, 347.123, -0.00195312, -0.000976562, 0.000976562, -0.0244141, 0.336914, -9.77344, 1.11.2022 19:4:47.888
712, 1.91629, 0.325799, 347.123, -0.000976562, -0.000976562, -0.000976562, -0.0605469, 0.311523, -9.80469, 1.11.2022 19:4:47.896
713, 1.91629, 0.325799, 347.123, -0.000976562, -0.000976562, 0.000976562, -0.0673828, 0.327148, -9.77051, 1.11.2022 19:4:47.904
714, 1.91629, 0.325799, 347.123, -0.000976562, -0.000976562, -0.000976562, 0.00390625, 0.303711, -9.78418, 1.11.2022 19:4:47.912
715, 1.91629, 0.325799, 347.123, -0.00195312, 0, 0, -0.0917969, 0.299805, -9.80859, 1.11.2022 19:4:47.920
716, 1.91629, 0.325799, 347.123, -0.000976562, -0.000976562, -0.000976562, -0.0722656, 0.326172, -9.80566, 1.11.2022 19:4:47.928
717, 1.91629, 0.325799, 347.123, -0.000976562, -0.000976562, -0.000976562, -0.0419922, 0.319336, -9.8252, 1.11.2022 19:4:47.936
718, 1.91629, 0.325799, 347.123, -0.000976562, 0, -0.000976562, -0.125, 0.342773, -9.79785, 1.11.2022 19:4:47.944
719, 1.91707, 0.332748, 347.123, 0, -0.000976562, -0.000976562, -0.0546875, 0.356445, -9.77734, 1.11.2022 19:4:47.952
720, 1.91707, 0.332748, 347.123, -0.000976562, 0, 0, -0.0537109, 0.317383, -9.83301, 1.11.2022 19:4:47.960
721, 1.91707, 0.332748, 347.123, -0.000976562, -0.000976562, -0.000976562, -0.0986328, 0.342773, -9.79785, 1.11.2022 19:4:47.968
722, 1.91707, 0.332748, 347.123, -0.000976562, -0.000976562, -0.000976562, 0.00195312, 0.31543, -9.79102, 1.11.2022 19:4:47.976
723, 1.91707, 0.332748, 347.123, -0.000976562, -0.000976562, -0.000976562, -0.0537109, 0.328125, -9.80859, 1.11.2022 19:4:47.984
724, 1.91707, 0.332748, 347.123, -0.000976562, 0, -0.000976562, -0.0654297, 0.369141, -9.80273, 1.11.2022 19:4:47.992
725, 1.91707, 0.332748, 347.123, -0.000976562, 0, 0.000976562, -0.0263672, 0.306641, -9.78809, 1.11.2022 19:4:48.000
726, 1.91707, 0.332748, 347.123, -0.00195312, -0.000976562, 0.000976562, -0.108398, 0.30957, -9.80859, 1.11.2022 19:4:48.008
727, 1.91707, 0.332748, 347.123, -0.00195312, -0.000976562, 0.000976562, -0.0664062, 0.333984, -9.76367, 1.11.2022 19:4:48.016
728, 1.91707, 0.332748, 347.123, -0.000976562, -0.000976562, 0.000976562, -0.0126953, 0.324219, -9.82324, 1.11.2022 19:4:48.024
729, 1.91707, 0.332748, 347.123, 0, 0, 0.000976562, -0.0869141, 0.324219, -9.8125, 1.11.2022 19:4:48.032
730, 1.91707, 0.332748, 347.123, -0.000976562, -0.000976562, -0.000976562, -0.0322266, 0.329102, -9.81836, 1.11.2022 19:4:48.040
731, 1.91707, 0.332748, 347.123, -0.00195312, -0.000976562, -0.000976562, -0.0751953, 0.320312, -9.83887, 1.11.2022 19:4:48.048
732, 1.91707, 0.332748, 347.123, -0.000976562, -0.000976562, -0.000976562, -0.09375, 0.339844, -9.79785, 1.11.2022 19:4:48.056
733, 1.91707, 0.332748, 347.123, 0, -0.000976562, -0.000976562, -0.0195312, 0.321289, -9.7998, 1.11.2022 19:4:48.064
734, 1.91707, 0.332748, 347.123, 0, 0, -0.000976562, -0.0888672, 0.316406, -9.79883, 1.11.2022 19:4:48.072
735, 1.91707, 0.332748, 347.123, -0.000976562, 0, -0.000976562, -0.0537109, 0.335938, -9.81543, 1.11.2022 19:4:48.080
736, 1.91707, 0.332748, 347.123, -0.000976562, 0, 0, -0.0175781, 0.335938, -9.80859, 1.11.2022 19:4:48.088
737, 1.91707, 0.332748, 347.123, 0, -0.000976562, -0.000976562, -0.113281, 0.333984, -9.8125, 1.11.2022 19:4:48.096
738, 1.91707, 0.332748, 347.123, -0.000976562, -0.000976562, -0.000976562, -0.0488281, 0.334961, -9.79883, 1.11.2022 19:4:48.104
739, 1.91707, 0.332748, 347.123, -0.00195312, -0.000976562, -0.000976562, -0.0458984, 0.310547, -9.7832, 1.11.2022 19:4:48.112
740, 1.91785, 0.339697, 347.123, -0.000976562, -0.000976562, -0.000976562, -0.0986328, 0.345703, -9.81445, 1.11.2022 19:4:48.120
741, 1.91785, 0.339697, 347.123, -0.000976562, -0.000976562, 0.000976562, -0.0390625, 0.326172, -9.8252, 1.11.2022 19:4:48.128
742, 1.91785, 0.339697, 347.123, 0.000976562, 0, 0, -0.0458984, 0.328125, -9.80859, 1.11.2022 19:4:48.136
743, 1.91785, 0.339697, 347.123, 0.000976562, 0, -0.000976562, -0.0771484, 0.333008, -9.80859, 1.11.2022 19:4:48.144
744, 1.91785, 0.339697, 347.123, -0.000976562, -0.000976562, -0.000976562, -0.00585938, 0.313477, -9.7959, 1.11.2022 19:4:48.152
745, 1.91785, 0.339697, 347.123, 0.000976562, -0.00195312, -0.000976562, -0.0820312, 0.342773, -9.81055, 1.11.2022 19:4:48.160
746, 1.91785, 0.339697, 347.123, -0.000976562, -0.000976562, -0.00195312, -0.0576172, 0.325195, -9.79199, 1.11.2022 19:4:48.168
747, 1.91785, 0.339697, 347.123, -0.000976562, -0.000976562, -0.000976562, -0.0195312, 0.31543, -9.7832, 1.11.2022 19:4:48.176
748, 1.91785, 0.339697, 347.123, -0.000976562, 0, -0.000976562, -0.0839844, 0.337891, -9.78711, 1.11.2022 19:4:48.184
749, 1.91707, 0.332748, 347.123, 0.000976562, 0.000976562, -0.000976562, -0.00488281, 0.325195, -9.77148, 1.11.2022 19:4:48.192
750, 1.91707, 0.332748, 347.123, 0, -0.000976562, 0, -0.0302734, 0.341797, -9.83984, 1.11.2022 19:4:48.200
751, 1.91707, 0.332748, 347.123, -0.000976562, -0.000976562, -0.000976562, -0.0625, 0.334961, -9.77734, 1.11.2022 19:4:48.208
752, 1.91629, 0.325799, 347.123, -0.000976562, 0, -0.000976562, 0.00195312, 0.313477, -9.77734, 1.11.2022 19:4:48.216
753, 1.91629, 0.325799, 347.123, -0.000976562, -0.000976562, -0.00195312, -0.0556641, 0.333008, -9.80566, 1.11.2022 19:4:48.224
754, 1.91629, 0.325799, 347.123, -0.00195312, -0.000976562, -0.00195312, -0.0888672, 0.316406, -9.81348, 1.11.2022 19:4:48.232
755, 1.91629, 0.325799, 347.123, -0.00195312, 0, -0.000976562, -0.0244141, 0.333008, -9.80176, 1.11.2022 19:4:48.240
756, 1.9155, 0.31885, 347.124, -0.000976562, -0.000976562, -0.00195312, -0.0839844, 0.356445, -9.78613, 1.11.2022 19:4:48.248
757, 1.92245, 0.318066, 347.124, -0.00195312, -0.000976562, -0.00195312, -0.0371094, 0.350586, -9.83398, 1.11.2022 19:4:48.256
758, 1.92245, 0.318066, 347.124, -0.000976562, 0, -0.000976562, -0.0380859, 0.325195, -9.77832, 1.11.2022 19:4:48.264
759, 1.92245, 0.318066, 347.124, 0.000976562, -0.000976562, -0.000976562, -0.09375, 0.331055, -9.80371, 1.11.2022 19:4:48.272
760, 1.92247, 0.318181, 347.13, -0.000976562, -0.000976562, -0.00195312, -0.00488281, 0.332031, -9.77637, 1.11.2022 19:4:48.280
761, 1.92247, 0.318181, 347.13, 0.000976562, 0, -0.000976562, -0.0361328, 0.325195, -9.79199, 1.11.2022 19:4:48.288
762, 1.92168, 0.311232, 347.13, 0.000976562, -0.00195312, -0.000976562, -0.0742188, 0.349609, -9.78906, 1.11.2022 19:4:48.296
763, 1.92168, 0.311232, 347.13, -0.000976562, -0.000976562, -0.000976562, 0.00683594, 0.330078, -9.78125, 1.11.2022 19:4:48.304
764, 1.92168, 0.311232, 347.13, -0.000976562, -0.000976562, -0.000976562, -0.0703125, 0.334961, -9.79883, 1.11.2022 19:4:48.312
765, 1.92168, 0.311232, 347.13, 0.000976562, -0.000976562, -0.000976562, -0.0791016, 0.347656, -9.79102, 1.11.2022 19:4:48.320
766, 1.92863, 0.310449, 347.131, -0.000976562, 0, -0.000976562, -0.0175781, 0.341797, -9.78809, 1.11.2022 19:4:48.328
767, 1.92863, 0.310449, 347.131, -0.000976562, -0.000976562, -0.00195312, -0.0859375, 0.34668, -9.7793, 1.11.2022 19:4:48.336
768, 1.92785, 0.3035, 347.131, -0.000976562, 0, -0.000976562, -0.03125, 0.303711, -9.78125, 1.11.2022 19:4:48.344
769, 1.92785, 0.3035, 347.131, -0.000976562, -0.000976562, -0.000976562, -0.0439453, 0.310547, -9.83789, 1.11.2022 19:4:48.352
770, 1.92785, 0.3035, 347.131, 0.000976562, 0, -0.000976562, -0.0839844, 0.339844, -9.77441, 1.11.2022 19:4:48.360
771, 1.92785, 0.3035, 347.131, 0.000976562, -0.000976562, -0.000976562, -0.0214844, 0.310547, -9.78125, 1.11.2022 19:4:48.368
772, 1.92785, 0.3035, 347.131, -0.000976562, -0.000976562, -0.000976562, -0.0742188, 0.330078, -9.79395, 1.11.2022 19:4:48.376
773, 1.92785, 0.3035, 347.131, -0.000976562, 0, -0.000976562, -0.0839844, 0.334961, -9.7959, 1.11.2022 19:4:48.384
774, 1.92785, 0.3035, 347.131, -0.000976562, 0, 0, -0.0322266, 0.304688, -9.8125, 1.11.2022 19:4:48.392
775, 1.92785, 0.3035, 347.131, -0.000976562, -0.000976562, 0, -0.0771484, 0.361328, -9.7959, 1.11.2022 19:4:48.400
776, 1.92785, 0.3035, 347.131, -0.00195312, -0.000976562, 0, -0.0722656, 0.34082, -9.80566, 1.11.2022 19:4:48.408
777, 1.92785, 0.3035, 347.131, -0.000976562, -0.000976562, 0.000976562, -0.0341797, 0.344727, -9.78516, 1.11.2022 19:4:48.416
778, 1.92785, 0.3035, 347.131, 0.000976562, -0.000976562, 0, -0.105469, 0.339844, -9.77637, 1.11.2022 19:4:48.424
779, 1.92785, 0.3035, 347.131, -0.000976562, -0.000976562, 0.000976562, 0, 0.34375, -9.77148, 1.11.2022 19:4:48.432
780, 1.93479, 0.302716, 347.131, -0.000976562, 0, 0, -0.0585938, 0.321289, -9.81152, 1.11.2022 19:4:48.440
781, 1.93479, 0.302716, 347.131, -0.000976562, -0.000976562, 0.000976562, -0.0556641, 0.333008, -9.80176, 1.11.2022 19:4:48.448
782, 1.93479, 0.302716, 347.131, 0, -0.000976562, 0, 0.0107422, 0.316406, -9.81738, 1.11.2022 19:4:48.456
783, 1.93479, 0.302716, 347.131, -0.000976562, -0.000976562, -0.000976562, -0.0859375, 0.336914, -9.77734, 1.11.2022 19:4:48.464
784, 1.93479, 0.302716, 347.131, 0, -0.000976562, 0, -0.0576172, 0.359375, -9.81055, 1.11.2022 19:4:48.472
785, 1.93479, 0.302716, 347.131, -0.000976562, -0.000976562, 0, -0.0292969, 0.320312, -9.78613, 1.11.2022 19:4:48.480
786, 1.93479, 0.302716, 347.131, 0, -0.000976562, 0, -0.0761719, 0.351562, -9.7793, 1.11.2022 19:4:48.488
787, 1.93479, 0.302716, 347.131, -0.000976562, 0, 0, -0.0263672, 0.333984, -9.75977, 1.11.2022 19:4:48.496
788, 1.93479, 0.302716, 347.131, -0.000976562, -0.000976562, 0, -0.0791016, 0.306641, -9.78809, 1.11.2022 19:4:48.504
789, 1.93479, 0.302716, 347.131, -0.000976562, 0, 0, -0.0732422, 0.353516, -9.83594, 1.11.2022 19:4:48.512
790, 1.94174, 0.301933, 347.131, -0.000976562, -0.000976562, 0, 0.0146484, 0.327148, -9.84961, 1.11.2022 19:4:48.520
791, 1.94174, 0.301933, 347.131, 0, -0.00195312, 0, -0.0576172, 0.308594, -9.78809, 1.11.2022 19:4:48.528
792, 1.93477, 0.302601, 347.124, 0, -0.00195312, 0.000976562, -0.0595703, 0.339844, -9.77734, 1.11.2022 19:4:48.536
793, 1.93477, 0.302601, 347.124, -0.000976562, -0.000976562, 0.000976562, -0.0078125, 0.326172, -9.80273, 1.11.2022 19:4:48.544
794, 1.94172, 0.301817, 347.124, -0.00195312, 0, 0.000976562, -0.105469, 0.333008, -9.78125, 1.11.2022 19:4:48.552
795, 1.94172, 0.301817, 347.124, 0, -0.000976562, 0, -0.0654297, 0.342773, -9.79883, 1.11.2022 19:4:48.560
796, 1.94172, 0.301817, 347.124, -0.000976562, -0.000976562, 0, -0.0205078, 0.326172, -9.81641, 1.11.2022 19:4:48.568
797, 1.94172, 0.301817, 347.124, -0.000976562, 0, -0.000976562, -0.0820312, 0.314453, -9.81348, 1.11.2022 19:4:48.576
798, 1.94093, 0.294868, 347.124, -0.000976562, 0, -0.000976562, 0.00195312, 0.318359, -9.80762, 1.11.2022 19:4:48.584
799, 1.93399, 0.295652, 347.124, 0, 0, 0, -0.0419922, 0.326172, -9.81641, 1.11.2022 19:4:48.592
800, 1.93399, 0.295652, 347.124, -0.00195312, -0.000976562, 0, -0.0742188, 0.351562, -9.77441, 1.11.2022 19:4:48.600
801, 1.94093, 0.294868, 347.124, -0.000976562, 0, 0, -0.0126953, 0.325195, -9.79492, 1.11.2022 19:4:48.608
802, 1.93399, 0.295652, 347.124, 0, 0, 0, -0.0820312, 0.3125, -9.81836, 1.11.2022 19:4:48.616
803, 1.93399, 0.295652, 347.124, -0.000976562, 0, 0.000976562, -0.0478516, 0.339844, -9.77539, 1.11.2022 19:4:48.624
804, 1.93399, 0.295652, 347.124, -0.000976562, -0.000976562, 0, -0.03125, 0.311523, -9.78613, 1.11.2022 19:4:48.632
805, 1.93399, 0.295652, 347.124, -0.000976562, -0.000976562, 0, -0.112305, 0.336914, -9.77637, 1.11.2022 19:4:48.640
806, 1.93399, 0.295652, 347.124, -0.000976562, -0.000976562, -0.000976562, -0.0361328, 0.305664, -9.7793, 1.11.2022 19:4:48.648
807, 1.93399, 0.295652, 347.124, -0.000976562, -0.000976562, -0.000976562, -0.0292969, 0.319336, -9.82324, 1.11.2022 19:4:48.656
808, 1.93399, 0.295652, 347.124, 0, -0.000976562, -0.000976562, -0.0751953, 0.338867, -9.82227, 1.11.2022 19:4:48.664
809, 1.93321, 0.288703, 347.124, -0.000976562, 0, -0.00195312, 0.0185547, 0.294922, -9.80176, 1.11.2022 19:4:48.672
810, 1.92626, 0.289487, 347.124, -0.000976562, 0, -0.000976562, -0.0585938, 0.308594, -9.84668, 1.11.2022 19:4:48.680
811, 1.92626, 0.289487, 347.124, -0.000976562, -0.000976562, -0.00195312, -0.0722656, 0.349609, -9.79102, 1.11.2022 19:4:48.688
812, 1.92626, 0.289487, 347.124, -0.000976562, -0.000976562, -0.000976562, -0.00292969, 0.332031, -9.77148, 1.11.2022 19:4:48.696
813, 1.92626, 0.289487, 347.124, 0, -0.000976562, -0.000976562, -0.103516, 0.331055, -9.79883, 1.11.2022 19:4:48.704
814, 1.92626, 0.289487, 347.124, -0.000976562, -0.000976562, -0.000976562, -0.0488281, 0.3125, -9.84961, 1.11.2022 19:4:48.712
815, 1.92626, 0.289487, 347.124, -0.000976562, -0.000976562, -0.000976562, -0.0341797, 0.292969, -9.81445, 1.11.2022 19:4:48.720
816, 1.91931, 0.290271, 347.124, 0, -0.000976562, -0.000976562, -0.0742188, 0.327148, -9.77734, 1.11.2022 19:4:48.728
817, 1.91931, 0.290271, 347.124, -0.000976562, -0.000976562, -0.000976562, -0.0078125, 0.318359, -9.7959, 1.11.2022 19:4:48.736
818, 1.91931, 0.290271, 347.124, -0.000976562, -0.000976562, -0.000976562, -0.0292969, 0.323242, -9.80664, 1.11.2022 19:4:48.744
819, 1.91853, 0.283322, 347.124, -0.000976562, -0.000976562, -0.00195312, -0.0751953, 0.331055, -9.82227, 1.11.2022 19:4:48.752
820, 1.91853, 0.283322, 347.124, -0.000976562, -0.000976562, -0.000976562, -0.0244141, 0.311523, -9.81152, 1.11.2022 19:4:48.760
821, 1.91158, 0.284105, 347.124, -0.000976562, -0.000976562, -0.000976562, -0.0849609, 0.34082, -9.8291, 1.11.2022 19:4:48.768
822, 1.91161, 0.284219, 347.131, -0.000976562, -0.000976562, -0.000976562, -0.0644531, 0.313477, -9.7832, 1.11.2022 19:4:48.776
823, 1.91161, 0.284219, 347.131, 0, -0.000976562, -0.000976562, -0.00585938, 0.317383, -9.8291, 1.11.2022 19:4:48.784
824, 1.91161, 0.284219, 347.131, -0.00195312, 0, -0.000976562, -0.0908203, 0.323242, -9.77734, 1.11.2022 19:4:48.790
825, 1.91158, 0.284105, 347.124, -0.000976562, 0, 0, -0.03125, 0.310547, -9.7666, 1.11.2022 19:4:48.798
826, 1.91158, 0.284105, 347.124, -0.000976562, 0, -0.000976562, -0.0273438, 0.299805, -9.80469, 1.11.2022 19:4:48.806
827, 1.90464, 0.284889, 347.124, -0.000976562, -0.00195312, -0.000976562, -0.103516, 0.328125, -9.78906, 1.11.2022 19:4:48.814
828, 1.90466, 0.285003, 347.131, -0.000976562, -0.00195312, -0.00195312, -0.00390625, 0.336914, -9.84961, 1.11.2022 19:4:48.822
829, 1.90466, 0.285003, 347.131, -0.000976562, -0.000976562, -0.00195312, -0.0576172, 0.30957, -9.7998, 1.11.2022 19:4:48.830
830, 1.90466, 0.285003, 347.131, 0, -0.000976562, -0.000976562, -0.0556641, 0.351562, -9.79395, 1.11.2022 19:4:48.838
831, 1.90466, 0.285003, 347.131, -0.000976562, -0.000976562, -0.000976562, -0.015625, 0.314453, -9.83301, 1.11.2022 19:4:48.846
832, 1.90466, 0.285003, 347.131, 0, 0, -0.000976562, -0.09375, 0.328125, -9.80078, 1.11.2022 19:4:48.854
833, 1.89771, 0.285786, 347.131, -0.000976562, 0, -0.00195312, -0.0673828, 0.342773, -9.80762, 1.11.2022 19:4:48.862
834, 1.89771, 0.285786, 347.131, -0.000976562, -0.000976562, -0.000976562, 0.000976562, 0.310547, -9.8623, 1.11.2022 19:4:48.870
835, 1.89771, 0.285786, 347.131, -0.000976562, 0, -0.000976562, -0.108398, 0.351562, -9.84766, 1.11.2022 19:4:48.878
836, 1.89771, 0.285786, 347.131, -0.00195312, -0.000976562, -0.00195312, -0.0322266, 0.304688, -9.80957, 1.11.2022 19:4:48.886
837, 1.89771, 0.285786, 347.131, -0.000976562, -0.000976562, -0.000976562, -0.0556641, 0.328125, -9.81055, 1.11.2022 19:4:48.894
838, 1.89771, 0.285786, 347.131, -0.000976562, -0.000976562, 0, -0.0791016, 0.34668, -9.77734, 1.11.2022 19:4:48.902
839, 1.89771, 0.285786, 347.131, -0.00195312, -0.000976562, 0, 0.00195312, 0.313477, -9.80273, 1.11.2022 19:4:48.910
840, 1.90466, 0.285003, 347.131, -0.000976562, -0.00195312, -0.000976562, -0.0527344, 0.34668, -9.78906, 1.11.2022 19:4:48.918
841, 1.90466, 0.285003, 347.131, 0, -0.000976562, 0, -0.0771484, 0.338867, -9.8291, 1.11.2022 19:4:48.926
842, 1.90466, 0.285003, 347.131, 0, 0, 0, -0.0322266, 0.30957, -9.82129, 1.11.2022 19:4:48.934
843, 1.89771, 0.285786, 347.131, -0.000976562, -0.000976562, -0.000976562, -0.131836, 0.323242, -9.7793, 1.11.2022 19:4:48.942
844, 1.90544, 0.291952, 347.131, -0.000976562, -0.000976562, 0, -0.0673828, 0.344727, -9.7793, 1.11.2022 19:4:48.950
845, 1.90544, 0.291952, 347.131, -0.000976562, -0.000976562, 0, -0.0458984, 0.342773, -9.79395, 1.11.2022 19:4:48.958
846, 1.90544, 0.291952, 347.131, -0.000976562, 0, 0, -0.110352, 0.366211, -9.77832, 1.11.2022 19:4:48.966
847, 1.90623, 0.298901, 347.131, -0.000976562, 0, 0.000976562, -0.0458984, 0.305664, -9.77832, 1.11.2022 19:4:48.974
848, 1.90623, 0.298901, 347.131, -0.000976562, -0.000976562, 0, -0.0625, 0.307617, -9.75684, 1.11.2022 19:4:48.982
849, 1.90623, 0.298901, 347.131, -0.000976562, 0, 0, -0.0625, 0.328125, -9.80859, 1.11.2022 19:4:48.990
850, 1.90623, 0.298901, 347.131, -0.000976562, -0.000976562, 0, -0.0078125, 0.318359, -9.7959, 1.11.2022 19:4:48.998
851, 1.90701, 0.30585, 347.131, -0.000976562, -0.000976562, 0, -0.0957031, 0.337891, -9.79102, 1.11.2022 19:4:49.006
852, 1.90701, 0.30585, 347.131, -0.000976562, -0.000976562, 0, -0.0625, 0.330078, -9.78027, 1.11.2022 19:4:49.014
853, 1.90701, 0.30585, 347.131, -0.000976562, -0.000976562, 0.000976562, -0.0361328, 0.301758, -9.7959, 1.11.2022 19:4:49.022
854, 1.90701, 0.30585, 347.131, -0.000976562, -0.000976562, 0.000976562, -0.0917969, 0.347656, -9.8125, 1.11.2022 19:4:49.030
855, 1.90701, 0.30585, 347.131, -0.000976562, 0, 0, -0.0195312, 0.318359, -9.79297, 1.11.2022 19:4:49.038
856, 1.90779, 0.312799, 347.13, -0.00195312, -0.000976562, 0, -0.0654297, 0.301758, -9.7998, 1.11.2022 19:4:49.046
857, 1.90779, 0.312799, 347.13, -0.000976562, -0.000976562, 0, -0.101562, 0.335938, -9.82227, 1.11.2022 19:4:49.054
858, 1.90779, 0.312799, 347.13, -0.000976562, -0.00195312, 0, -0.0322266, 0.321289, -9.82129, 1.11.2022 19:4:49.062
859, 1.90779, 0.312799, 347.13, -0.000976562, -0.000976562, 0, -0.0722656, 0.314453, -9.80859, 1.11.2022 19:4:49.070
860, 1.90779, 0.312799, 347.13, -0.000976562, 0, 0, -0.0537109, 0.337891, -9.80566, 1.11.2022 19:4:49.078
861, 1.90779, 0.312799, 347.13, -0.000976562, 0, 0, -0.0292969, 0.314453, -9.82129, 1.11.2022 19:4:49.086
862, 1.90858, 0.319748, 347.13, -0.000976562, 0, 0, -0.0820312, 0.348633, -9.83789, 1.11.2022 19:4:49.094
863, 1.90858, 0.319748, 347.13, -0.000976562, -0.000976562, 0, -0.0634766, 0.302734, -9.82324, 1.11.2022 19:4:49.102
864, 1.90858, 0.319748, 347.13, -0.000976562, -0.000976562, 0, -0.015625, 0.327148, -9.83301, 1.11.2022 19:4:49.110
865, 1.90856, 0.319634, 347.124, -0.000976562, -0.000976562, 0, -0.125, 0.335938, -9.81934, 1.11.2022 19:4:49.118
866, 1.90856, 0.319634, 347.124, -0.000976562, 0, 0, -0.0244141, 0.321289, -9.80176, 1.11.2022 19:4:49.126
867, 1.90856, 0.319634, 347.124, -0.000976562, -0.000976562, 0, -0.0371094, 0.304688, -9.80762, 1.11.2022 19:4:49.134
868, 1.90856, 0.319634, 347.124, -0.000976562, -0.000976562, -0.000976562, -0.0957031, 0.344727, -9.7959, 1.11.2022 19:4:49.142
869, 1.90858, 0.319748, 347.13, -0.000976562, 0, -0.000976562, -0.0146484, 0.336914, -9.78027, 1.11.2022 19:4:49.150
870, 1.90858, 0.319748, 347.13, -0.000976562, -0.000976562, 0, -0.0546875, 0.348633, -9.74902, 1.11.2022 19:4:49.158
871, 1.90858, 0.319748, 347.13, -0.000976562, -0.000976562, 0, -0.0341797, 0.330078, -9.78027, 1.11.2022 19:4:49.166
872, 1.90858, 0.319748, 347.13, -0.000976562, -0.000976562, 0, -0.0244141, 0.313477, -9.78809, 1.11.2022 19:4:49.174
873, 1.90858, 0.319748, 347.13, 0, 0, 0, -0.115234, 0.356445, -9.78125, 1.11.2022 19:4:49.182
874, 1.90858, 0.319748, 347.13, 0, 0, 0, -0.0292969, 0.325195, -9.79297, 1.11.2022 19:4:49.190
875, 1.90858, 0.319748, 347.13, -0.000976562, 0, -0.00195312, -0.0078125, 0.317383, -9.77441, 1.11.2022 19:4:49.198
876, 1.90858, 0.319748, 347.13, 0.000976562, -0.000976562, 0, -0.112305, 0.354492, -9.7998, 1.11.2022 19:4:49.206
877, 1.90858, 0.319748, 347.13, 0.000976562, -0.000976562, 0, -0.0224609, 0.326172, -9.81152, 1.11.2022 19:4:49.214
878, 1.90858, 0.319748, 347.13, 0.000976562, 0, 0, -0.0771484, 0.361328, -9.79297, 1.11.2022 19:4:49.222
879, 1.91552, 0.318964, 347.13, 0, -0.000976562, 0, -0.0888672, 0.374023, -9.81152, 1.11.2022 19:4:49.230
880, 1.91552, 0.318964, 347.13, -0.00195312, -0.000976562, 0, -0.0224609, 0.318359, -9.79492, 1.11.2022 19:4:49.238
881, 1.91552, 0.318964, 347.13, 0, -0.000976562, 0, -0.0888672, 0.323242, -9.80078, 1.11.2022 19:4:49.246
882, 1.91552, 0.318964, 347.13, 0, -0.000976562, 0, -0.0537109, 0.319336, -9.80664, 1.11.2022 19:4:49.254
883, 1.91552, 0.318964, 347.13, 0, 0, 0, -0.0292969, 0.302734, -9.82129, 1.11.2022 19:4:49.262
884, 1.92247, 0.318181, 347.13, 0, 0, 0, -0.112305, 0.359375, -9.80176, 1.11.2022 19:4:49.270
885, 1.92247, 0.318181, 347.13, 0, -0.000976562, 0, -0.0175781, 0.319336, -9.82617, 1.11.2022 19:4:49.278
886, 1.92247, 0.318181, 347.13, -0.000976562, -0.000976562, 0, -0.0478516, 0.327148, -9.75879, 1.11.2022 19:4:49.286
887, 1.92247, 0.318181, 347.13, 0, -0.000976562, 0, -0.0908203, 0.333008, -9.7959, 1.11.2022 19:4:49.294
888, 1.92247, 0.318181, 347.13, -0.000976562, -0.00195312, -0.000976562, -0.0214844, 0.31543, -9.7793, 1.11.2022 19:4:49.302
889, 1.92325, 0.32513, 347.13, 0, -0.000976562, 0, -0.0722656, 0.337891, -9.8125, 1.11.2022 19:4:49.310
890, 1.92325, 0.32513, 347.13, -0.000976562, -0.00195312, -0.000976562, -0.0341797, 0.344727, -9.80176, 1.11.2022 19:4:49.318
891, 1.92247, 0.318181, 347.13, -0.00195312, -0.000976562, 0, -0.0078125, 0.318359, -9.78809, 1.11.2022 19:4:49.326
892, 1.92247, 0.318181, 347.13, -0.000976562, -0.00195312, -0.000976562, -0.0732422, 0.322266, -9.83203, 1.11.2022 19:4:49.334
893, 1.92247, 0.318181, 347.13, 0, -0.000976562, 0.000976562, -0.0527344, 0.342773, -9.79395, 1.11.2022 19:4:49.342
894, 1.92247, 0.318181, 347.13, 0, -0.000976562, 0, -0.0341797, 0.319336, -9.80957, 1.11.2022 19:4:49.350
895, 1.92245, 0.318066, 347.124, 0, -0.00195312, 0.000976562, -0.118164, 0.350586, -9.82324, 1.11.2022 19:4:49.358
896, 1.92939, 0.317283, 347.124, -0.000976562, -0.000976562, 0, -0.0126953, 0.322266, -9.77441, 1.11.2022 19:4:49.366
897, 1.92939, 0.317283, 347.124, -0.000976562, -0.00195312, -0.000976562, -0.0585938, 0.3125, -9.83984, 1.11.2022 19:4:49.374
898, 1.92939, 0.317283, 347.124, 0, 0, 0, -0.0625, 0.351562, -9.77051, 1.11.2022 19:4:49.382
899, 1.92939, 0.317283, 347.124, 0, -0.000976562, 0, -0.0175781, 0.321289, -9.82324, 1.11.2022 19:4:49.390
900, 1.92939, 0.317283, 347.124, -0.000976562, 0, -0.00195312, -0.0869141, 0.323242, -9.80078, 1.11.2022 19:4:49.398
901, 1.92941, 0.317398, 347.13, 0, 0, 0, -0.0439453, 0.34082, -9.81055, 1.11.2022 19:4:49.406
902, 1.92939, 0.317283, 347.124, -0.000976562, 0, 0, -0.0341797, 0.329102, -9.82324, 1.11.2022 19:4:49.414
903, 1.92941, 0.317398, 347.13, -0.000976562, -0.000976562, -0.00195312, -0.0966797, 0.331055, -9.81934, 1.11.2022 19:4:49.422
904, 1.92941, 0.317398, 347.13, -0.000976562, -0.000976562, -0.00195312, -0.0478516, 0.318359, -9.78027, 1.11.2022 19:4:49.430
905, 1.92941, 0.317398, 347.13, -0.000976562, -0.000976562, -0.00195312, -0.0585938, 0.299805, -9.81836, 1.11.2022 19:4:49.438
906, 1.92941, 0.317398, 347.13, -0.000976562, 0, 0, -0.112305, 0.366211, -9.77832, 1.11.2022 19:4:49.446
907, 1.92941, 0.317398, 347.13, -0.000976562, 0, 0, -0.0341797, 0.316406, -9.81641, 1.11.2022 19:4:49.454
908, 1.92941, 0.317398, 347.13, 0.000976562, -0.000976562, -0.000976562, -0.0917969, 0.337891, -9.81055, 1.11.2022 19:4:49.462
909, 1.92941, 0.317398, 347.13, -0.000976562, 0, 0, -0.0742188, 0.361328, -9.79102, 1.11.2022 19:4:49.470
910, 1.92941, 0.317398, 347.13, -0.000976562, -0.000976562, -0.000976562, -0.0224609, 0.294922, -9.81738, 1.11.2022 19:4:49.478
911, 1.92941, 0.317398, 347.13, -0.000976562, 0, 0, -0.0820312, 0.337891, -9.78906, 1.11.2022 19:4:49.486
912, 1.9302, 0.324347, 347.13, -0.00195312, -0.000976562, 0, -0.0673828, 0.328125, -9.78027, 1.11.2022 19:4:49.494
913, 1.9302, 0.324347, 347.13, -0.000976562, -0.000976562, -0.000976562, -0.0458984, 0.308594, -9.78125, 1.11.2022 19:4:49.502
914, 1.9302, 0.324347, 347.13, -0.000976562, -0.000976562, -0.00195312, -0.103516, 0.335938, -9.8125, 1.11.2022 19:4:49.510
915, 1.9302, 0.324347, 347.13, -0.00195312, -0.000976562, 0, -0.000976562, 0.321289, -9.82617, 1.11.2022 19:4:49.518
916, 1.9302, 0.324347, 347.13, -0.00195312, -0.000976562, 0, -0.0605469, 0.321289, -9.82324, 1.11.2022 19:4:49.526
917, 1.92325, 0.32513, 347.13, -0.00195312, -0.000976562, -0.00195312, -0.0888672, 0.321289, -9.81348, 1.11.2022 19:4:49.534
918, 1.92325, 0.32513, 347.13, -0.00195312, -0.000976562, 0, 0, 0.310547, -9.78418, 1.11.2022 19:4:49.542
919, 1.92325, 0.32513, 347.13, -0.000976562, -0.000976562, -0.000976562, -0.09375, 0.332031, -9.7793, 1.11.2022 19:4:49.550
920, 1.92325, 0.32513, 347.13, -0.000976562, 0, 0, -0.0605469, 0.344727, -9.78711, 1.11.2022 19:4:49.558
921, 1.92325, 0.32513, 347.13, -0.000976562, -0.000976562, -0.000976562, 0.0117188, 0.332031, -9.78125, 1.11.2022 19:4:49.566
922, 1.92325, 0.32513, 347.13, -0.000976562, 0, 0, -0.0917969, 0.337891, -9.80078, 1.11.2022 19:4:49.574
923, 1.92325, 0.32513, 347.13, 0.000976562, 0, 0, -0.00976562, 0.328125, -9.78809, 1.11.2022 19:4:49.582
924, 1.92325, 0.32513, 347.13, -0.00195312, -0.00195312, -0.000976562, -0.0322266, 0.324219, -9.8252, 1.11.2022 19:4:49.590
925, 1.92325, 0.32513, 347.13, -0.000976562, -0.00195312, -0.000976562, -0.0888672, 0.339844, -9.78418, 1.11.2022 19:4:49.598
926, 1.92325, 0.32513, 347.13, -0.000976562, -0.000976562, -0.000976562, -0.0390625, 0.326172, -9.80469, 1.11.2022 19:4:49.606
927, 1.92325, 0.32513, 347.13, 0.000976562, -0.00195312, -0.000976562, -0.0527344, 0.325195, -9.78027, 1.11.2022 19:4:49.614
928, 1.92325, 0.32513, 347.13, -0.000976562, -0.000976562, -0.000976562, -0.0576172, 0.337891, -9.79395, 1.11.2022 19:4:49.622
929, 1.92247, 0.318181, 347.13, -0.000976562, 0, 0.000976562, 0.0185547, 0.298828, -9.78906, 1.11.2022 19:4:49.630
930, 1.92247, 0.318181, 347.13, -0.000976562, -0.00195312, -0.000976562, -0.100586, 0.336914, -9.77441, 1.11.2022 19:4:49.638
931, 1.92247, 0.318181, 347.13, -0.000976562, -0.000976562, -0.000976562, -0.0703125, 0.333008, -9.80371, 1.11.2022 19:4:49.646
932, 1.92247, 0.318181, 347.13, -0.000976562, -0.000976562, -0.000976562, -0.0341797, 0.331055, -9.81348, 1.11.2022 19:4:49.654
933, 1.92247, 0.318181, 347.13, -0.00195312, -0.000976562, 0, -0.0791016, 0.352539, -9.80762, 1.11.2022 19:4:49.662
934, 1.92247, 0.318181, 347.13, 0, 0, 0, -0.0361328, 0.330078, -9.78516, 1.11.2022 19:4:49.670
935, 1.92247, 0.318181, 347.13, 0, -0.000976562, 0.000976562, -0.0917969, 0.316406, -9.81543, 1.11.2022 19:4:49.678
936, 1.92247, 0.318181, 347.13, 0, -0.000976562, 0.000976562, -0.0791016, 0.333008, -9.7959, 1.11.2022 19:4:49.686
937, 1.92247, 0.318181, 347.13, 0, -0.000976562, 0, -0.0322266, 0.302734, -9.81445, 1.11.2022 19:4:49.694
938, 1.92247, 0.318181, 347.13, 0.000976562, 0, 0, -0.0771484, 0.319336, -9.80664, 1.11.2022 19:4:49.702
939, 1.92247, 0.318181, 347.13, 0.000976562, -0.000976562, 0, -0.0507812, 0.329102, -9.82324, 1.11.2022 19:4:49.710
940, 1.92247, 0.318181, 347.13, 0, -0.00195312, 0.000976562, -0.0205078, 0.314453, -9.81934, 1.11.2022 19:4:49.718
941, 1.92247, 0.318181, 347.13, -0.000976562, -0.000976562, 0, -0.108398, 0.333984, -9.83398, 1.11.2022 19:4:49.726
942, 1.92247, 0.318181, 347.13, 0, -0.00195312, 0, -0.0390625, 0.334961, -9.79199, 1.11.2022 19:4:49.732
943, 1.92245, 0.318066, 347.124, -0.000976562, -0.000976562, 0, -0.03125, 0.304688, -9.79785, 1.11.2022 19:4:49.740
944, 1.92247, 0.318181, 347.13, 0, -0.000976562, -0.000976562, -0.0878906, 0.360352, -9.75488, 1.11.2022 19:4:49.748
945, 1.91552, 0.318964, 347.13, 0.000976562, -0.000976562, -0.000976562, -0.0078125, 0.336914, -9.77637, 1.11.2022 19:4:49.756
946, 1.91552, 0.318964, 347.13, 0.000976562, -0.000976562, 0, -0.0722656, 0.342773, -9.78906, 1.11.2022 19:4:49.764
947, 1.92247, 0.318181, 347.13, -0.000976562, -0.000976562, -0.000976562, -0.0605469, 0.374023, -9.7959, 1.11.2022 19:4:49.772
948, 1.92247, 0.318181, 347.13, 0, -0.000976562, -0.000976562, -0.0175781, 0.326172, -9.82617, 1.11.2022 19:4:49.780
949, 1.92247, 0.318181, 347.13, 0, -0.000976562, -0.000976562, -0.0878906, 0.34375, -9.76758, 1.11.2022 19:4:49.788
950, 1.92247, 0.318181, 347.13, 0, -0.000976562, 0, -0.0507812, 0.349609, -9.78223, 1.11.2022 19:4:49.796
951, 1.92247, 0.318181, 347.13, 0, -0.00195312, 0, -0.0537109, 0.326172, -9.81348, 1.11.2022 19:4:49.804
952, 1.92941, 0.317398, 347.13, 0, -0.000976562, 0, -0.100586, 0.335938, -9.80566, 1.11.2022 19:4:49.812
953, 1.92941, 0.317398, 347.13, 0, -0.000976562, 0, -0.0429688, 0.327148, -9.77344, 1.11.2022 19:4:49.820
954, 1.92941, 0.317398, 347.13, 0, 0, 0, -0.0634766, 0.310547, -9.8418, 1.11.2022 19:4:49.828
955, 1.92941, 0.317398, 347.13, 0, 0, 0.000976562, -0.0751953, 0.323242, -9.80566, 1.11.2022 19:4:49.836
956, 1.92941, 0.317398, 347.13, 0.000976562, -0.000976562, 0, -0.0078125, 0.314453, -9.81445, 1.11.2022 19:4:49.844
957, 1.9302, 0.324347, 347.13, 0, -0.000976562, 0, -0.0859375, 0.313477, -9.77344, 1.11.2022 19:4:49.852
958, 1.9302, 0.324347, 347.13, 0, 0, 0.000976562, -0.0527344, 0.3125, -9.76855, 1.11.2022 19:4:49.860
959, 1.92247, 0.318181, 347.13, 0, 0, 0, -0.0126953, 0.294922, -9.82227, 1.11.2022 19:4:49.868
960, 1.92247, 0.318181, 347.13, 0.000976562, -0.000976562, 0.000976562, -0.0849609, 0.329102, -9.83203, 1.11.2022 19:4:49.876
961, 1.92245, 0.318066, 347.124, 0, -0.000976562, 0, -0.0458984, 0.338867, -9.76562, 1.11.2022 19:4:49.884
962, 1.92245, 0.318066, 347.124, 0.000976562, 0, 0.000976562, -0.0175781, 0.342773, -9.80176, 1.11.2022 19:4:49.892
963, 1.92245, 0.318066, 347.124, 0, -0.000976562, 0, -0.131836, 0.329102, -9.81641, 1.11.2022 19:4:49.900
964, 1.92245, 0.318066, 347.124, 0, -0.000976562, 0, -0.0390625, 0.330078, -9.79688, 1.11.2022 19:4:49.908
965, 1.92245, 0.318066, 347.124, -0.000976562, 0, 0, -0.0664062, 0.345703, -9.73438, 1.11.2022 19:4:49.916
966, 1.92245, 0.318066, 347.124, -0.000976562, -0.000976562, -0.000976562, -0.0751953, 0.34375, -9.82227, 1.11.2022 19:4:49.924
967, 1.92245, 0.318066, 347.124, -0.000976562, -0.000976562, 0.000976562, -0.00292969, 0.30957, -9.81445, 1.11.2022 19:4:49.932
968, 1.92245, 0.318066, 347.124, 0, -0.000976562, -0.000976562, -0.0859375, 0.325195, -9.77051, 1.11.2022 19:4:49.940
969, 1.92245, 0.318066, 347.124, -0.000976562, -0.000976562, -0.000976562, -0.0566406, 0.333008, -9.73242, 1.11.2022 19:4:49.948
970, 1.92245, 0.318066, 347.124, 0.000976562, 0, 0.000976562, -0.0166016, 0.322266, -9.75781, 1.11.2022 19:4:49.956
971, 1.92245, 0.318066, 347.124, -0.000976562, -0.000976562, -0.000976562, -0.0976562, 0.353516, -9.77148, 1.11.2022 19:4:49.964
972, 1.92245, 0.318066, 347.124, -0.000976562, -0.000976562, -0.000976562, -0.0263672, 0.320312, -9.77148, 1.11.2022 19:4:49.972
973, 1.92245, 0.318066, 347.124, 0, -0.000976562, -0.00195312, -0.0419922, 0.299805, -9.81641, 1.11.2022 19:4:49.980
974, 1.92245, 0.318066, 347.124, -0.000976562, -0.00195312, -0.000976562, -0.0839844, 0.333008, -9.80762, 1.11.2022 19:4:49.988
975, 1.92245, 0.318066, 347.124, -0.000976562, -0.00195312, -0.00195312, -0.0146484, 0.326172, -9.80273, 1.11.2022 19:4:49.996
976, 1.92245, 0.318066, 347.124, 0, -0.000976562, -0.00195312, -0.0605469, 0.355469, -9.83594, 1.11.2022 19:4:50.004
977, 1.92245, 0.318066, 347.124, -0.000976562, -0.000976562, -0.000976562, -0.0742188, 0.34668, -9.78418, 1.11.2022 19:4:50.012
978, 1.92245, 0.318066, 347.124, -0.000976562, -0.000976562, 0.000976562, -0.000976562, 0.316406, -9.81738, 1.11.2022 19:4:50.020
979, 1.92245, 0.318066, 347.124, -0.00195312, 0.00195312, 0, -0.0966797, 0.337891, -9.81055, 1.11.2022 19:4:50.028
980, 1.92245, 0.318066, 347.124, -0.000976562, 0, -0.000976562, -0.0488281, 0.333984, -9.81836, 1.11.2022 19:4:50.036
981, 1.92245, 0.318066, 347.124, -0.000976562, -0.000976562, -0.000976562, -0.0556641, 0.331055, -9.81348, 1.11.2022 19:4:50.044
982, 1.92245, 0.318066, 347.124, -0.000976562, -0.000976562, 0.00195312, -0.100586, 0.364258, -9.7998, 1.11.2022 19:4:50.052
983, 1.92245, 0.318066, 347.124, -0.000976562, -0.000976562, -0.000976562, -0.00585938, 0.304688, -9.80273, 1.11.2022 19:4:50.060
984, 1.92245, 0.318066, 347.124, -0.000976562, 0, -0.000976562, -0.0537109, 0.30957, -9.80957, 1.11.2022 19:4:50.068
985, 1.92245, 0.318066, 347.124, -0.000976562, -0.000976562, -0.00195312, -0.0576172, 0.341797, -9.78418, 1.11.2022 19:4:50.076
986, 1.92939, 0.317283, 347.124, -0.000976562, -0.000976562, -0.000976562, -0.0126953, 0.334961, -9.7998, 1.11.2022 19:4:50.084
987, 1.92939, 0.317283, 347.124, -0.000976562, -0.000976562, -0.000976562, -0.108398, 0.337891, -9.81445, 1.11.2022 19:4:50.092
988, 1.92939, 0.317283, 347.124, 0, 0, -0.000976562, -0.0673828, 0.344727, -9.78223, 1.11.2022 19:4:50.100
989, 1.92939, 0.317283, 347.124, -0.00195312, 0, -0.000976562, -0.0527344, 0.334961, -9.79199, 1.11.2022 19:4:50.108
990, 1.92939, 0.317283, 347.124, -0.000976562, 0, -0.000976562, -0.100586, 0.328125, -9.79883, 1.11.2022 19:4:50.116
991, 1.92939, 0.317283, 347.124, -0.000976562, -0.000976562, 0.000976562, -0.0146484, 0.330078, -9.77148, 1.11.2022 19:4:50.124
992, 1.92939, 0.317283, 347.124, 0, 0, -0.000976562, -0.0322266, 0.311523, -9.81152, 1.11.2022 19:4:50.132
993, 1.92939, 0.317283, 347.124, 0, -0.000976562, -0.000976562, -0.0703125, 0.339844, -9.80078, 1.11.2022 19:4:50.140
994, 1.92939, 0.317283, 347.124, 0, 0, -0.000976562, 0.000976562, 0.316406, -9.81738, 1.11.2022 19:4:50.148
995, 1.92861, 0.310334, 347.124, 0, -0.000976562, -0.00195312, -0.0537109, 0.311523, -9.81152, 1.11.2022 19:4:50.156
996, 1.92861, 0.310334, 347.124, -0.000976562, -0.000976562, 0.000976562, -0.0576172, 0.325195, -9.7666, 1.11.2022 19:4:50.164
997, 1.92861, 0.310334, 347.124, -0.000976562, 0, -0.000976562, -0.0175781, 0.296875, -9.80762, 1.11.2022 19:4:50.172
998, 1.92861, 0.310334, 347.124, -0.000976562, -0.000976562, -0.000976562, -0.0673828, 0.330078, -9.79199, 1.11.2022 19:4:50.180
999, 1.92861, 0.310334, 347.124, -0.000976562, -0.000976562, -0.000976562, -0.0410156, 0.334961, -9.79883, 1.11.2022 19:4:50.188
1000, 1.92088, 0.304169, 347.124, -0.000976562, -0.000976562, -0.000976562, -0.0166016, 0.310547, -9.77637, 1.11.2022 19:4:50.196
1001, 1.92088, 0.304169, 347.124, -0.000976562, -0.000976562, -0.000976562, -0.103516, 0.347656, -9.7998, 1.11.2022 19:4:50.204
1002, 1.92088, 0.304169, 347.124, -0.000976562, -0.000976562, -0.000976562, -0.0361328, 0.318359, -9.80176, 1.11.2022 19:4:50.212
1003, 1.92088, 0.304169, 347.124, -0.000976562, -0.000976562, -0.000976562, -0.0556641, 0.328125, -9.79199, 1.11.2022 19:4:50.220
1004, 1.92088, 0.304169, 347.124, -0.000976562, -0.000976562, -0.000976562, -0.0556641, 0.329102, -9.81836, 1.11.2022 19:4:50.228
1005, 1.92088, 0.304169, 347.124, -0.000976562, -0.000976562, -0.000976562, 0.0136719, 0.326172, -9.82129, 1.11.2022 19:4:50.236
1006, 1.92088, 0.304169, 347.124, -0.000976562, -0.000976562, -0.000976562, -0.0761719, 0.332031, -9.77734, 1.11.2022 19:4:50.244
1007, 1.92088, 0.304169, 347.124, -0.000976562, -0.00195312, -0.000976562, -0.0527344, 0.336914, -9.75879, 1.11.2022 19:4:50.252
1008, 1.9201, 0.29722, 347.124, 0, -0.000976562, -0.000976562, -0.0234375, 0.327148, -9.76172, 1.11.2022 19:4:50.260
1009, 1.9201, 0.29722, 347.124, -0.000976562, -0.000976562, -0.00195312, -0.0839844, 0.355469, -9.81934, 1.11.2022 19:4:50.268
1010, 1.9201, 0.29722, 347.124, -0.000976562, 0, -0.000976562, -0.0146484, 0.323242, -9.80273, 1.11.2022 19:4:50.276
1011, 1.9201, 0.29722, 347.124, -0.000976562, 0, -0.000976562, -0.0390625, 0.308594, -9.78809, 1.11.2022 19:4:50.284
1012, 1.9201, 0.29722, 347.124, -0.000976562, 0, -0.00195312, -0.0839844, 0.335938, -9.8125, 1.11.2022 19:4:50.292
1013, 1.91934, 0.290385, 347.131, -0.00195312, -0.000976562, -0.00195312, 0.0175781, 0.321289, -9.82227, 1.11.2022 19:4:50.300
1014, 1.91934, 0.290385, 347.131, -0.000976562, -0.000976562, -0.000976562, -0.0410156, 0.296875, -9.79297, 1.11.2022 19:4:50.308
1015, 1.91934, 0.290385, 347.131, -0.000976562, -0.000976562, -0.000976562, -0.0478516, 0.341797, -9.78906, 1.11.2022 19:4:50.316
1016, 1.91934, 0.290385, 347.131, -0.000976562, -0.000976562, -0.000976562, -0.0175781, 0.326172, -9.81445, 1.11.2022 19:4:50.324
1017, 1.91855, 0.283436, 347.131, -0.000976562, -0.000976562, -0.000976562, -0.105469, 0.339844, -9.79785, 1.11.2022 19:4:50.332
1018, 1.91855, 0.283436, 347.131, 0, -0.00195312, -0.000976562, -0.0556641, 0.328125, -9.80859, 1.11.2022 19:4:50.340
1019, 1.91855, 0.283436, 347.131, -0.000976562, -0.00195312, -0.000976562, -0.0224609, 0.331055, -9.80469, 1.11.2022 19:4:50.348
1020, 1.91855, 0.283436, 347.131, 0, -0.000976562, -0.000976562, -0.0898438, 0.345703, -9.83789, 1.11.2022 19:4:50.356
1021, 1.91855, 0.283436, 347.131, -0.000976562, -0.000976562, -0.000976562, -0.0107422, 0.328125, -9.80664, 1.11.2022 19:4:50.364
1022, 1.91855, 0.283436, 347.131, -0.000976562, -0.000976562, -0.00195312, -0.0380859, 0.327148, -9.76855, 1.11.2022 19:4:50.372
1023, 1.91855, 0.283436, 347.131, -0.000976562, -0.000976562, -0.000976562, -0.0810547, 0.319336, -9.75391, 1.11.2022 19:4:50.380
