Seq, Rot x, Rot y, Rot z, Vel x, Vel y, Vel z, Acc x, Acc y, Acc z, Time(m.d.y h:m:s.ms)
0, 1.91071, 0.404824, 177.846, 0, -0.000976562, 0, -0.0585938, 0.320312, -9.8584, 12.8.2021 17:47:49.309
1, 1.91071, 0.404824, 177.846, 0, 0, 0, -0.137695, 0.333984, -9.84277, 12.8.2021 17:47:49.317
2, 1.91071, 0.404824, 177.846, 0.000976562, 0, 0, -0.0527344, 0.323242, -9.7998, 12.8.2021 17:47:49.325
3, 1.91071, 0.404824, 177.846, 0, 0.000976562, 0, -0.0986328, 0.328125, -9.79883, 12.8.2021 17:47:49.333
4, 1.91071, 0.404824, 177.846, 0.000976562, 0, -0.000976562, -0.123047, 0.335938, -9.81934, 12.8.2021 17:47:49.341
5, 1.91071, 0.404824, 177.846, 0, 0, -0.000976562, -0.0322266, 0.335938, -9.82812, 12.8.2021 17:47:49.349
6, 1.91783, 0.411685, 177.846, 0, -0.000976562, -0.000976562, -0.120117, 0.321289, -9.81055, 12.8.2021 17:47:49.357
7, 1.91783, 0.411685, 177.846, 0, -0.000976562, -0.000976562, -0.0849609, 0.34375, -9.83105, 12.8.2021 17:47:49.365
8, 1.91783, 0.411685, 177.846, 0, 0, -0.000976562, -0.0498047, 0.318359, -9.8584, 12.8.2021 17:47:49.373
9, 1.91783, 0.411685, 177.846, 0, -0.000976562, 0, -0.12793, 0.318359, -9.86426, 12.8.2021 17:47:49.381
10, 1.91796, 0.418677, 177.845, 0, -0.000976562, 0, -0.0517578, 0.334961, -9.875, 12.8.2021 17:47:49.389
11, 1.91796, 0.418677, 177.845, 0, 0, -0.000976562, -0.0585938, 0.333984, -9.82715, 12.8.2021 17:47:49.395
12, 1.91796, 0.418677, 177.845, 0, -0.000976562, 0, -0.108398, 0.314453, -9.82031, 12.8.2021 17:47:49.403
13, 1.91796, 0.418677, 177.845, 0, 0, 0, -0.00585938, 0.326172, -9.80957, 12.8.2021 17:47:49.411
14, 1.91796, 0.418677, 177.845, 0, -0.000976562, 0, -0.0898438, 0.334961, -9.85254, 12.8.2021 17:47:49.419
15, 1.91809, 0.425669, 177.845, 0, -0.000976562, -0.000976562, -0.104492, 0.325195, -9.84375, 12.8.2021 17:47:49.427
16, 1.91809, 0.425669, 177.845, 0.000976562, -0.00195312, 0, -0.015625, 0.292969, -9.82227, 12.8.2021 17:47:49.435
17, 1.91809, 0.425669, 177.845, 0, -0.00195312, -0.000976562, -0.09375, 0.348633, -9.83105, 12.8.2021 17:47:49.443
18, 1.91809, 0.425669, 177.845, -0.00195312, -0.000976562, -0.00195312, -0.0722656, 0.330078, -9.79199, 12.8.2021 17:47:49.451
19, 1.91809, 0.425669, 177.845, -0.00195312, -0.000976562, -0.000976562, -0.0488281, 0.314453, -9.8252, 12.8.2021 17:47:49.459
20, 1.91809, 0.425669, 177.845, 0, -0.000976562, -0.000976562, -0.130859, 0.344727, -9.86328, 12.8.2021 17:47:49.467
21, 1.91822, 0.43266, 177.845, 0.000976562, -0.000976562, 0, -0.0341797, 0.335938, -9.8252, 12.8.2021 17:47:49.475
22, 1.91822, 0.43266, 177.845, 0, 0, 0, -0.0673828, 0.337891, -9.80078, 12.8.2021 17:47:49.483
23, 1.91822, 0.43266, 177.845, 0, -0.000976562, 0.000976562, -0.113281, 0.31543, -9.83398, 12.8.2021 17:47:49.491
24, 1.91822, 0.43266, 177.845, 0.000976562, -0.000976562, 0, -0.0195312, 0.344727, -9.79004, 12.8.2021 17:47:49.499
25, 1.91822, 0.43266, 177.845, 0.000976562, -0.000976562, -0.000976562, -0.0820312, 0.342773, -9.80762, 12.8.2021 17:47:49.507
26, 1.91822, 0.43266, 177.845, -0.000976562, 0, -0.000976562, -0.0869141, 0.341797, -9.83887, 12.8.2021 17:47:49.515
27, 1.91822, 0.43266, 177.845, -0.000976562, -0.000976562, -0.000976562, -0.0595703, 0.339844, -9.88184, 12.8.2021 17:47:49.523
28, 1.91822, 0.43266, 177.845, -0.000976562, -0.000976562, 0, -0.106445, 0.345703, -9.82617, 12.8.2021 17:47:49.531
29, 1.91822, 0.43266, 177.845, -0.000976562, -0.000976562, 0, -0.0771484, 0.339844, -9.7959, 12.8.2021 17:47:49.539
30, 1.92521, 0.432529, 177.845, -0.000976562, 0, -0.000976562, -0.0625, 0.313477, -9.80176, 12.8.2021 17:47:49.547
31, 1.92521, 0.432529, 177.845, 0, 0, 0, -0.148438, 0.357422, -9.80371, 12.8.2021 17:47:49.555
32, 1.92521, 0.432529, 177.845, -0.000976562, -0.000976562, -0.000976562, -0.0537109, 0.317383, -9.83008, 12.8.2021 17:47:49.563
33, 1.92521, 0.432529, 177.845, -0.000976562, 0, 0, -0.0722656, 0.324219, -9.81348, 12.8.2021 17:47:49.571
34, 1.92521, 0.432529, 177.845, -0.000976562, 0, -0.000976562, -0.103516, 0.345703, -9.80762, 12.8.2021 17:47:49.579
35, 1.92521, 0.432529, 177.845, -0.000976562, -0.000976562, -0.000976562, -0.0400391, 0.300781, -9.84766, 12.8.2021 17:47:49.587
36, 1.92521, 0.432529, 177.845, -0.000976562, -0.00195312, 0, -0.0849609, 0.310547, -9.85156, 12.8.2021 17:47:49.595
37, 1.92521, 0.432529, 177.845, -0.000976562, -0.000976562, 0, -0.107422, 0.333008, -9.88086, 12.8.2021 17:47:49.603
38, 1.92521, 0.432529, 177.845, -0.000976562, -0.00195312, 0, -0.0292969, 0.302734, -9.81934, 12.8.2021 17:47:49.611
39, 1.92521, 0.432529, 177.845, -0.000976562, -0.000976562, 0, -0.125, 0.319336, -9.83105, 12.8.2021 17:47:49.619
40, 1.92534, 0.439521, 177.845, -0.000976562, -0.000976562, -0.000976562, -0.0654297, 0.339844, -9.80371, 12.8.2021 17:47:49.627
41, 1.92534, 0.439521, 177.845, -0.000976562, -0.000976562, 0, -0.0517578, 0.305664, -9.85645, 12.8.2021 17:47:49.635
42, 1.92534, 0.439521, 177.845, -0.000976562, -0.000976562, -0.000976562, -0.114258, 0.334961, -9.85938, 12.8.2021 17:47:49.643
43, 1.92534, 0.439521, 177.845, -0.000976562, -0.000976562, 0, -0.0185547, 0.320312, -9.86133, 12.8.2021 17:47:49.651
44, 1.92534, 0.439521, 177.845, -0.000976562, -0.00195312, 0, -0.0537109, 0.286133, -9.84277, 12.8.2021 17:47:49.659
45, 1.92534, 0.439521, 177.845, -0.000976562, -0.000976562, 0, -0.110352, 0.342773, -9.78809, 12.8.2021 17:47:49.667
46, 1.92534, 0.439521, 177.845, -0.000976562, 0, 0, -0.0078125, 0.321289, -9.80957, 12.8.2021 17:47:49.675
47, 1.92534, 0.439521, 177.845, -0.00195312, 0, -0.000976562, -0.0917969, 0.338867, -9.82227, 12.8.2021 17:47:49.683
48, 1.92534, 0.439521, 177.845, -0.000976562, -0.000976562, -0.000976562, -0.0869141, 0.34082, -9.82227, 12.8.2021 17:47:49.691
49, 1.92534, 0.439521, 177.845, -0.00195312, 0, 0, -0.0341797, 0.334961, -9.79492, 12.8.2021 17:47:49.699
50, 1.92534, 0.439521, 177.845, -0.000976562, -0.000976562, 0, -0.144531, 0.349609, -9.85645, 12.8.2021 17:47:49.707
51, 1.92534, 0.439521, 177.845, -0.00195312, 0, 0, -0.078125, 0.361328, -9.86621, 12.8.2021 17:47:49.715
52, 1.92534, 0.439521, 177.845, -0.000976562, 0, -0.000976562, -0.0371094, 0.303711, -9.85645, 12.8.2021 17:47:49.723
53, 1.92534, 0.439521, 177.845, -0.000976562, -0.000976562, -0.000976562, -0.129883, 0.338867, -9.82324, 12.8.2021 17:47:49.731
54, 1.92534, 0.439521, 177.845, 0, -0.000976562, -0.000976562, -0.0371094, 0.306641, -9.80957, 12.8.2021 17:47:49.739
55, 1.92534, 0.439521, 177.845, -0.000976562, -0.000976562, -0.000976562, -0.0390625, 0.314453, -9.80957, 12.8.2021 17:47:49.747
56, 1.92521, 0.432529, 177.845, 0, -0.000976562, -0.000976562, -0.09375, 0.324219, -9.82422, 12.8.2021 17:47:49.755
57, 1.92521, 0.432529, 177.845, -0.000976562, 0, -0.000976562, -0.0175781, 0.324219, -9.83496, 12.8.2021 17:47:49.763
58, 1.92521, 0.432529, 177.845, -0.000976562, -0.000976562, -0.000976562, -0.0634766, 0.336914, -9.85547, 12.8.2021 17:47:49.771
59, 1.92521, 0.432529, 177.845, -0.000976562, -0.000976562, -0.000976562, -0.0898438, 0.34082, -9.83105, 12.8.2021 17:47:49.779
60, 1.92521, 0.432529, 177.845, 0.000976562, 0, -0.000976562, -0.0390625, 0.291992, -9.80273, 12.8.2021 17:47:49.787
61, 1.92521, 0.432529, 177.845, -0.00195312, -0.000976562, 0, -0.09375, 0.314453, -9.82031, 12.8.2021 17:47:49.795
62, 1.92521, 0.432529, 177.845, -0.000976562, 0, -0.000976562, -0.078125, 0.31543, -9.8418, 12.8.2021 17:47:49.803
63, 1.91822, 0.43266, 177.845, 0.000976562, -0.000976562, 0, -0.0322266, 0.326172, -9.81836, 12.8.2021 17:47:49.811
64, 1.91822, 0.43266, 177.845, 0, -0.000976562, 0, -0.146484, 0.34082, -9.82324, 12.8.2021 17:47:49.819
65, 1.91809, 0.425669, 177.845, 0, 0, 0.000976562, -0.0419922, 0.326172, -9.81836, 12.8.2021 17:47:49.827
66, 1.91809, 0.425669, 177.845, 0, 0, 0, -0.0849609, 0.332031, -9.84082, 12.8.2021 17:47:49.835
67, 1.91809, 0.425669, 177.845, -0.000976562, -0.000976562, -0.000976562, -0.125977, 0.356445, -9.85156, 12.8.2021 17:47:49.843
68, 1.91809, 0.425669, 177.845, 0, 0, 0.000976562, -0.0439453, 0.329102, -9.83496, 12.8.2021 17:47:49.851
69, 1.91809, 0.425669, 177.845, -0.00195312, 0, 0, -0.0917969, 0.34082, -9.80566, 12.8.2021 17:47:49.859
70, 1.91809, 0.425669, 177.845, -0.000976562, -0.000976562, -0.000976562, -0.09375, 0.34375, -9.82422, 12.8.2021 17:47:49.867
71, 1.91809, 0.425669, 177.845, -0.000976562, 0, -0.000976562, -0.0371094, 0.3125, -9.83496, 12.8.2021 17:47:49.875
72, 1.91809, 0.425669, 177.845, 0, -0.000976562, 0, -0.132812, 0.339844, -9.86816, 12.8.2021 17:47:49.883
73, 1.91809, 0.425669, 177.845, 0, -0.00195312, 0, -0.0917969, 0.321289, -9.81055, 12.8.2021 17:47:49.891
74, 1.91809, 0.425669, 177.845, 0, -0.000976562, 0, -0.046875, 0.319336, -9.82324, 12.8.2021 17:47:49.899
75, 1.91809, 0.425669, 177.845, 0, 0, 0, -0.113281, 0.357422, -9.81836, 12.8.2021 17:47:49.907
76, 1.91809, 0.425669, 177.845, 0.000976562, 0, -0.000976562, -0.0410156, 0.331055, -9.7998, 12.8.2021 17:47:49.915
77, 1.91809, 0.425669, 177.845, 0, 0, 0, -0.0634766, 0.299805, -9.81445, 12.8.2021 17:47:49.923
78, 1.91809, 0.425669, 177.845, -0.000976562, 0, -0.000976562, -0.0800781, 0.331055, -9.81738, 12.8.2021 17:47:49.931
79, 1.91809, 0.425669, 177.845, -0.000976562, 0, -0.000976562, -0.0302734, 0.303711, -9.84766, 12.8.2021 17:47:49.939
80, 1.91809, 0.425669, 177.845, 0, -0.000976562, 0, -0.0849609, 0.302734, -9.83496, 12.8.2021 17:47:49.947
81, 1.91809, 0.425669, 177.845, -0.00195312, -0.000976562, 0, -0.0878906, 0.334961, -9.85254, 12.8.2021 17:47:49.955
82, 1.91809, 0.425669, 177.845, -0.00195312, -0.000976562, -0.000976562, -0.0234375, 0.318359, -9.85938, 12.8.2021 17:47:49.963
83, 1.91809, 0.425669, 177.845, -0.00195312, -0.000976562, 0, -0.116211, 0.332031, -9.84277, 12.8.2021 17:47:49.971
84, 1.91809, 0.425669, 177.845, 0, -0.000976562, 0, -0.0654297, 0.329102, -9.8418, 12.8.2021 17:47:49.979
85, 1.91809, 0.425669, 177.845, -0.000976562, -0.000976562, -0.000976562, -0.0361328, 0.328125, -9.80469, 12.8.2021 17:47:49.987
86, 1.91809, 0.425669, 177.845, 0, -0.000976562, 0, -0.103516, 0.34082, -9.83301, 12.8.2021 17:47:49.995
87, 1.91809, 0.425669, 177.845, 0, -0.00195312, 0, -0.0449219, 0.31543, -9.84961, 12.8.2021 17:47:50.003
88, 1.91809, 0.425669, 177.845, 0, 0, 0, -0.0507812, 0.299805, -9.80762, 12.8.2021 17:47:50.011
89, 1.91809, 0.425669, 177.845, 0.000976562, -0.000976562, 0, -0.0986328, 0.329102, -9.83594, 12.8.2021 17:47:50.019
90, 1.91809, 0.425669, 177.845, 0, -0.000976562, 0, -0.0175781, 0.307617, -9.82422, 12.8.2021 17:47:50.027
91, 1.91809, 0.425669, 177.845, 0, 0, 0, -0.0751953, 0.330078, -9.85059, 12.8.2021 17:47:50.035
92, 1.91809, 0.425669, 177.845, 0.000976562, 0, 0, -0.106445, 0.353516, -9.82812, 12.8.2021 17:47:50.043
93, 1.91796, 0.418677, 177.845, 0, 0.000976562, 0, -0.0439453, 0.288086, -9.83105, 12.8.2021 17:47:50.051
94, 1.91097, 0.418808, 177.845, 0, 0, -0.000976562, -0.105469, 0.326172, -9.79883, 12.8.2021 17:47:50.059
95, 1.91097, 0.418808, 177.845, 0, -0.000976562, 0, -0.0615234, 0.365234, -9.8457, 12.8.2021 17:47:50.067
96, 1.91097, 0.418808, 177.845, 0, -0.000976562, 0, -0.0185547, 0.307617, -9.83789, 12.8.2021 17:47:50.075
97, 1.91099, 0.418692, 177.838, -0.00195312, -0.000976562, 0, -0.125, 0.34082, -9.83105, 12.8.2021 17:47:50.083
98, 1.91099, 0.418692, 177.838, 0, 0, 0, -0.0488281, 0.333008, -9.79883, 12.8.2021 17:47:50.091
99, 1.91099, 0.418692, 177.838, 0, 0.000976562, -0.000976562, -0.0644531, 0.296875, -9.78613, 12.8.2021 17:47:50.099
100, 1.91097, 0.418808, 177.845, 0, 0, -0.000976562, -0.115234, 0.345703, -9.81641, 12.8.2021 17:47:50.107
101, 1.91084, 0.411816, 177.846, -0.00195312, -0.00195312, -0.000976562, -0.0107422, 0.311523, -9.80078, 12.8.2021 17:47:50.115
102, 1.91084, 0.411816, 177.846, 0, -0.000976562, -0.000976562, -0.0859375, 0.31543, -9.78516, 12.8.2021 17:47:50.123
103, 1.91084, 0.411816, 177.846, 0.000976562, -0.000976562, -0.000976562, -0.0966797, 0.314453, -9.82031, 12.8.2021 17:47:50.131
104, 1.91084, 0.411816, 177.846, 0, 0, -0.000976562, -0.015625, 0.3125, -9.83105, 12.8.2021 17:47:50.139
105, 1.91084, 0.411816, 177.846, -0.00195312, -0.000976562, 0, -0.118164, 0.320312, -9.85547, 12.8.2021 17:47:50.147
106, 1.91084, 0.411816, 177.846, -0.00195312, -0.000976562, 0.000976562, -0.0683594, 0.341797, -9.8457, 12.8.2021 17:47:50.155
107, 1.91084, 0.411816, 177.846, -0.00195312, -0.000976562, 0, -0.0439453, 0.335938, -9.83008, 12.8.2021 17:47:50.163
108, 1.91084, 0.411816, 177.846, 0, 0, 0, -0.118164, 0.34375, -9.83105, 12.8.2021 17:47:50.171
109, 1.91084, 0.411816, 177.846, 0, -0.000976562, 0, -0.0654297, 0.328125, -9.80566, 12.8.2021 17:47:50.179
110, 1.91084, 0.411816, 177.846, 0.000976562, -0.00195312, 0, -0.0634766, 0.319336, -9.82031, 12.8.2021 17:47:50.187
111, 1.91084, 0.411816, 177.846, 0, -0.000976562, 0, -0.116211, 0.332031, -9.85449, 12.8.2021 17:47:50.195
112, 1.91084, 0.411816, 177.846, 0, -0.00195312, -0.000976562, -0.0419922, 0.297852, -9.8125, 12.8.2021 17:47:50.203
113, 1.91084, 0.411816, 177.846, -0.00195312, -0.000976562, -0.000976562, -0.0654297, 0.30957, -9.81152, 12.8.2021 17:47:50.211
114, 1.91084, 0.411816, 177.846, 0, -0.000976562, -0.000976562, -0.09375, 0.335938, -9.81445, 12.8.2021 17:47:50.219
115, 1.91084, 0.411816, 177.846, 0, 0, -0.000976562, -0.0371094, 0.304688, -9.82617, 12.8.2021 17:47:50.227
116, 1.90385, 0.411947, 177.846, 0.000976562, -0.000976562, 0, -0.103516, 0.324219, -9.81738, 12.8.2021 17:47:50.235
117, 1.90385, 0.411947, 177.846, 0.00195312, -0.000976562, 0, -0.0605469, 0.345703, -9.83887, 12.8.2021 17:47:50.243
118, 1.90385, 0.411947, 177.846, 0, -0.000976562, 0, -0.0527344, 0.320312, -9.79004, 12.8.2021 17:47:50.251
119, 1.90385, 0.411947, 177.846, 0, -0.000976562, -0.000976562, -0.117188, 0.330078, -9.76465, 12.8.2021 17:47:50.259
120, 1.90385, 0.411947, 177.846, 0, 0, -0.000976562, -0.0322266, 0.331055, -9.81152, 12.8.2021 17:47:50.267
121, 1.90385, 0.411947, 177.846, 0.000976562, 0, -0.000976562, -0.0703125, 0.331055, -9.81348, 12.8.2021 17:47:50.275
122, 1.90385, 0.411947, 177.846, -0.000976562, -0.00195312, 0, -0.0986328, 0.347656, -9.82129, 12.8.2021 17:47:50.283
123, 1.90385, 0.411947, 177.846, -0.000976562, -0.000976562, -0.000976562, -0.0332031, 0.318359, -9.86621, 12.8.2021 17:47:50.291
124, 1.90385, 0.411947, 177.846, 0.000976562, -0.000976562, -0.000976562, -0.0800781, 0.335938, -9.82422, 12.8.2021 17:47:50.299
125, 1.90385, 0.411947, 177.846, 0.000976562, -0.000976562, -0.000976562, -0.0732422, 0.338867, -9.83594, 12.8.2021 17:47:50.307
126, 1.90385, 0.411947, 177.846, -0.00195312, -0.000976562, 0, -0.0322266, 0.321289, -9.81348, 12.8.2021 17:47:50.315
127, 1.90385, 0.411947, 177.846, -0.000976562, -0.000976562, -0.000976562, -0.118164, 0.329102, -9.82617, 12.8.2021 17:47:50.323
128, 1.90385, 0.411947, 177.846, -0.000976562, -0.000976562, -0.000976562, -0.0654297, 0.316406, -9.81152, 12.8.2021 17:47:50.331
129, 1.90385, 0.411947, 177.846, -0.000976562, -0.00195312, 0, -0.0273438, 0.332031, -9.84961, 12.8.2021 17:47:50.339
130, 1.90385, 0.411947, 177.846, -0.00195312, -0.000976562, -0.000976562, -0.0898438, 0.335938, -9.82422, 12.8.2021 17:47:50.347
131, 1.90385, 0.411947, 177.846, -0.000976562, 0, -0.000976562, -0.0253906, 0.330078, -9.84961, 12.8.2021 17:47:50.353
132, 1.90385, 0.411947, 177.846, -0.000976562, 0, -0.000976562, -0.0683594, 0.302734, -9.82324, 12.8.2021 17:47:50.363
133, 1.90385, 0.411947, 177.846, 0.000976562, 0, -0.000976562, -0.110352, 0.357422, -9.81836, 12.8.2021 17:47:50.369
134, 1.90385, 0.411947, 177.846, -0.000976562, -0.000976562, 0, -0.0195312, 0.326172, -9.80957, 12.8.2021 17:47:50.377
135, 1.90385, 0.411947, 177.846, 0.000976562, 0, 0, -0.0703125, 0.332031, -9.83887, 12.8.2021 17:47:50.385
136, 1.90385, 0.411947, 177.846, -0.000976562, -0.000976562, -0.000976562, -0.0898438, 0.334961, -9.8623, 12.8.2021 17:47:50.393
137, 1.90385, 0.411947, 177.846, -0.000976562, -0.00195312, -0.000976562, -0.0351562, 0.297852, -9.83105, 12.8.2021 17:47:50.401
138, 1.90385, 0.411947, 177.846, 0.000976562, -0.000976562, -0.000976562, -0.121094, 0.34668, -9.84277, 12.8.2021 17:47:50.409
139, 1.90372, 0.404955, 177.846, 0.000976562, 0, 0, -0.0634766, 0.365234, -9.83594, 12.8.2021 17:47:50.417
140, 1.90372, 0.404955, 177.846, -0.000976562, -0.000976562, 0, -0.0517578, 0.329102, -9.83984, 12.8.2021 17:47:50.425
141, 1.91071, 0.404824, 177.846, -0.000976562, 0, -0.000976562, -0.106445, 0.34668, -9.83789, 12.8.2021 17:47:50.433
142, 1.91071, 0.404824, 177.846, 0.000976562, 0, -0.000976562, -0.0488281, 0.336914, -9.84375, 12.8.2021 17:47:50.441
143, 1.91071, 0.404824, 177.846, -0.000976562, -0.000976562, 0, -0.0722656, 0.304688, -9.81641, 12.8.2021 17:47:50.449
144, 1.91071, 0.404824, 177.846, 0.000976562, 0, 0, -0.0947266, 0.339844, -9.85059, 12.8.2021 17:47:50.457
145, 1.91071, 0.404824, 177.846, -0.00195312, 0, -0.000976562, -0.00390625, 0.279297, -9.8418, 12.8.2021 17:47:50.465
146, 1.91071, 0.404824, 177.846, -0.00195312, 0, 0, -0.0703125, 0.338867, -9.82715, 12.8.2021 17:47:50.473
147, 1.91071, 0.404824, 177.846, -0.000976562, -0.000976562, -0.000976562, -0.09375, 0.331055, -9.80566, 12.8.2021 17:47:50.481
148, 1.91071, 0.404824, 177.846, -0.000976562, -0.000976562, -0.000976562, -0.0253906, 0.317383, -9.84473, 12.8.2021 17:47:50.489
149, 1.91071, 0.404824, 177.846, -0.000976562, -0.000976562, -0.000976562, -0.101562, 0.339844, -9.85254, 12.8.2021 17:47:50.497
150, 1.91058, 0.397833, 177.846, 0.000976562, -0.000976562, 0, -0.0449219, 0.320312, -9.87012, 12.8.2021 17:47:50.505
151, 1.91058, 0.397833, 177.846, -0.000976562, -0.000976562, -0.000976562, -0.0488281, 0.30957, -9.80957, 12.8.2021 17:47:50.513
152, 1.91058, 0.397833, 177.846, 0.000976562, 0, -0.000976562, -0.132812, 0.330078, -9.85742, 12.8.2021 17:47:50.521
153, 1.91058, 0.397833, 177.846, -0.000976562, 0, -0.000976562, -0.0498047, 0.325195, -9.8584, 12.8.2021 17:47:50.529
154, 1.91058, 0.397833, 177.846, -0.00195312, -0.000976562, -0.000976562, -0.0693359, 0.314453, -9.89355, 12.8.2021 17:47:50.537
155, 1.91058, 0.397833, 177.846, -0.000976562, -0.000976562, 0.000976562, -0.0966797, 0.333984, -9.84082, 12.8.2021 17:47:50.545
156, 1.91058, 0.397833, 177.846, -0.000976562, -0.00195312, 0, -0.0371094, 0.302734, -9.82812, 12.8.2021 17:47:50.553
157, 1.91058, 0.397833, 177.846, 0, -0.000976562, 0, -0.103516, 0.322266, -9.82227, 12.8.2021 17:47:50.561
158, 1.91058, 0.397833, 177.846, -0.000976562, -0.000976562, 0, -0.110352, 0.342773, -9.81445, 12.8.2021 17:47:50.569
159, 1.91058, 0.397833, 177.846, -0.000976562, -0.000976562, 0, -0.0507812, 0.321289, -9.81836, 12.8.2021 17:47:50.577
160, 1.91058, 0.397833, 177.846, -0.000976562, -0.000976562, -0.000976562, -0.134766, 0.320312, -9.84961, 12.8.2021 17:47:50.585
161, 1.91058, 0.397833, 177.846, -0.000976562, -0.000976562, 0, -0.0634766, 0.327148, -9.83691, 12.8.2021 17:47:50.593
162, 1.91058, 0.397833, 177.846, 0, 0.000976562, -0.00195312, -0.0419922, 0.324219, -9.83496, 12.8.2021 17:47:50.601
163, 1.91058, 0.397833, 177.846, -0.000976562, 0, -0.000976562, -0.0800781, 0.31543, -9.86328, 12.8.2021 17:47:50.609
164, 1.91058, 0.397833, 177.846, -0.000976562, -0.000976562, -0.000976562, -0.0185547, 0.322266, -9.84473, 12.8.2021 17:47:50.617
165, 1.91058, 0.397833, 177.846, -0.00195312, -0.000976562, -0.000976562, -0.0585938, 0.305664, -9.83789, 12.8.2021 17:47:50.625
166, 1.91058, 0.397833, 177.846, -0.00195312, -0.000976562, -0.000976562, -0.0869141, 0.320312, -9.8418, 12.8.2021 17:47:50.633
167, 1.91071, 0.404824, 177.846, -0.000976562, -0.000976562, -0.000976562, -0.0517578, 0.307617, -9.83301, 12.8.2021 17:47:50.641
168, 1.91071, 0.404824, 177.846, -0.000976562, 0, -0.000976562, -0.104492, 0.330078, -9.8457, 12.8.2021 17:47:50.649
169, 1.91071, 0.404824, 177.846, -0.000976562, 0, -0.000976562, -0.0820312, 0.313477, -9.79883, 12.8.2021 17:47:50.657
170, 1.91071, 0.404824, 177.846, -0.000976562, 0, -0.000976562, -0.0322266, 0.302734, -9.83301, 12.8.2021 17:47:50.665
171, 1.91071, 0.404824, 177.846, -0.000976562, -0.000976562, 0, -0.120117, 0.338867, -9.83789, 12.8.2021 17:47:50.673
172, 1.90372, 0.404955, 177.846, -0.000976562, -0.000976562, -0.000976562, -0.0634766, 0.331055, -9.83008, 12.8.2021 17:47:50.681
173, 1.90372, 0.404955, 177.846, -0.000976562, 0, -0.000976562, -0.0234375, 0.298828, -9.86426, 12.8.2021 17:47:50.689
174, 1.90372, 0.404955, 177.846, -0.00195312, -0.000976562, -0.000976562, -0.111328, 0.332031, -9.8291, 12.8.2021 17:47:50.697
175, 1.90372, 0.404955, 177.846, 0, -0.00195312, 0, -0.0517578, 0.297852, -9.82812, 12.8.2021 17:47:50.705
176, 1.90372, 0.404955, 177.846, 0, -0.000976562, -0.000976562, -0.0869141, 0.323242, -9.80371, 12.8.2021 17:47:50.713
177, 1.90372, 0.404955, 177.846, -0.000976562, -0.000976562, 0, -0.120117, 0.345703, -9.82129, 12.8.2021 17:47:50.721
178, 1.90372, 0.404955, 177.846, -0.000976562, -0.000976562, 0, -0.0410156, 0.291992, -9.79785, 12.8.2021 17:47:50.729
179, 1.89673, 0.405087, 177.846, -0.000976562, 0, -0.000976562, -0.102539, 0.334961, -9.87891, 12.8.2021 17:47:50.737
180, 1.89673, 0.405087, 177.846, -0.000976562, 0, -0.000976562, -0.0673828, 0.318359, -9.79688, 12.8.2021 17:47:50.745
181, 1.89673, 0.405087, 177.846, 0, -0.000976562, 0.000976562, -0.0322266, 0.3125, -9.84277, 12.8.2021 17:47:50.753
182, 1.89673, 0.405087, 177.846, -0.000976562, 0, 0, -0.134766, 0.34375, -9.83984, 12.8.2021 17:47:50.761
183, 1.89673, 0.405087, 177.846, -0.000976562, 0, -0.000976562, -0.0878906, 0.322266, -9.85352, 12.8.2021 17:47:50.769
184, 1.89673, 0.405087, 177.846, -0.000976562, 0, 0, -0.0283203, 0.286133, -9.84766, 12.8.2021 17:47:50.777
185, 1.89673, 0.405087, 177.846, -0.00195312, -0.000976562, -0.000976562, -0.144531, 0.350586, -9.83008, 12.8.2021 17:47:50.785
186, 1.89673, 0.405087, 177.846, -0.00195312, 0, 0, -0.046875, 0.3125, -9.82324, 12.8.2021 17:47:50.793
187, 1.89673, 0.405087, 177.846, -0.00195312, 0, 0, -0.0654297, 0.297852, -9.82324, 12.8.2021 17:47:50.801
188, 1.89686, 0.412078, 177.846, -0.000976562, -0.000976562, -0.000976562, -0.105469, 0.331055, -9.81738, 12.8.2021 17:47:50.809
189, 1.88987, 0.412209, 177.846, 0, 0, 0, -0.0302734, 0.326172, -9.87793, 12.8.2021 17:47:50.817
190, 1.88987, 0.412209, 177.846, 0, 0, 0, -0.0820312, 0.34082, -9.83398, 12.8.2021 17:47:50.825
191, 1.88987, 0.412209, 177.846, 0.000976562, 0, 0, -0.0703125, 0.34375, -9.82227, 12.8.2021 17:47:50.833
192, 1.88987, 0.412209, 177.846, 0, -0.000976562, 0, -0.0390625, 0.290039, -9.79785, 12.8.2021 17:47:50.841
193, 1.88987, 0.412209, 177.846, 0, 0, 0, -0.115234, 0.342773, -9.81445, 12.8.2021 17:47:50.849
194, 1.88987, 0.412209, 177.846, -0.000976562, 0, -0.000976562, -0.0732422, 0.348633, -9.83105, 12.8.2021 17:47:50.857
195, 1.88987, 0.412209, 177.846, -0.000976562, -0.000976562, -0.00195312, -0.0517578, 0.306641, -9.87305, 12.8.2021 17:47:50.865
196, 1.88987, 0.412209, 177.846, -0.00195312, -0.000976562, -0.000976562, -0.123047, 0.336914, -9.83594, 12.8.2021 17:47:50.873
197, 1.88987, 0.412209, 177.846, -0.00195312, 0, -0.000976562, -0.0537109, 0.321289, -9.81152, 12.8.2021 17:47:50.881
198, 1.88987, 0.412209, 177.846, -0.000976562, 0, -0.000976562, -0.0751953, 0.338867, -9.82031, 12.8.2021 17:47:50.889
199, 1.88987, 0.412209, 177.846, 0, 0, 0, -0.0957031, 0.347656, -9.80469, 12.8.2021 17:47:50.897
200, 1.88987, 0.412209, 177.846, 0, -0.000976562, 0, -0.0136719, 0.291992, -9.86035, 12.8.2021 17:47:50.905
201, 1.89, 0.419201, 177.846, 0, -0.000976562, 0, -0.118164, 0.317383, -9.82422, 12.8.2021 17:47:50.913
202, 1.89, 0.419201, 177.846, 0.000976562, 0, 0, -0.0771484, 0.329102, -9.81543, 12.8.2021 17:47:50.921
203, 1.89, 0.419201, 177.846, 0, -0.000976562, 0, -0.0224609, 0.302734, -9.81445, 12.8.2021 17:47:50.929
204, 1.89, 0.419201, 177.846, -0.000976562, -0.000976562, -0.000976562, -0.111328, 0.317383, -9.83203, 12.8.2021 17:47:50.937
205, 1.89, 0.419201, 177.846, -0.000976562, -0.000976562, -0.000976562, -0.0556641, 0.350586, -9.83398, 12.8.2021 17:47:50.945
206, 1.89, 0.419201, 177.846, -0.000976562, -0.000976562, -0.000976562, -0.0419922, 0.322266, -9.84961, 12.8.2021 17:47:50.953
207, 1.89, 0.419201, 177.846, 0, -0.000976562, 0, -0.115234, 0.364258, -9.81152, 12.8.2021 17:47:50.961
208, 1.89, 0.419201, 177.846, -0.000976562, -0.000976562, -0.000976562, -0.0322266, 0.332031, -9.85156, 12.8.2021 17:47:50.969
209, 1.89, 0.419201, 177.846, -0.000976562, 0, -0.000976562, -0.0654297, 0.324219, -9.82715, 12.8.2021 17:47:50.977
210, 1.89, 0.419201, 177.846, -0.000976562, -0.000976562, -0.000976562, -0.0820312, 0.328125, -9.78906, 12.8.2021 17:47:50.985
211, 1.89, 0.419201, 177.846, -0.000976562, 0, -0.000976562, -0.0273438, 0.300781, -9.8291, 12.8.2021 17:47:50.993
212, 1.89, 0.419201, 177.846, 0.000976562, -0.000976562, 0, -0.0898438, 0.348633, -9.83594, 12.8.2021 17:47:51.001
213, 1.89, 0.419201, 177.846, -0.000976562, -0.000976562, -0.000976562, -0.0771484, 0.34082, -9.8291, 12.8.2021 17:47:51.009
214, 1.89, 0.419201, 177.846, 0.000976562, 0, -0.000976562, -0.0683594, 0.305664, -9.83496, 12.8.2021 17:47:51.017
215, 1.89, 0.419201, 177.846, 0, -0.000976562, 0, -0.110352, 0.333008, -9.80957, 12.8.2021 17:47:51.025
216, 1.89, 0.419201, 177.846, 0.000976562, -0.000976562, -0.000976562, -0.0751953, 0.300781, -9.8252, 12.8.2021 17:47:51.033
217, 1.89, 0.419201, 177.846, 0, -0.000976562, 0, -0.0556641, 0.301758, -9.80664, 12.8.2021 17:47:51.041
218, 1.89699, 0.41907, 177.846, -0.000976562, -0.000976562, 0, -0.112305, 0.344727, -9.7959, 12.8.2021 17:47:51.049
219, 1.89699, 0.41907, 177.846, 0.000976562, 0, 0, -0.0146484, 0.351562, -9.79688, 12.8.2021 17:47:51.057
220, 1.89699, 0.41907, 177.846, 0.000976562, 0, -0.000976562, -0.0927734, 0.311523, -9.86328, 12.8.2021 17:47:51.065
221, 1.89699, 0.41907, 177.846, -0.000976562, 0, -0.000976562, -0.0878906, 0.334961, -9.8623, 12.8.2021 17:47:51.073
222, 1.89699, 0.41907, 177.846, -0.000976562, -0.000976562, -0.000976562, -0.0302734, 0.327148, -9.8584, 12.8.2021 17:47:51.081
223, 1.89699, 0.41907, 177.846, -0.000976562, 0, -0.000976562, -0.078125, 0.333008, -9.8623, 12.8.2021 17:47:51.089
224, 1.89699, 0.41907, 177.846, -0.000976562, -0.000976562, 0, -0.0634766, 0.327148, -9.84863, 12.8.2021 17:47:51.097
225, 1.89686, 0.412078, 177.846, 0.000976562, -0.000976562, 0, -0.0107422, 0.319336, -9.81641, 12.8.2021 17:47:51.105
226, 1.89686, 0.412078, 177.846, -0.000976562, -0.000976562, -0.000976562, -0.123047, 0.345703, -9.83105, 12.8.2021 17:47:51.113
227, 1.89686, 0.412078, 177.846, -0.00195312, -0.000976562, 0, -0.0585938, 0.350586, -9.83203, 12.8.2021 17:47:51.121
228, 1.89686, 0.412078, 177.846, -0.000976562, -0.000976562, -0.000976562, -0.0673828, 0.326172, -9.81543, 12.8.2021 17:47:51.129
229, 1.89686, 0.412078, 177.846, -0.000976562, -0.000976562, -0.000976562, -0.100586, 0.342773, -9.80957, 12.8.2021 17:47:51.137
230, 1.89686, 0.412078, 177.846, -0.00195312, 0, -0.000976562, -0.0205078, 0.327148, -9.83789, 12.8.2021 17:47:51.145
231, 1.90385, 0.411947, 177.846, -0.00195312, 0, -0.000976562, -0.0771484, 0.287109, -9.79785, 12.8.2021 17:47:51.153
232, 1.90385, 0.411947, 177.846, -0.000976562, -0.000976562, 0, -0.111328, 0.327148, -9.8291, 12.8.2021 17:47:51.161
233, 1.90385, 0.411947, 177.846, -0.000976562, -0.000976562, 0, -0.0244141, 0.311523, -9.80469, 12.8.2021 17:47:51.169
234, 1.90385, 0.411947, 177.846, -0.000976562, -0.000976562, 0, -0.0917969, 0.3125, -9.81543, 12.8.2021 17:47:51.177
235, 1.90385, 0.411947, 177.846, -0.000976562, -0.000976562, -0.000976562, -0.0976562, 0.34082, -9.88281, 12.8.2021 17:47:51.185
236, 1.90385, 0.411947, 177.846, -0.000976562, 0, -0.000976562, -0.0664062, 0.332031, -9.85547, 12.8.2021 17:47:51.193
237, 1.90385, 0.411947, 177.846, -0.00195312, -0.000976562, 0, -0.141602, 0.345703, -9.83301, 12.8.2021 17:47:51.201
238, 1.90385, 0.411947, 177.846, -0.000976562, -0.00195312, -0.000976562, -0.0537109, 0.335938, -9.80566, 12.8.2021 17:47:51.209
239, 1.90385, 0.411947, 177.846, -0.000976562, -0.00195312, -0.000976562, -0.0693359, 0.332031, -9.77246, 12.8.2021 17:47:51.217
240, 1.90385, 0.411947, 177.846, -0.000976562, -0.000976562, 0, -0.129883, 0.34082, -9.82129, 12.8.2021 17:47:51.225
241, 1.90385, 0.411947, 177.846, -0.000976562, -0.000976562, 0.000976562, -0.0400391, 0.317383, -9.84473, 12.8.2021 17:47:51.233
242, 1.91084, 0.411816, 177.846, -0.000976562, -0.000976562, 0, -0.0654297, 0.317383, -9.84375, 12.8.2021 17:47:51.241
243, 1.91084, 0.411816, 177.846, -0.000976562, -0.000976562, -0.000976562, -0.123047, 0.339844, -9.84961, 12.8.2021 17:47:51.249
244, 1.91084, 0.411816, 177.846, 0.000976562, 0, 0, -0.0078125, 0.296875, -9.79395, 12.8.2021 17:47:51.257
245, 1.91097, 0.418808, 177.845, -0.00195312, -0.000976562, -0.000976562, -0.0849609, 0.34082, -9.83398, 12.8.2021 17:47:51.265
246, 1.91097, 0.418808, 177.845, -0.000976562, -0.000976562, -0.000976562, -0.0791016, 0.349609, -9.78418, 12.8.2021 17:47:51.273
247, 1.91097, 0.418808, 177.845, 0.000976562, -0.000976562, -0.000976562, -0.0585938, 0.305664, -9.8418, 12.8.2021 17:47:51.281
248, 1.91097, 0.418808, 177.845, 0.000976562, 0, 0, -0.137695, 0.324219, -9.83594, 12.8.2021 17:47:51.289
249, 1.91097, 0.418808, 177.845, 0.000976562, 0, 0, -0.0849609, 0.320312, -9.83887, 12.8.2021 17:47:51.297
250, 1.91097, 0.418808, 177.845, 0.000976562, -0.000976562, 0.000976562, -0.0400391, 0.305664, -9.83984, 12.8.2021 17:47:51.305
251, 1.91097, 0.418808, 177.845, -0.000976562, -0.000976562, -0.000976562, -0.101562, 0.327148, -9.83887, 12.8.2021 17:47:51.311
252, 1.91097, 0.418808, 177.845, -0.000976562, -0.000976562, -0.000976562, -0.0419922, 0.307617, -9.81934, 12.8.2021 17:47:51.321
253, 1.91097, 0.418808, 177.845, -0.000976562, -0.00195312, 0, -0.0605469, 0.294922, -9.81934, 12.8.2021 17:47:51.327
254, 1.91097, 0.418808, 177.845, -0.00195312, -0.000976562, 0, -0.103516, 0.362305, -9.82617, 12.8.2021 17:47:51.335
255, 1.9111, 0.4258, 177.845, -0.000976562, 0, 0, -0.015625, 0.331055, -9.81641, 12.8.2021 17:47:51.343
256, 1.9111, 0.4258, 177.845, -0.000976562, -0.00195312, 0, -0.118164, 0.355469, -9.81641, 12.8.2021 17:47:51.351
257, 1.9111, 0.4258, 177.845, -0.000976562, -0.000976562, -0.000976562, -0.0957031, 0.360352, -9.75781, 12.8.2021 17:47:51.359
258, 1.9111, 0.4258, 177.845, -0.000976562, 0, -0.000976562, -0.0390625, 0.318359, -9.80469, 12.8.2021 17:47:51.367
259, 1.9111, 0.4258, 177.845, -0.000976562, -0.000976562, 0, -0.112305, 0.334961, -9.78418, 12.8.2021 17:47:51.375
260, 1.9111, 0.4258, 177.845, -0.000976562, -0.000976562, 0, -0.0869141, 0.350586, -9.8291, 12.8.2021 17:47:51.383
261, 1.9111, 0.4258, 177.845, -0.000976562, -0.00195312, -0.000976562, -0.0869141, 0.3125, -9.82715, 12.8.2021 17:47:51.391
262, 1.9111, 0.4258, 177.845, -0.000976562, 0, -0.000976562, -0.118164, 0.352539, -9.82129, 12.8.2021 17:47:51.399
263, 1.9111, 0.4258, 177.845, 0, 0, -0.000976562, -0.0341797, 0.335938, -9.80664, 12.8.2021 17:47:51.407
264, 1.9111, 0.4258, 177.845, 0, 0, 0, -0.0849609, 0.304688, -9.81543, 12.8.2021 17:47:51.415
265, 1.9111, 0.4258, 177.845, 0, -0.000976562, -0.000976562, -0.0986328, 0.329102, -9.83105, 12.8.2021 17:47:51.423
266, 1.9111, 0.4258, 177.845, -0.000976562, 0, -0.000976562, -0.0224609, 0.268555, -9.81348, 12.8.2021 17:47:51.431
267, 1.9111, 0.4258, 177.845, -0.000976562, 0, 0, -0.101562, 0.322266, -9.84375, 12.8.2021 17:47:51.439
268, 1.91123, 0.432791, 177.845, 0, -0.000976562, -0.000976562, -0.0654297, 0.333984, -9.82227, 12.8.2021 17:47:51.447
269, 1.91123, 0.432791, 177.845, -0.000976562, -0.000976562, 0, -0.0224609, 0.306641, -9.81445, 12.8.2021 17:47:51.455
270, 1.91123, 0.432791, 177.845, -0.00195312, 0, -0.000976562, -0.12207, 0.344727, -9.79102, 12.8.2021 17:47:51.463
271, 1.91123, 0.432791, 177.845, 0, 0, 0, -0.078125, 0.319336, -9.83496, 12.8.2021 17:47:51.471
272, 1.91123, 0.432791, 177.845, -0.000976562, -0.000976562, 0, -0.0556641, 0.30957, -9.8252, 12.8.2021 17:47:51.479
273, 1.91123, 0.432791, 177.845, -0.000976562, -0.000976562, -0.000976562, -0.123047, 0.336914, -9.85645, 12.8.2021 17:47:51.487
274, 1.91123, 0.432791, 177.845, -0.000976562, 0, -0.000976562, -0.015625, 0.34082, -9.80859, 12.8.2021 17:47:51.495
275, 1.91123, 0.432791, 177.845, 0, 0, -0.000976562, -0.0888672, 0.311523, -9.79004, 12.8.2021 17:47:51.503
276, 1.91123, 0.432791, 177.845, -0.000976562, 0, 0, -0.0771484, 0.337891, -9.81543, 12.8.2021 17:47:51.511
277, 1.91123, 0.432791, 177.845, -0.000976562, -0.000976562, 0, -0.0410156, 0.294922, -9.7959, 12.8.2021 17:47:51.519
278, 1.91123, 0.432791, 177.845, -0.00195312, -0.000976562, -0.000976562, -0.123047, 0.314453, -9.82227, 12.8.2021 17:47:51.527
279, 1.91123, 0.432791, 177.845, -0.000976562, 0, -0.000976562, -0.0966797, 0.324219, -9.83594, 12.8.2021 17:47:51.535
280, 1.91123, 0.432791, 177.845, -0.000976562, -0.000976562, -0.000976562, -0.0400391, 0.325195, -9.85352, 12.8.2021 17:47:51.543
281, 1.91123, 0.432791, 177.845, -0.000976562, -0.000976562, 0, -0.12207, 0.333008, -9.79297, 12.8.2021 17:47:51.551
282, 1.91123, 0.432791, 177.845, -0.00195312, 0, 0, -0.0703125, 0.333008, -9.8125, 12.8.2021 17:47:51.559
283, 1.91123, 0.432791, 177.845, -0.00195312, 0, -0.000976562, -0.0585938, 0.322266, -9.84375, 12.8.2021 17:47:51.567
284, 1.91123, 0.432791, 177.845, -0.000976562, -0.000976562, -0.000976562, -0.101562, 0.333984, -9.82227, 12.8.2021 17:47:51.575
285, 1.91123, 0.432791, 177.845, -0.000976562, -0.00195312, 0, -0.0175781, 0.329102, -9.81641, 12.8.2021 17:47:51.583
286, 1.91123, 0.432791, 177.845, -0.000976562, -0.00195312, -0.000976562, -0.0683594, 0.3125, -9.83691, 12.8.2021 17:47:51.591
287, 1.91123, 0.432791, 177.845, 0.000976562, -0.00195312, -0.000976562, -0.103516, 0.348633, -9.82617, 12.8.2021 17:47:51.599
288, 1.91123, 0.432791, 177.845, 0.000976562, -0.00195312, -0.000976562, -0.0273438, 0.332031, -9.83691, 12.8.2021 17:47:51.607
289, 1.91123, 0.432791, 177.845, -0.000976562, -0.000976562, 0, -0.111328, 0.333984, -9.84082, 12.8.2021 17:47:51.615
290, 1.91123, 0.432791, 177.845, 0.000976562, -0.000976562, 0, -0.0898438, 0.324219, -9.83398, 12.8.2021 17:47:51.623
291, 1.91123, 0.432791, 177.845, -0.00195312, -0.000976562, 0, -0.0400391, 0.320312, -9.86621, 12.8.2021 17:47:51.631
292, 1.91123, 0.432791, 177.845, -0.000976562, 0, 0, -0.138672, 0.369141, -9.81055, 12.8.2021 17:47:51.639
293, 1.91123, 0.432791, 177.845, -0.00195312, -0.000976562, 0, -0.0419922, 0.348633, -9.85059, 12.8.2021 17:47:51.647
294, 1.91123, 0.432791, 177.845, -0.00195312, -0.00195312, 0, -0.0605469, 0.310547, -9.83691, 12.8.2021 17:47:51.655
295, 1.91123, 0.432791, 177.845, -0.000976562, -0.000976562, 0, -0.113281, 0.350586, -9.80957, 12.8.2021 17:47:51.663
296, 1.91136, 0.439783, 177.845, 0.000976562, -0.000976562, 0, -0.0351562, 0.302734, -9.83105, 12.8.2021 17:47:51.671
297, 1.91136, 0.439783, 177.845, 0.000976562, -0.000976562, -0.000976562, -0.0683594, 0.291016, -9.84473, 12.8.2021 17:47:51.679
298, 1.91136, 0.439783, 177.845, -0.000976562, -0.000976562, 0, -0.0976562, 0.330078, -9.86719, 12.8.2021 17:47:51.687
299, 1.91136, 0.439783, 177.845, -0.000976562, 0, 0, -0.0351562, 0.3125, -9.84961, 12.8.2021 17:47:51.695
300, 1.91123, 0.432791, 177.845, -0.000976562, -0.000976562, -0.000976562, -0.0986328, 0.295898, -9.8252, 12.8.2021 17:47:51.703
301, 1.91136, 0.439783, 177.845, -0.000976562, -0.00195312, 0, -0.0986328, 0.329102, -9.82422, 12.8.2021 17:47:51.711
302, 1.91136, 0.439783, 177.845, -0.000976562, -0.000976562, -0.000976562, -0.0292969, 0.294922, -9.79785, 12.8.2021 17:47:51.719
303, 1.91136, 0.439783, 177.845, 0.000976562, -0.000976562, -0.000976562, -0.113281, 0.351562, -9.84766, 12.8.2021 17:47:51.727
304, 1.91123, 0.432791, 177.845, -0.000976562, 0, -0.000976562, -0.0507812, 0.321289, -9.7998, 12.8.2021 17:47:51.735
305, 1.91123, 0.432791, 177.845, -0.00195312, -0.000976562, -0.000976562, -0.0576172, 0.323242, -9.79883, 12.8.2021 17:47:51.743
306, 1.91123, 0.432791, 177.845, -0.000976562, -0.000976562, -0.000976562, -0.115234, 0.359375, -9.80176, 12.8.2021 17:47:51.751
307, 1.91123, 0.432791, 177.845, -0.000976562, -0.000976562, -0.000976562, -0.0253906, 0.310547, -9.83594, 12.8.2021 17:47:51.759
308, 1.91123, 0.432791, 177.845, 0.000976562, -0.000976562, 0, -0.0410156, 0.304688, -9.79785, 12.8.2021 17:47:51.767
309, 1.90424, 0.432922, 177.845, 0.000976562, -0.00195312, 0, -0.0771484, 0.350586, -9.80957, 12.8.2021 17:47:51.775
310, 1.90424, 0.432922, 177.845, -0.000976562, -0.00195312, -0.000976562, -0.00878906, 0.324219, -9.82812, 12.8.2021 17:47:51.783
311, 1.90424, 0.432922, 177.845, -0.000976562, -0.000976562, -0.000976562, -0.105469, 0.347656, -9.80957, 12.8.2021 17:47:51.791
312, 1.90424, 0.432922, 177.845, -0.00195312, -0.000976562, 0, -0.0722656, 0.344727, -9.7959, 12.8.2021 17:47:51.799
313, 1.90424, 0.432922, 177.845, -0.00195312, -0.000976562, 0, -0.0351562, 0.322266, -9.85352, 12.8.2021 17:47:51.807
314, 1.91123, 0.432791, 177.845, -0.00195312, 0, -0.000976562, -0.132812, 0.341797, -9.85938, 12.8.2021 17:47:51.815
315, 1.91123, 0.432791, 177.845, 0, 0.000976562, 0, -0.0537109, 0.342773, -9.81055, 12.8.2021 17:47:51.823
316, 1.9111, 0.4258, 177.845, 0, 0.000976562, 0, -0.0488281, 0.324219, -9.8418, 12.8.2021 17:47:51.831
317, 1.9111, 0.4258, 177.845, 0, 0.000976562, 0, -0.100586, 0.349609, -9.78125, 12.8.2021 17:47:51.839
318, 1.9111, 0.4258, 177.845, 0.000976562, 0.000976562, -0.000976562, -0.0410156, 0.296875, -9.80273, 12.8.2021 17:47:51.847
319, 1.9111, 0.4258, 177.845, 0.000976562, 0, -0.000976562, -0.0800781, 0.316406, -9.81348, 12.8.2021 17:47:51.855
320, 1.9111, 0.4258, 177.845, -0.000976562, 0.000976562, -0.000976562, -0.0986328, 0.349609, -9.80273, 12.8.2021 17:47:51.863
321, 1.91097, 0.418808, 177.845, -0.000976562, 0.000976562, -0.000976562, -0.0195312, 0.316406, -9.80957, 12.8.2021 17:47:51.871
322, 1.91097, 0.418808, 177.845, 0, 0, 0, -0.09375, 0.34082, -9.8291, 12.8.2021 17:47:51.879
323, 1.91097, 0.418808, 177.845, -0.00195312, 0.000976562, 0, -0.0820312, 0.352539, -9.81445, 12.8.2021 17:47:51.887
324, 1.91097, 0.418808, 177.845, 0, 0.000976562, 0, -0.0410156, 0.326172, -9.81348, 12.8.2021 17:47:51.895
325, 1.91097, 0.418808, 177.845, -0.00195312, 0, 0, -0.125977, 0.325195, -9.85254, 12.8.2021 17:47:51.903
326, 1.91097, 0.418808, 177.845, -0.000976562, 0.000976562, -0.000976562, -0.0791016, 0.334961, -9.78223, 12.8.2021 17:47:51.911
327, 1.91084, 0.411816, 177.846, 0.000976562, 0.000976562, -0.000976562, -0.0703125, 0.316406, -9.81836, 12.8.2021 17:47:51.919
328, 1.91783, 0.411685, 177.846, -0.000976562, 0.000976562, -0.000976562, -0.12207, 0.347656, -9.80664, 12.8.2021 17:47:51.927
329, 1.91783, 0.411685, 177.846, 0, 0, 0, -0.0507812, 0.316406, -9.80469, 12.8.2021 17:47:51.935
330, 1.91783, 0.411685, 177.846, -0.00195312, -0.000976562, -0.000976562, -0.0898438, 0.3125, -9.83496, 12.8.2021 17:47:51.943
331, 1.91783, 0.411685, 177.846, -0.000976562, 0.000976562, -0.000976562, -0.110352, 0.333984, -9.8125, 12.8.2021 17:47:51.951
332, 1.91783, 0.411685, 177.846, 0, 0.000976562, 0, -0.00585938, 0.3125, -9.83594, 12.8.2021 17:47:51.959
333, 1.91783, 0.411685, 177.846, 0, 0, 0, -0.101562, 0.310547, -9.8457, 12.8.2021 17:47:51.967
334, 1.91783, 0.411685, 177.846, -0.000976562, 0.000976562, -0.000976562, -0.078125, 0.338867, -9.84375, 12.8.2021 17:47:51.975
335, 1.91783, 0.411685, 177.846, -0.000976562, -0.000976562, -0.00195312, -0.0371094, 0.307617, -9.84277, 12.8.2021 17:47:51.983
336, 1.91783, 0.411685, 177.846, -0.000976562, 0, -0.000976562, -0.125, 0.326172, -9.80762, 12.8.2021 17:47:51.991
337, 1.91783, 0.411685, 177.846, -0.000976562, 0.000976562, -0.000976562, -0.0361328, 0.328125, -9.79004, 12.8.2021 17:47:51.999
338, 1.91783, 0.411685, 177.846, 0, 0, 0, -0.0429688, 0.322266, -9.77344, 12.8.2021 17:47:52.007
339, 1.91783, 0.411685, 177.846, 0, 0, 0, -0.113281, 0.333984, -9.83594, 12.8.2021 17:47:52.015
340, 1.91783, 0.411685, 177.846, -0.000976562, 0, -0.000976562, -0.0488281, 0.30957, -9.80176, 12.8.2021 17:47:52.023
341, 1.91783, 0.411685, 177.846, -0.00195312, 0, -0.00195312, -0.0605469, 0.30957, -9.83008, 12.8.2021 17:47:52.031
342, 1.91783, 0.411685, 177.846, -0.000976562, 0.000976562, -0.00195312, -0.0888672, 0.360352, -9.82422, 12.8.2021 17:47:52.039
343, 1.91783, 0.411685, 177.846, -0.000976562, 0, -0.000976562, -0.0419922, 0.307617, -9.82812, 12.8.2021 17:47:52.047
344, 1.91783, 0.411685, 177.846, -0.00195312, 0, -0.000976562, -0.118164, 0.327148, -9.85449, 12.8.2021 17:47:52.055
345, 1.91783, 0.411685, 177.846, 0, 0.000976562, 0, -0.0830078, 0.317383, -9.8418, 12.8.2021 17:47:52.063
346, 1.91783, 0.411685, 177.846, 0, -0.000976562, -0.000976562, -0.0253906, 0.310547, -9.85938, 12.8.2021 17:47:52.071
347, 1.91783, 0.411685, 177.846, 0.000976562, -0.000976562, 0, -0.138672, 0.339844, -9.79785, 12.8.2021 17:47:52.079
348, 1.91783, 0.411685, 177.846, 0.000976562, 0, 0, -0.0585938, 0.333008, -9.81348, 12.8.2021 17:47:52.087
349, 1.91783, 0.411685, 177.846, 0, -0.00195312, -0.000976562, -0.046875, 0.30957, -9.82812, 12.8.2021 17:47:52.095
350, 1.91796, 0.418677, 177.845, 0, -0.000976562, -0.000976562, -0.12207, 0.349609, -9.79785, 12.8.2021 17:47:52.103
351, 1.91796, 0.418677, 177.845, 0, -0.000976562, -0.00195312, -0.0390625, 0.328125, -9.80859, 12.8.2021 17:47:52.111
352, 1.91097, 0.418808, 177.845, 0, -0.000976562, -0.000976562, -0.0820312, 0.337891, -9.81055, 12.8.2021 17:47:52.119
353, 1.91097, 0.418808, 177.845, 0, -0.000976562, 0, -0.105469, 0.314453, -9.8125, 12.8.2021 17:47:52.127
354, 1.91097, 0.418808, 177.845, 0, -0.000976562, -0.000976562, 0.00585938, 0.295898, -9.84082, 12.8.2021 17:47:52.135
355, 1.91097, 0.418808, 177.845, 0, -0.000976562, 0, -0.101562, 0.338867, -9.84082, 12.8.2021 17:47:52.143
356, 1.91097, 0.418808, 177.845, 0.000976562, 0, -0.000976562, -0.0654297, 0.328125, -9.79688, 12.8.2021 17:47:52.151
357, 1.91097, 0.418808, 177.845, 0, 0, -0.000976562, -0.0107422, 0.335938, -9.81836, 12.8.2021 17:47:52.159
358, 1.91097, 0.418808, 177.845, 0, -0.000976562, -0.000976562, -0.118164, 0.348633, -9.82812, 12.8.2021 17:47:52.167
359, 1.91097, 0.418808, 177.845, 0, -0.000976562, 0, -0.0595703, 0.334961, -9.87012, 12.8.2021 17:47:52.175
360, 1.91097, 0.418808, 177.845, 0.000976562, -0.000976562, -0.000976562, -0.0566406, 0.310547, -9.83301, 12.8.2021 17:47:52.183
361, 1.91097, 0.418808, 177.845, 0.000976562, -0.000976562, -0.000976562, -0.103516, 0.358398, -9.83301, 12.8.2021 17:47:52.191
362, 1.91097, 0.418808, 177.845, 0, 0, -0.000976562, -0.0185547, 0.322266, -9.83984, 12.8.2021 17:47:52.199
363, 1.91097, 0.418808, 177.845, 0, -0.000976562, -0.000976562, -0.0732422, 0.344727, -9.85742, 12.8.2021 17:47:52.207
364, 1.91097, 0.418808, 177.845, 0.000976562, -0.000976562, 0, -0.103516, 0.334961, -9.79102, 12.8.2021 17:47:52.215
365, 1.91097, 0.418808, 177.845, 0, 0, 0, -0.0107422, 0.317383, -9.83301, 12.8.2021 17:47:52.223
366, 1.91097, 0.418808, 177.845, 0, -0.000976562, 0, -0.0742188, 0.333008, -9.7959, 12.8.2021 17:47:52.231
367, 1.91097, 0.418808, 177.845, -0.00195312, -0.000976562, -0.000976562, -0.0439453, 0.349609, -9.80566, 12.8.2021 17:47:52.239
368, 1.91084, 0.411816, 177.846, 0, -0.00195312, 0, -0.0273438, 0.332031, -9.83496, 12.8.2021 17:47:52.247
369, 1.91084, 0.411816, 177.846, 0, -0.000976562, -0.000976562, -0.118164, 0.365234, -9.83301, 12.8.2021 17:47:52.255
370, 1.91084, 0.411816, 177.846, 0, -0.000976562, -0.000976562, -0.0673828, 0.313477, -9.79688, 12.8.2021 17:47:52.263
371, 1.91084, 0.411816, 177.846, 0, -0.000976562, -0.000976562, -0.0585938, 0.314453, -9.83008, 12.8.2021 17:47:52.271
372, 1.91783, 0.411685, 177.846, 0, -0.000976562, 0, -0.113281, 0.341797, -9.83789, 12.8.2021 17:47:52.279
373, 1.91783, 0.411685, 177.846, 0, 0, 0, -0.046875, 0.34668, -9.84375, 12.8.2021 17:47:52.287
374, 1.91783, 0.411685, 177.846, 0, -0.000976562, 0, -0.0683594, 0.341797, -9.83887, 12.8.2021 17:47:52.293
375, 1.91783, 0.411685, 177.846, 0.000976562, -0.000976562, -0.000976562, -0.0839844, 0.307617, -9.81348, 12.8.2021 17:47:52.301
376, 1.91783, 0.411685, 177.846, 0, -0.000976562, -0.000976562, -0.0488281, 0.30957, -9.80664, 12.8.2021 17:47:52.309
377, 1.91783, 0.411685, 177.846, 0, -0.000976562, 0, -0.113281, 0.313477, -9.84863, 12.8.2021 17:47:52.317
378, 1.91783, 0.411685, 177.846, -0.000976562, -0.000976562, 0, -0.0722656, 0.324219, -9.82715, 12.8.2021 17:47:52.327
379, 1.9177, 0.404693, 177.846, -0.000976562, -0.000976562, 0, -0.046875, 0.333984, -9.82324, 12.8.2021 17:47:52.333
380, 1.9177, 0.404693, 177.846, 0, -0.000976562, 0, -0.126953, 0.337891, -9.7998, 12.8.2021 17:47:52.341
381, 1.9177, 0.404693, 177.846, 0, -0.000976562, 0, -0.0605469, 0.300781, -9.83105, 12.8.2021 17:47:52.349
382, 1.9177, 0.404693, 177.846, -0.000976562, -0.000976562, 0, -0.0664062, 0.31543, -9.86523, 12.8.2021 17:47:52.357
383, 1.9177, 0.404693, 177.846, -0.000976562, -0.000976562, 0, -0.106445, 0.352539, -9.82324, 12.8.2021 17:47:52.365
384, 1.9177, 0.404693, 177.846, -0.000976562, -0.000976562, 0, -0.0224609, 0.333984, -9.83301, 12.8.2021 17:47:52.373
385, 1.9177, 0.404693, 177.846, -0.000976562, -0.00195312, 0, -0.0771484, 0.327148, -9.83203, 12.8.2021 17:47:52.381
386, 1.9177, 0.404693, 177.846, 0, 0, -0.000976562, -0.100586, 0.339844, -9.7959, 12.8.2021 17:47:52.389
387, 1.9177, 0.404693, 177.846, -0.000976562, 0, -0.000976562, -0.0244141, 0.292969, -9.81055, 12.8.2021 17:47:52.397
388, 1.9177, 0.404693, 177.846, -0.000976562, 0, 0, -0.0751953, 0.332031, -9.83691, 12.8.2021 17:47:52.405
389, 1.9177, 0.404693, 177.846, 0, -0.000976562, -0.00195312, -0.0556641, 0.3125, -9.82324, 12.8.2021 17:47:52.413
390, 1.9177, 0.404693, 177.846, 0, -0.000976562, -0.000976562, -0.0273438, 0.301758, -9.8125, 12.8.2021 17:47:52.421
391, 1.9177, 0.404693, 177.846, 0, -0.000976562, 0, -0.118164, 0.345703, -9.82324, 12.8.2021 17:47:52.429
392, 1.9177, 0.404693, 177.846, 0, -0.00195312, -0.000976562, -0.0439453, 0.333008, -9.81348, 12.8.2021 17:47:52.437
393, 1.9177, 0.404693, 177.846, 0, -0.000976562, 0, -0.0419922, 0.329102, -9.82031, 12.8.2021 17:47:52.445
394, 1.9177, 0.404693, 177.846, 0, -0.000976562, 0, -0.121094, 0.339844, -9.84961, 12.8.2021 17:47:52.453
395, 1.9177, 0.404693, 177.846, -0.000976562, 0, 0, -0.0371094, 0.307617, -9.83301, 12.8.2021 17:47:52.461
396, 1.9177, 0.404693, 177.846, -0.000976562, 0, 0, -0.0898438, 0.319336, -9.83203, 12.8.2021 17:47:52.469
397, 1.9177, 0.404693, 177.846, 0, 0, 0, -0.112305, 0.339844, -9.79102, 12.8.2021 17:47:52.477
398, 1.9177, 0.404693, 177.846, -0.000976562, 0, 0, -0.0146484, 0.301758, -9.78613, 12.8.2021 17:47:52.485
399, 1.9177, 0.404693, 177.846, 0, -0.000976562, 0, -0.111328, 0.322266, -9.83594, 12.8.2021 17:47:52.493
400, 1.9177, 0.404693, 177.846, 0, 0, 0, -0.0771484, 0.34082, -9.80566, 12.8.2021 17:47:52.501
401, 1.91071, 0.404824, 177.846, -0.000976562, -0.000976562, -0.000976562, -0.0615234, 0.310547, -9.84473, 12.8.2021 17:47:52.509
402, 1.91071, 0.404824, 177.846, -0.000976562, -0.000976562, 0, -0.12793, 0.332031, -9.8291, 12.8.2021 17:47:52.517
403, 1.91071, 0.404824, 177.846, -0.00195312, 0, 0, -0.0556641, 0.319336, -9.81641, 12.8.2021 17:47:52.525
404, 1.91071, 0.404824, 177.846, -0.00195312, -0.000976562, -0.000976562, -0.0615234, 0.310547, -9.86133, 12.8.2021 17:47:52.533
405, 1.91071, 0.404824, 177.846, -0.000976562, -0.000976562, -0.000976562, -0.125977, 0.339844, -9.85449, 12.8.2021 17:47:52.541
406, 1.91071, 0.404824, 177.846, -0.000976562, -0.000976562, -0.000976562, -0.0371094, 0.344727, -9.86035, 12.8.2021 17:47:52.549
407, 1.91071, 0.404824, 177.846, -0.000976562, 0, 0, -0.0634766, 0.347656, -9.82422, 12.8.2021 17:47:52.557
408, 1.91071, 0.404824, 177.846, -0.000976562, 0, 0, -0.078125, 0.358398, -9.84961, 12.8.2021 17:47:52.565
409, 1.91071, 0.404824, 177.846, 0, 0, 0, -0.0292969, 0.306641, -9.80762, 12.8.2021 17:47:52.573
410, 1.91071, 0.404824, 177.846, 0, 0, -0.000976562, -0.115234, 0.329102, -9.83105, 12.8.2021 17:47:52.581
411, 1.91071, 0.404824, 177.846, -0.000976562, -0.000976562, -0.000976562, -0.0683594, 0.34375, -9.82422, 12.8.2021 17:47:52.589
412, 1.91071, 0.404824, 177.846, -0.000976562, -0.000976562, 0, -0.0419922, 0.322266, -9.84961, 12.8.2021 17:47:52.597
413, 1.91071, 0.404824, 177.846, -0.000976562, -0.000976562, -0.000976562, -0.141602, 0.353516, -9.8252, 12.8.2021 17:47:52.605
414, 1.91071, 0.404824, 177.846, -0.000976562, -0.000976562, -0.000976562, -0.0390625, 0.317383, -9.82617, 12.8.2021 17:47:52.613
415, 1.91071, 0.404824, 177.846, -0.000976562, 0, 0, -0.0800781, 0.305664, -9.8418, 12.8.2021 17:47:52.621
416, 1.91071, 0.404824, 177.846, -0.000976562, 0, 0, -0.0888672, 0.367188, -9.81836, 12.8.2021 17:47:52.629
417, 1.91071, 0.404824, 177.846, 0, 0, 0, -0.0253906, 0.298828, -9.85449, 12.8.2021 17:47:52.637
418, 1.91071, 0.404824, 177.846, 0.000976562, 0, -0.000976562, -0.0722656, 0.304688, -9.79688, 12.8.2021 17:47:52.645
419, 1.91071, 0.404824, 177.846, 0, 0, 0, -0.0898438, 0.345703, -9.83398, 12.8.2021 17:47:52.653
420, 1.91071, 0.404824, 177.846, -0.000976562, 0, 0, -0.0292969, 0.329102, -9.8252, 12.8.2021 17:47:52.661
421, 1.91071, 0.404824, 177.846, -0.000976562, 0, 0, -0.0849609, 0.34082, -9.8291, 12.8.2021 17:47:52.669
422, 1.9177, 0.404693, 177.846, -0.00195312, -0.000976562, 0, -0.0839844, 0.316406, -9.79004, 12.8.2021 17:47:52.677
423, 1.9177, 0.404693, 177.846, -0.000976562, -0.000976562, 0, -0.0205078, 0.299805, -9.81934, 12.8.2021 17:47:52.685
424, 1.9177, 0.404693, 177.846, -0.000976562, 0, 0, -0.129883, 0.317383, -9.82617, 12.8.2021 17:47:52.693
425, 1.9177, 0.404693, 177.846, 0, -0.000976562, 0, -0.0751953, 0.319336, -9.81348, 12.8.2021 17:47:52.701
426, 1.9177, 0.404693, 177.846, 0, -0.000976562, -0.000976562, -0.0732422, 0.319336, -9.83008, 12.8.2021 17:47:52.709
427, 1.91783, 0.411685, 177.846, -0.00195312, 0, 0, -0.139648, 0.345703, -9.83301, 12.8.2021 17:47:52.717
428, 1.91783, 0.411685, 177.846, -0.000976562, -0.000976562, 0, -0.0273438, 0.317383, -9.82617, 12.8.2021 17:47:52.725
429, 1.91783, 0.411685, 177.846, -0.000976562, 0, 0, -0.0683594, 0.322266, -9.83691, 12.8.2021 17:47:52.733
430, 1.91785, 0.411569, 177.839, 0, -0.000976562, 0, -0.0820312, 0.333008, -9.80371, 12.8.2021 17:47:52.741
431, 1.91785, 0.411569, 177.839, -0.000976562, -0.000976562, 0, -0.0175781, 0.314453, -9.82129, 12.8.2021 17:47:52.749
432, 1.91785, 0.411569, 177.839, -0.000976562, 0, 0, -0.108398, 0.322266, -9.82227, 12.8.2021 17:47:52.757
433, 1.91785, 0.411569, 177.839, -0.000976562, 0, -0.000976562, -0.0800781, 0.342773, -9.81934, 12.8.2021 17:47:52.765
434, 1.91785, 0.411569, 177.839, -0.000976562, 0, -0.000976562, -0.0449219, 0.325195, -9.85352, 12.8.2021 17:47:52.773
435, 1.91785, 0.411569, 177.839, -0.000976562, -0.000976562, 0, -0.118164, 0.318359, -9.85742, 12.8.2021 17:47:52.781
436, 1.91785, 0.411569, 177.839, -0.000976562, -0.000976562, 0, -0.0634766, 0.34375, -9.82422, 12.8.2021 17:47:52.789
437, 1.91086, 0.4117, 177.839, -0.000976562, -0.000976562, 0, -0.0605469, 0.3125, -9.83496, 12.8.2021 17:47:52.797
438, 1.91785, 0.411569, 177.839, -0.00195312, -0.000976562, -0.000976562, -0.0986328, 0.331055, -9.82715, 12.8.2021 17:47:52.805
439, 1.91785, 0.411569, 177.839, 0, 0, 0, -0.0205078, 0.320312, -9.84961, 12.8.2021 17:47:52.813
440, 1.91086, 0.4117, 177.839, -0.000976562, 0, 0, -0.0849609, 0.302734, -9.83008, 12.8.2021 17:47:52.821
441, 1.91086, 0.4117, 177.839, -0.000976562, -0.000976562, -0.000976562, -0.108398, 0.320312, -9.8457, 12.8.2021 17:47:52.829
442, 1.91084, 0.411816, 177.846, -0.00195312, -0.000976562, -0.000976562, -0.0566406, 0.300781, -9.83984, 12.8.2021 17:47:52.837
443, 1.91084, 0.411816, 177.846, -0.00195312, 0, 0, -0.132812, 0.339844, -9.85449, 12.8.2021 17:47:52.845
444, 1.91084, 0.411816, 177.846, -0.000976562, 0, 0, -0.0605469, 0.295898, -9.83496, 12.8.2021 17:47:52.853
445, 1.91084, 0.411816, 177.846, -0.00195312, 0, -0.000976562, -0.0488281, 0.299805, -9.81445, 12.8.2021 17:47:52.861
446, 1.91084, 0.411816, 177.846, -0.000976562, -0.000976562, 0, -0.125, 0.342773, -9.80957, 12.8.2021 17:47:52.869
447, 1.91084, 0.411816, 177.846, 0, -0.000976562, -0.000976562, -0.0722656, 0.335938, -9.80371, 12.8.2021 17:47:52.877
448, 1.91097, 0.418808, 177.845, -0.000976562, 0, 0, -0.0771484, 0.3125, -9.82324, 12.8.2021 17:47:52.885
449, 1.91097, 0.418808, 177.845, -0.00195312, -0.000976562, -0.000976562, -0.132812, 0.325195, -9.8457, 12.8.2021 17:47:52.893
450, 1.91097, 0.418808, 177.845, -0.000976562, -0.000976562, -0.000976562, -0.0566406, 0.3125, -9.83301, 12.8.2021 17:47:52.901
451, 1.91097, 0.418808, 177.845, -0.000976562, -0.000976562, 0, -0.0732422, 0.324219, -9.83691, 12.8.2021 17:47:52.909
452, 1.91097, 0.418808, 177.845, -0.00195312, 0, -0.000976562, -0.118164, 0.330078, -9.84277, 12.8.2021 17:47:52.917
453, 1.90398, 0.418939, 177.846, -0.000976562, -0.000976562, -0.000976562, -0.0361328, 0.318359, -9.78516, 12.8.2021 17:47:52.925
454, 1.90411, 0.425931, 177.845, -0.000976562, -0.000976562, -0.000976562, -0.125, 0.332031, -9.84082, 12.8.2021 17:47:52.933
455, 1.90411, 0.425931, 177.845, -0.00195312, -0.000976562, -0.000976562, -0.0820312, 0.3125, -9.81836, 12.8.2021 17:47:52.941
456, 1.90411, 0.425931, 177.845, -0.000976562, -0.000976562, -0.000976562, -0.0507812, 0.283203, -9.80762, 12.8.2021 17:47:52.949
457, 1.90411, 0.425931, 177.845, -0.000976562, -0.000976562, 0, -0.105469, 0.333984, -9.81445, 12.8.2021 17:47:52.957
458, 1.90411, 0.425931, 177.845, 0, -0.000976562, -0.000976562, -0.0419922, 0.333984, -9.84668, 12.8.2021 17:47:52.965
459, 1.90424, 0.432922, 177.845, -0.000976562, -0.00195312, 0, -0.0654297, 0.331055, -9.81543, 12.8.2021 17:47:52.973
460, 1.90424, 0.432922, 177.845, -0.000976562, -0.00195312, -0.000976562, -0.0751953, 0.34082, -9.81738, 12.8.2021 17:47:52.981
461, 1.90424, 0.432922, 177.845, -0.00195312, -0.00195312, -0.000976562, -0.0107422, 0.316406, -9.81934, 12.8.2021 17:47:52.989
462, 1.89725, 0.433053, 177.845, -0.00195312, -0.000976562, -0.000976562, -0.0654297, 0.305664, -9.83008, 12.8.2021 17:47:52.997
463, 1.89725, 0.433053, 177.845, -0.000976562, -0.000976562, 0, -0.0830078, 0.361328, -9.85645, 12.8.2021 17:47:53.005
464, 1.89738, 0.440045, 177.845, -0.000976562, -0.000976562, -0.000976562, -0.0126953, 0.318359, -9.80762, 12.8.2021 17:47:53.013
465, 1.89738, 0.440045, 177.845, -0.00195312, -0.000976562, 0, -0.108398, 0.34082, -9.8125, 12.8.2021 17:47:53.021
466, 1.89738, 0.440045, 177.845, -0.00195312, 0, -0.000976562, -0.0869141, 0.316406, -9.79395, 12.8.2021 17:47:53.029
467, 1.89725, 0.433053, 177.845, -0.000976562, -0.000976562, 0, -0.0371094, 0.319336, -9.80957, 12.8.2021 17:47:53.037
468, 1.89725, 0.433053, 177.845, 0, 0, -0.000976562, -0.113281, 0.332031, -9.84766, 12.8.2021 17:47:53.045
469, 1.89725, 0.433053, 177.845, -0.000976562, -0.000976562, 0, -0.0273438, 0.326172, -9.82324, 12.8.2021 17:47:53.053
470, 1.89725, 0.433053, 177.845, -0.000976562, -0.000976562, 0, -0.0341797, 0.316406, -9.81641, 12.8.2021 17:47:53.061
471, 1.89725, 0.433053, 177.845, 0, -0.000976562, 0, -0.0947266, 0.34375, -9.83594, 12.8.2021 17:47:53.069
472, 1.89725, 0.433053, 177.845, -0.000976562, -0.000976562, 0, -0.0253906, 0.3125, -9.83789, 12.8.2021 17:47:53.077
473, 1.89725, 0.433053, 177.845, 0, -0.000976562, 0, -0.0751953, 0.319336, -9.80664, 12.8.2021 17:47:53.085
474, 1.89725, 0.433053, 177.845, 0.000976562, -0.000976562, 0, -0.110352, 0.337891, -9.7959, 12.8.2021 17:47:53.093
475, 1.89725, 0.433053, 177.845, -0.000976562, -0.000976562, -0.000976562, -0.0390625, 0.297852, -9.82422, 12.8.2021 17:47:53.101
476, 1.89725, 0.433053, 177.845, -0.000976562, -0.000976562, 0, -0.0849609, 0.310547, -9.83691, 12.8.2021 17:47:53.109
477, 1.89712, 0.426062, 177.845, -0.000976562, -0.000976562, 0, -0.0722656, 0.338867, -9.82422, 12.8.2021 17:47:53.117
478, 1.89712, 0.426062, 177.845, 0, -0.000976562, 0, -0.046875, 0.298828, -9.87305, 12.8.2021 17:47:53.125
479, 1.89712, 0.426062, 177.845, 0, -0.000976562, 0, -0.125977, 0.330078, -9.85938, 12.8.2021 17:47:53.133
480, 1.89712, 0.426062, 177.845, 0, -0.000976562, 0, -0.0537109, 0.326172, -9.81348, 12.8.2021 17:47:53.141
481, 1.89712, 0.426062, 177.845, 0, -0.000976562, 0, -0.046875, 0.308594, -9.85645, 12.8.2021 17:47:53.149
482, 1.89712, 0.426062, 177.845, 0, -0.000976562, 0, -0.108398, 0.345703, -9.81445, 12.8.2021 17:47:53.157
483, 1.89712, 0.426062, 177.845, 0, 0, 0, -0.0205078, 0.3125, -9.83105, 12.8.2021 17:47:53.165
484, 1.89699, 0.41907, 177.846, -0.000976562, -0.000976562, 0, -0.0966797, 0.3125, -9.8252, 12.8.2021 17:47:53.173
485, 1.89699, 0.41907, 177.846, 0, -0.000976562, 0, -0.0917969, 0.338867, -9.81934, 12.8.2021 17:47:53.181
486, 1.89699, 0.41907, 177.846, 0, -0.000976562, 0, -0.0273438, 0.3125, -9.82324, 12.8.2021 17:47:53.189
487, 1.89699, 0.41907, 177.846, 0.000976562, 0, -0.000976562, -0.0849609, 0.333984, -9.83398, 12.8.2021 17:47:53.197
488, 1.89699, 0.41907, 177.846, 0, -0.000976562, -0.00195312, -0.0771484, 0.34375, -9.83594, 12.8.2021 17:47:53.205
489, 1.89699, 0.41907, 177.846, 0, 0, -0.000976562, -0.0107422, 0.333984, -9.83984, 12.8.2021 17:47:53.213
490, 1.89699, 0.41907, 177.846, 0.000976562, -0.000976562, -0.000976562, -0.125, 0.326172, -9.82129, 12.8.2021 17:47:53.221
491, 1.89686, 0.412078, 177.846, 0, -0.00195312, 0, -0.0458984, 0.341797, -9.77051, 12.8.2021 17:47:53.229
492, 1.89686, 0.412078, 177.846, 0, 0, 0, -0.0634766, 0.345703, -9.82715, 12.8.2021 17:47:53.237
493, 1.89686, 0.412078, 177.846, 0, 0, -0.000976562, -0.103516, 0.345703, -9.83594, 12.8.2021 17:47:53.245
494, 1.89686, 0.412078, 177.846, -0.000976562, -0.000976562, 0, -0.0224609, 0.304688, -9.82617, 12.8.2021 17:47:53.251
495, 1.89686, 0.412078, 177.846, 0, 0, 0, -0.0849609, 0.319336, -9.82715, 12.8.2021 17:47:53.259
496, 1.89686, 0.412078, 177.846, 0, -0.000976562, 0, -0.0751953, 0.347656, -9.82422, 12.8.2021 17:47:53.267
497, 1.89686, 0.412078, 177.846, -0.000976562, -0.000976562, -0.000976562, -0.0205078, 0.291016, -9.82227, 12.8.2021 17:47:53.275
498, 1.89686, 0.412078, 177.846, 0.000976562, -0.000976562, -0.000976562, -0.0996094, 0.329102, -9.84082, 12.8.2021 17:47:53.283
499, 1.89673, 0.405087, 177.846, -0.000976562, -0.000976562, 0, -0.0839844, 0.335938, -9.80566, 12.8.2021 17:47:53.291
500, 1.89673, 0.405087, 177.846, 0, 0, 0, -0.0419922, 0.289062, -9.83789, 12.8.2021 17:47:53.299
501, 1.89673, 0.405087, 177.846, 0, 0, 0, -0.113281, 0.356445, -9.85645, 12.8.2021 17:47:53.307
502, 1.89673, 0.405087, 177.846, 0, -0.000976562, 0, -0.0537109, 0.336914, -9.85352, 12.8.2021 17:47:53.315
503, 1.89673, 0.405087, 177.846, 0, -0.000976562, 0, -0.0703125, 0.307617, -9.83691, 12.8.2021 17:47:53.323
504, 1.89673, 0.405087, 177.846, 0, -0.000976562, -0.000976562, -0.136719, 0.314453, -9.81738, 12.8.2021 17:47:53.331
505, 1.89673, 0.405087, 177.846, 0.000976562, -0.000976562, 0, -0.0166016, 0.301758, -9.86426, 12.8.2021 17:47:53.339
506, 1.89673, 0.405087, 177.846, 0, -0.000976562, 0, -0.0703125, 0.317383, -9.83691, 12.8.2021 17:47:53.347
507, 1.89673, 0.405087, 177.846, 0, -0.000976562, -0.000976562, -0.0820312, 0.350586, -9.81445, 12.8.2021 17:47:53.355
508, 1.89673, 0.405087, 177.846, 0, -0.000976562, 0, -0.03125, 0.339844, -9.79004, 12.8.2021 17:47:53.363
509, 1.89673, 0.405087, 177.846, 0, 0, 0, -0.0917969, 0.345703, -9.82129, 12.8.2021 17:47:53.371
510, 1.89675, 0.404971, 177.839, 0, 0, 0, -0.0634766, 0.329102, -9.83203, 12.8.2021 17:47:53.379
511, 1.89675, 0.404971, 177.839, 0, 0, 0, -0.0400391, 0.303711, -9.84961, 12.8.2021 17:47:53.387
512, 1.89662, 0.39798, 177.839, 0, 0, 0, -0.151367, 0.333984, -9.81152, 12.8.2021 17:47:53.395
513, 1.89662, 0.39798, 177.839, 0, 0, 0, -0.0439453, 0.300781, -9.83105, 12.8.2021 17:47:53.403
514, 1.89662, 0.39798, 177.839, 0, 0, 0, -0.0634766, 0.317383, -9.82031, 12.8.2021 17:47:53.411
515, 1.89662, 0.39798, 177.839, 0, -0.000976562, 0, -0.106445, 0.348633, -9.82617, 12.8.2021 17:47:53.419
516, 1.89662, 0.39798, 177.839, 0, -0.000976562, 0, -0.0292969, 0.306641, -9.80957, 12.8.2021 17:47:53.427
517, 1.89662, 0.39798, 177.839, 0.000976562, -0.000976562, -0.000976562, -0.0820312, 0.324219, -9.82031, 12.8.2021 17:47:53.435
518, 1.89662, 0.39798, 177.839, 0, -0.000976562, 0, -0.0908203, 0.352539, -9.80078, 12.8.2021 17:47:53.443
519, 1.89662, 0.39798, 177.839, 0.000976562, -0.000976562, 0, -0.0175781, 0.302734, -9.83105, 12.8.2021 17:47:53.451
520, 1.89662, 0.39798, 177.839, 0.000976562, -0.000976562, 0, -0.0800781, 0.336914, -9.84082, 12.8.2021 17:47:53.459
521, 1.89662, 0.39798, 177.839, 0.000976562, 0, 0, -0.0732422, 0.333984, -9.83203, 12.8.2021 17:47:53.467
522, 1.89662, 0.39798, 177.839, 0, 0, -0.000976562, -0.0302734, 0.30957, -9.83301, 12.8.2021 17:47:53.475
523, 1.89662, 0.39798, 177.839, 0, -0.000976562, 0, -0.131836, 0.345703, -9.81836, 12.8.2021 17:47:53.483
524, 1.89662, 0.39798, 177.839, 0, -0.000976562, 0, -0.0507812, 0.335938, -9.80176, 12.8.2021 17:47:53.491
525, 1.89662, 0.39798, 177.839, 0.000976562, 0, 0, -0.0654297, 0.310547, -9.83691, 12.8.2021 17:47:53.499
526, 1.89662, 0.39798, 177.839, 0, -0.000976562, -0.00195312, -0.0986328, 0.319336, -9.82031, 12.8.2021 17:47:53.507
527, 1.89662, 0.39798, 177.839, 0, -0.000976562, 0, -0.0322266, 0.295898, -9.83398, 12.8.2021 17:47:53.515
528, 1.89662, 0.39798, 177.839, 0, -0.000976562, 0, -0.09375, 0.317383, -9.82031, 12.8.2021 17:47:53.523
529, 1.89662, 0.39798, 177.839, -0.000976562, -0.000976562, 0, -0.0888672, 0.335938, -9.79883, 12.8.2021 17:47:53.531
530, 1.89662, 0.39798, 177.839, 0.000976562, -0.000976562, 0, -0.0302734, 0.310547, -9.84277, 12.8.2021 17:47:53.539
531, 1.89662, 0.39798, 177.839, 0.000976562, -0.000976562, -0.000976562, -0.115234, 0.333984, -9.8125, 12.8.2021 17:47:53.547
532, 1.89662, 0.39798, 177.839, 0, 0, -0.000976562, -0.0751953, 0.322266, -9.83691, 12.8.2021 17:47:53.555
533, 1.89662, 0.39798, 177.839, 0.000976562, 0, -0.000976562, -0.0439453, 0.304688, -9.7998, 12.8.2021 17:47:53.563
534, 1.89662, 0.39798, 177.839, 0.000976562, -0.000976562, -0.000976562, -0.139648, 0.34668, -9.84473, 12.8.2021 17:47:53.571
535, 1.8966, 0.398095, 177.846, 0, -0.000976562, -0.000976562, -0.0341797, 0.326172, -9.8252, 12.8.2021 17:47:53.579
536, 1.89673, 0.405087, 177.846, -0.000976562, -0.000976562, -0.000976562, -0.0654297, 0.332031, -9.8418, 12.8.2021 17:47:53.587
537, 1.89673, 0.405087, 177.846, 0, 0, -0.000976562, -0.103516, 0.34375, -9.83594, 12.8.2021 17:47:53.595
538, 1.89673, 0.405087, 177.846, -0.000976562, 0, -0.000976562, -0.0302734, 0.334961, -9.85352, 12.8.2021 17:47:53.603
539, 1.89673, 0.405087, 177.846, 0, 0, -0.000976562, -0.0996094, 0.320312, -9.86523, 12.8.2021 17:47:53.611
540, 1.89673, 0.405087, 177.846, 0, 0, -0.000976562, -0.108398, 0.317383, -9.81738, 12.8.2021 17:47:53.619
541, 1.89673, 0.405087, 177.846, 0, -0.00195312, -0.000976562, -0.0292969, 0.311523, -9.81152, 12.8.2021 17:47:53.627
542, 1.89673, 0.405087, 177.846, -0.000976562, -0.00195312, -0.000976562, -0.0917969, 0.322266, -9.84863, 12.8.2021 17:47:53.635
543, 1.89673, 0.405087, 177.846, -0.000976562, -0.000976562, 0, -0.0566406, 0.336914, -9.83691, 12.8.2021 17:47:53.643
544, 1.89673, 0.405087, 177.846, 0, -0.000976562, 0, -0.0419922, 0.293945, -9.84082, 12.8.2021 17:47:53.651
545, 1.89673, 0.405087, 177.846, -0.000976562, 0, -0.000976562, -0.12793, 0.327148, -9.84277, 12.8.2021 17:47:53.659
546, 1.89673, 0.405087, 177.846, -0.000976562, 0, 0, -0.0585938, 0.311523, -9.81348, 12.8.2021 17:47:53.667
547, 1.89673, 0.405087, 177.846, -0.00195312, -0.000976562, 0, -0.0527344, 0.328125, -9.79004, 12.8.2021 17:47:53.675
548, 1.89673, 0.405087, 177.846, -0.000976562, -0.000976562, -0.000976562, -0.111328, 0.330078, -9.85059, 12.8.2021 17:47:53.683
549, 1.89673, 0.405087, 177.846, -0.000976562, 0, -0.000976562, -0.00878906, 0.325195, -9.84961, 12.8.2021 17:47:53.691
550, 1.89673, 0.405087, 177.846, -0.000976562, -0.000976562, 0, -0.0771484, 0.321289, -9.82031, 12.8.2021 17:47:53.699
551, 1.89686, 0.412078, 177.846, -0.000976562, 0, -0.000976562, -0.0820312, 0.350586, -9.84082, 12.8.2021 17:47:53.707
552, 1.89686, 0.412078, 177.846, -0.000976562, 0, 0, -0.0439453, 0.333008, -9.81152, 12.8.2021 17:47:53.715
553, 1.89673, 0.405087, 177.846, -0.000976562, 0, 0, -0.0800781, 0.30957, -9.81152, 12.8.2021 17:47:53.723
554, 1.89673, 0.405087, 177.846, 0, -0.000976562, -0.000976562, -0.0839844, 0.334961, -9.78711, 12.8.2021 17:47:53.731
555, 1.89673, 0.405087, 177.846, 0, 0, 0, -0.0439453, 0.321289, -9.80859, 12.8.2021 17:47:53.739
556, 1.89673, 0.405087, 177.846, -0.000976562, -0.000976562, -0.000976562, -0.125, 0.338867, -9.83301, 12.8.2021 17:47:53.747
557, 1.89686, 0.412078, 177.846, -0.000976562, -0.00195312, 0, -0.0390625, 0.323242, -9.79492, 12.8.2021 17:47:53.755
558, 1.89686, 0.412078, 177.846, 0, -0.000976562, 0, -0.0488281, 0.292969, -9.81641, 12.8.2021 17:47:53.763
559, 1.89686, 0.412078, 177.846, 0, 0, -0.000976562, -0.118164, 0.334961, -9.85254, 12.8.2021 17:47:53.771
560, 1.89686, 0.412078, 177.846, -0.000976562, -0.000976562, -0.000976562, -0.0322266, 0.302734, -9.82129, 12.8.2021 17:47:53.779
561, 1.89686, 0.412078, 177.846, -0.000976562, -0.000976562, -0.000976562, -0.0712891, 0.323242, -9.86328, 12.8.2021 17:47:53.787
562, 1.89686, 0.412078, 177.846, -0.000976562, 0, 0, -0.0830078, 0.34668, -9.85254, 12.8.2021 17:47:53.795
563, 1.89686, 0.412078, 177.846, 0, -0.000976562, 0, -0.0371094, 0.324219, -9.81348, 12.8.2021 17:47:53.803
564, 1.89686, 0.412078, 177.846, 0, -0.000976562, 0, -0.108398, 0.34082, -9.80273, 12.8.2021 17:47:53.811
565, 1.89686, 0.412078, 177.846, -0.000976562, 0, -0.000976562, -0.0761719, 0.332031, -9.77734, 12.8.2021 17:47:53.819
566, 1.89686, 0.412078, 177.846, -0.000976562, -0.000976562, -0.000976562, -0.0458984, 0.316406, -9.79492, 12.8.2021 17:47:53.827
567, 1.89686, 0.412078, 177.846, -0.000976562, -0.000976562, -0.000976562, -0.12793, 0.320312, -9.86426, 12.8.2021 17:47:53.835
568, 1.89686, 0.412078, 177.846, 0, 0, -0.000976562, -0.0322266, 0.338867, -9.83984, 12.8.2021 17:47:53.843
569, 1.89673, 0.405087, 177.846, -0.000976562, 0, -0.000976562, -0.0585938, 0.295898, -9.82617, 12.8.2021 17:47:53.851
570, 1.89673, 0.405087, 177.846, 0, -0.000976562, -0.000976562, -0.103516, 0.358398, -9.83301, 12.8.2021 17:47:53.859
571, 1.89673, 0.405087, 177.846, -0.000976562, 0, -0.000976562, -0.0302734, 0.326172, -9.87793, 12.8.2021 17:47:53.867
572, 1.89673, 0.405087, 177.846, -0.000976562, -0.000976562, 0, -0.0585938, 0.329102, -9.83203, 12.8.2021 17:47:53.875
573, 1.89673, 0.405087, 177.846, -0.000976562, 0, -0.000976562, -0.101562, 0.345703, -9.82617, 12.8.2021 17:47:53.883
574, 1.89673, 0.405087, 177.846, -0.000976562, -0.000976562, -0.000976562, -0.0390625, 0.292969, -9.8125, 12.8.2021 17:47:53.891
575, 1.89673, 0.405087, 177.846, 0, -0.000976562, 0, -0.101562, 0.322266, -9.83594, 12.8.2021 17:47:53.899
576, 1.89673, 0.405087, 177.846, -0.000976562, -0.000976562, 0, -0.0820312, 0.329102, -9.83203, 12.8.2021 17:47:53.907
577, 1.89673, 0.405087, 177.846, 0, 0, 0, -0.0322266, 0.3125, -9.82129, 12.8.2021 17:47:53.915
578, 1.89673, 0.405087, 177.846, -0.000976562, -0.000976562, 0, -0.130859, 0.323242, -9.85938, 12.8.2021 17:47:53.923
579, 1.89673, 0.405087, 177.846, 0, -0.000976562, 0, -0.0273438, 0.337891, -9.81152, 12.8.2021 17:47:53.931
580, 1.89673, 0.405087, 177.846, 0, -0.000976562, -0.000976562, -0.0478516, 0.306641, -9.79297, 12.8.2021 17:47:53.939
581, 1.89673, 0.405087, 177.846, -0.000976562, -0.000976562, -0.000976562, -0.125, 0.324219, -9.82617, 12.8.2021 17:47:53.947
582, 1.89673, 0.405087, 177.846, -0.000976562, -0.000976562, -0.000976562, -0.0224609, 0.294922, -9.80762, 12.8.2021 17:47:53.955
583, 1.89673, 0.405087, 177.846, -0.000976562, -0.000976562, -0.000976562, -0.0859375, 0.338867, -9.76074, 12.8.2021 17:47:53.963
584, 1.89673, 0.405087, 177.846, -0.000976562, 0, 0, -0.103516, 0.336914, -9.83105, 12.8.2021 17:47:53.971
585, 1.89673, 0.405087, 177.846, -0.00195312, -0.000976562, 0, -0.0322266, 0.322266, -9.83496, 12.8.2021 17:47:53.979
586, 1.89673, 0.405087, 177.846, -0.000976562, -0.000976562, 0, -0.120117, 0.326172, -9.79785, 12.8.2021 17:47:53.987
587, 1.89673, 0.405087, 177.846, 0, 0, -0.000976562, -0.0751953, 0.321289, -9.80859, 12.8.2021 17:47:53.995
588, 1.89673, 0.405087, 177.846, 0, 0, -0.000976562, -0.0390625, 0.319336, -9.8252, 12.8.2021 17:47:54.003
589, 1.89673, 0.405087, 177.846, 0, 0, -0.000976562, -0.136719, 0.34375, -9.82129, 12.8.2021 17:47:54.011
590, 1.89673, 0.405087, 177.846, -0.000976562, -0.000976562, 0, -0.0585938, 0.322266, -9.83984, 12.8.2021 17:47:54.019
591, 1.89673, 0.405087, 177.846, -0.00195312, 0, 0, -0.0917969, 0.3125, -9.8252, 12.8.2021 17:47:54.027
592, 1.89673, 0.405087, 177.846, -0.000976562, 0, 0, -0.125, 0.337891, -9.80762, 12.8.2021 17:47:54.035
593, 1.89686, 0.412078, 177.846, -0.000976562, -0.000976562, 0, -0.00585938, 0.322266, -9.84277, 12.8.2021 17:47:54.043
594, 1.89686, 0.412078, 177.846, -0.000976562, -0.000976562, 0.000976562, -0.113281, 0.297852, -9.82715, 12.8.2021 17:47:54.051
595, 1.89686, 0.412078, 177.846, -0.000976562, -0.000976562, 0, -0.108398, 0.329102, -9.83398, 12.8.2021 17:47:54.059
596, 1.89686, 0.412078, 177.846, -0.000976562, -0.000976562, 0, -0.0205078, 0.3125, -9.83105, 12.8.2021 17:47:54.067
597, 1.89686, 0.412078, 177.846, -0.00195312, -0.000976562, -0.000976562, -0.125, 0.352539, -9.81348, 12.8.2021 17:47:54.075
598, 1.89686, 0.412078, 177.846, -0.00195312, -0.000976562, 0, -0.0634766, 0.322266, -9.83008, 12.8.2021 17:47:54.083
599, 1.90385, 0.411947, 177.846, -0.00195312, 0, -0.000976562, -0.0507812, 0.314453, -9.80957, 12.8.2021 17:47:54.091
600, 1.90398, 0.418939, 177.846, -0.000976562, -0.000976562, -0.000976562, -0.134766, 0.335938, -9.80957, 12.8.2021 17:47:54.099
601, 1.90398, 0.418939, 177.846, -0.000976562, -0.000976562, 0, -0.0322266, 0.322266, -9.82812, 12.8.2021 17:47:54.107
602, 1.90398, 0.418939, 177.846, -0.000976562, 0.000976562, 0, -0.0820312, 0.305664, -9.83008, 12.8.2021 17:47:54.115
603, 1.90398, 0.418939, 177.846, -0.000976562, 0, 0, -0.106445, 0.336914, -9.83105, 12.8.2021 17:47:54.123
604, 1.90398, 0.418939, 177.846, -0.000976562, -0.000976562, -0.000976562, -0.0371094, 0.304688, -9.81445, 12.8.2021 17:47:54.131
605, 1.89699, 0.41907, 177.846, 0.000976562, -0.000976562, -0.000976562, -0.0839844, 0.318359, -9.78711, 12.8.2021 17:47:54.139
606, 1.89699, 0.41907, 177.846, -0.000976562, -0.000976562, 0, -0.101562, 0.338867, -9.84082, 12.8.2021 17:47:54.147
607, 1.89699, 0.41907, 177.846, -0.000976562, 0, 0, -0.0205078, 0.3125, -9.82422, 12.8.2021 17:47:54.155
608, 1.89712, 0.426062, 177.845, -0.000976562, -0.000976562, 0, -0.129883, 0.333984, -9.81934, 12.8.2021 17:47:54.163
609, 1.89712, 0.426062, 177.845, -0.000976562, -0.00195312, 0, -0.0888672, 0.325195, -9.79199, 12.8.2021 17:47:54.171
610, 1.89712, 0.426062, 177.845, -0.000976562, 0, 0, -0.0517578, 0.295898, -9.83789, 12.8.2021 17:47:54.179
611, 1.89712, 0.426062, 177.845, 0.000976562, 0, 0, -0.134766, 0.336914, -9.82812, 12.8.2021 17:47:54.187
612, 1.89712, 0.426062, 177.845, 0.000976562, 0, 0, -0.0605469, 0.316406, -9.80176, 12.8.2021 17:47:54.195
613, 1.89712, 0.426062, 177.845, 0.000976562, -0.000976562, 0, -0.0566406, 0.295898, -9.84277, 12.8.2021 17:47:54.203
614, 1.89712, 0.426062, 177.845, 0.000976562, 0, 0, -0.105469, 0.324219, -9.8125, 12.8.2021 17:47:54.211
615, 1.89714, 0.425946, 177.838, -0.000976562, 0, 0, -0.00878906, 0.336914, -9.84473, 12.8.2021 17:47:54.219
616, 1.89714, 0.425946, 177.838, -0.000976562, 0, -0.000976562, -0.0771484, 0.322266, -9.8252, 12.8.2021 17:47:54.225
617, 1.89725, 0.433053, 177.845, -0.000976562, -0.000976562, 0, -0.0732422, 0.336914, -9.85547, 12.8.2021 17:47:54.233
618, 1.89725, 0.433053, 177.845, -0.000976562, -0.00195312, -0.000976562, -0.00585938, 0.28125, -9.8252, 12.8.2021 17:47:54.241
619, 1.89725, 0.433053, 177.845, -0.000976562, -0.000976562, -0.000976562, -0.12207, 0.321289, -9.79785, 12.8.2021 17:47:54.249
620, 1.89026, 0.433185, 177.845, -0.000976562, 0, -0.000976562, -0.0673828, 0.335938, -9.81543, 12.8.2021 17:47:54.257
621, 1.89026, 0.433185, 177.845, -0.000976562, -0.000976562, -0.000976562, -0.0517578, 0.307617, -9.83789, 12.8.2021 17:47:54.265
622, 1.89026, 0.433185, 177.845, -0.000976562, -0.000976562, -0.000976562, -0.09375, 0.345703, -9.82129, 12.8.2021 17:47:54.273
623, 1.89026, 0.433185, 177.845, -0.000976562, -0.000976562, 0, -0.0371094, 0.319336, -9.81348, 12.8.2021 17:47:54.281
624, 1.89026, 0.433185, 177.845, -0.000976562, -0.000976562, 0, -0.0605469, 0.319336, -9.83496, 12.8.2021 17:47:54.289
625, 1.89026, 0.433185, 177.845, -0.000976562, -0.000976562, 0, -0.100586, 0.333008, -9.80762, 12.8.2021 17:47:54.297
626, 1.89026, 0.433185, 177.845, -0.000976562, -0.000976562, 0, -0.0224609, 0.304688, -9.80762, 12.8.2021 17:47:54.305
627, 1.89026, 0.433185, 177.845, -0.000976562, -0.000976562, -0.000976562, -0.109375, 0.31543, -9.85254, 12.8.2021 17:47:54.313
628, 1.89026, 0.433185, 177.845, -0.000976562, 0, -0.000976562, -0.106445, 0.305664, -9.85059, 12.8.2021 17:47:54.321
629, 1.89013, 0.426193, 177.845, -0.000976562, 0, -0.000976562, -0.015625, 0.304688, -9.81738, 12.8.2021 17:47:54.329
630, 1.89013, 0.426193, 177.845, -0.000976562, 0, 0, -0.0986328, 0.302734, -9.80859, 12.8.2021 17:47:54.337
631, 1.89013, 0.426193, 177.845, -0.000976562, -0.000976562, 0, -0.0605469, 0.304688, -9.82324, 12.8.2021 17:47:54.345
632, 1.89013, 0.426193, 177.845, -0.00195312, 0, 0, -0.0410156, 0.292969, -9.80957, 12.8.2021 17:47:54.353
633, 1.88314, 0.426324, 177.845, -0.000976562, -0.000976562, -0.000976562, -0.113281, 0.329102, -9.8291, 12.8.2021 17:47:54.361
634, 1.88314, 0.426324, 177.845, -0.000976562, 0, -0.000976562, 0.0634766, 0.318359, -9.78711, 12.8.2021 17:47:54.369
635, 1.88314, 0.426324, 177.845, -0.000976562, -0.000976562, -0.000976562, 0.0078125, 0.370117, -9.84863, 12.8.2021 17:47:54.377
636, 1.88301, 0.419332, 177.846, -0.000976562, 0, 0, -0.0332031, 0.34668, -9.77344, 12.8.2021 17:47:54.385
637, 1.88301, 0.419332, 177.846, -0.000976562, 0, -0.000976562, 0.0117188, 0.356445, -9.79492, 12.8.2021 17:47:54.393
638, 1.88301, 0.419332, 177.846, -0.00195312, 0.000976562, -0.000976562, 0.0878906, 0.334961, -9.79883, 12.8.2021 17:47:54.401
639, 1.88288, 0.41234, 177.846, 0, -0.000976562, -0.000976562, 0.0244141, 0.355469, -9.8418, 12.8.2021 17:47:54.409
640, 1.88275, 0.405349, 177.846, 0, -0.000976562, -0.000976562, 0.0888672, 0.286133, -9.82617, 12.8.2021 17:47:54.417
641, 1.88275, 0.405349, 177.846, 0, -0.000976562, -0.000976562, -0.0507812, 0.371094, -9.78613, 12.8.2021 17:47:54.425
642, 1.88262, 0.398357, 177.846, 0, 0, -0.00195312, 0.148438, 0.338867, -9.83984, 12.8.2021 17:47:54.433
643, 1.88249, 0.391365, 177.846, -0.000976562, -0.000976562, -0.00195312, 0.139648, 0.301758, -9.81055, 12.8.2021 17:47:54.441
644, 1.88223, 0.377382, 177.846, 0, -0.000976562, -0.00195312, 0.00585938, 0.373047, -9.85059, 12.8.2021 17:47:54.449
645, 1.8821, 0.37039, 177.846, 0, 0, -0.00195312, 0.136719, 0.357422, -9.8252, 12.8.2021 17:47:54.457
646, 1.88196, 0.363398, 177.847, 0.00195312, -0.000976562, -0.000976562, 0.0507812, 0.320312, -9.87695, 12.8.2021 17:47:54.465
647, 1.8817, 0.349415, 177.847, -0.000976562, 0, -0.00195312, 0.0917969, 0.371094, -9.80762, 12.8.2021 17:47:54.473
648, 1.88843, 0.335301, 177.847, -0.000976562, -0.000976562, -0.00195312, 0.220703, 0.291992, -9.80469, 12.8.2021 17:47:54.481
649, 1.88817, 0.321317, 177.847, -0.000976562, -0.000976562, -0.00292969, 0.0996094, 0.337891, -9.79883, 12.8.2021 17:47:54.489
650, 1.88791, 0.307334, 177.847, -0.000976562, -0.000976562, -0.00292969, 0.125, 0.319336, -9.83789, 12.8.2021 17:47:54.497
651, 1.88764, 0.293351, 177.848, 0, -0.000976562, -0.00390625, 0.0644531, 0.310547, -9.86328, 12.8.2021 17:47:54.505
652, 1.89436, 0.279352, 177.855, 0, -0.000976562, -0.00390625, -0.00292969, 0.353516, -9.77832, 12.8.2021 17:47:54.513
653, 1.89397, 0.258377, 177.855, -0.000976562, -0.000976562, -0.00390625, 0.129883, 0.331055, -9.83984, 12.8.2021 17:47:54.521
654, 1.89371, 0.244393, 177.855, 0, 0, -0.00585938, 0.214844, 0.298828, -9.875, 12.8.2021 17:47:54.529
655, 1.89332, 0.223419, 177.856, -0.000976562, -0.00292969, -0.00488281, 0.0683594, 0.412109, -9.80859, 12.8.2021 17:47:54.537
656, 1.90004, 0.209305, 177.856, -0.000976562, 0, -0.00292969, 0.164062, 0.323242, -9.80957, 12.8.2021 17:47:54.545
657, 1.89965, 0.18833, 177.856, -0.000976562, -0.000976562, -0.00195312, 0.0908203, 0.318359, -9.88477, 12.8.2021 17:47:54.553
658, 1.89926, 0.167355, 177.857, 0, 0, -0.000976562, 0.132812, 0.348633, -9.7832, 12.8.2021 17:47:54.561
659, 1.89887, 0.146381, 177.857, -0.000976562, -0.000976562, 0.000976562, 0.268555, 0.382812, -9.80566, 12.8.2021 17:47:54.569
660, 1.90547, 0.125159, 177.85, -0.000976562, -0.000976562, 0.00195312, 0.123047, 0.270508, -9.79688, 12.8.2021 17:47:54.577
661, 1.90507, 0.104184, 177.851, -0.00292969, -0.000976562, 0.000976562, 0.183594, 0.353516, -9.76953, 12.8.2021 17:47:54.585
662, 1.91167, 0.0830786, 177.851, -0.00292969, -0.00195312, 0, 0.298828, 0.213867, -9.84375, 12.8.2021 17:47:54.593
663, 1.91128, 0.0621039, 177.851, -0.00292969, 0, -0.00292969, 0.368164, 0.303711, -9.81641, 12.8.2021 17:47:54.601
664, 1.91075, 0.0341377, 177.852, -0.00195312, -0.00390625, -0.0078125, 0.332031, 0.370117, -9.87012, 12.8.2021 17:47:54.609
665, 1.91735, 0.013032, 177.852, -0.000976562, 0.000976562, -0.00878906, 0.405273, 0.321289, -9.75, 12.8.2021 17:47:54.617
666, 1.91682, 359.985, 177.853, -0.000976562, 0, -0.00878906, 0.273438, 0.411133, -9.80176, 12.8.2021 17:47:54.625
667, 1.91617, 359.95, 177.853, -0.000976562, -0.00292969, -0.0078125, 0.405273, 0.426758, -9.77051, 12.8.2021 17:47:54.633
668, 1.91565, 359.922, 177.854, -0.000976562, -0.00292969, -0.00585938, 0.389648, 0.379883, -9.70801, 12.8.2021 17:47:54.641
669, 1.92211, 359.894, 177.854, -0.000976562, -0.00488281, -0.00195312, 0.270508, 0.392578, -9.81641, 12.8.2021 17:47:54.649
670, 1.92159, 359.866, 177.855, -0.00195312, -0.00878906, -0.000976562, 0.308594, 0.313477, -9.82227, 12.8.2021 17:47:54.657
671, 1.92805, 359.838, 177.855, -0.00292969, -0.0107422, -0.000976562, 0.310547, 0.320312, -9.87109, 12.8.2021 17:47:54.665
672, 1.92738, 359.803, 177.849, -0.00195312, -0.00976562, -0.00292969, 0.336914, 0.269531, -9.70508, 12.8.2021 17:47:54.673
673, 1.93384, 359.775, 177.849, -0.00390625, -0.0117188, -0.00195312, 0.288086, 0.303711, -9.80078, 12.8.2021 17:47:54.681
674, 1.93329, 359.747, 177.843, -0.00390625, -0.0107422, -0.00390625, 0.192383, 0.300781, -9.77539, 12.8.2021 17:47:54.689
675, 1.93962, 359.712, 177.843, -0.00488281, -0.00976562, -0.00488281, 0.436523, 0.173828, -9.87793, 12.8.2021 17:47:54.697
676, 1.9391, 359.684, 177.844, -0.00585938, -0.0107422, -0.00976562, 0.444336, 0.224609, -9.9707, 12.8.2021 17:47:54.705
677, 1.94543, 359.649, 177.844, -0.00488281, -0.00683594, -0.015625, 0.556641, 0.275391, -9.83203, 12.8.2021 17:47:54.713
678, 1.9448, 359.614, 177.852, -0.00390625, -0.00683594, -0.0214844, 0.556641, 0.235352, -9.68652, 12.8.2021 17:47:54.721
679, 1.94417, 359.579, 177.86, -0.00390625, -0.00585938, -0.0263672, 0.400391, 0.320312, -10.0527, 12.8.2021 17:47:54.729
680, 1.94342, 359.537, 177.867, -0.00195312, -0.00390625, -0.0283203, 0.456055, 0.27832, -9.85352, 12.8.2021 17:47:54.737
681, 1.9428, 359.502, 177.875, -0.00195312, -0.00195312, -0.03125, 0.386719, 0.405273, -10.0068, 12.8.2021 17:47:54.745
682, 1.94206, 359.46, 177.883, 0.000976562, 0.00292969, -0.0322266, 0.450195, 0.336914, -9.90137, 12.8.2021 17:47:54.753
683, 1.94137, 359.419, 177.897, 0.00390625, 0.00390625, -0.0361328, 0.469727, 0.411133, -9.8877, 12.8.2021 17:47:54.761
684, 1.93365, 359.377, 177.905, 0.00976562, 0.00976562, -0.0380859, 0.430664, 0.458008, -10.1104, 12.8.2021 17:47:54.769
685, 1.92586, 359.328, 177.92, 0.00878906, 0.015625, -0.0400391, 0.374023, 0.578125, -9.95703, 12.8.2021 17:47:54.777
686, 1.92507, 359.28, 177.934, 0.0126953, 0.015625, -0.0390625, 0.319336, 0.435547, -9.9082, 12.8.2021 17:47:54.785
687, 1.9173, 359.231, 177.949, 0.0126953, 0.015625, -0.0380859, 0.359375, 0.450195, -9.65332, 12.8.2021 17:47:54.793
688, 1.91647, 359.182, 177.957, 0.0126953, 0.0166016, -0.0351562, 0.444336, 0.473633, -9.72949, 12.8.2021 17:47:54.801
689, 1.90885, 359.141, 177.972, 0.0117188, 0.0117188, -0.0322266, 0.477539, 0.422852, -9.71582, 12.8.2021 17:47:54.809
690, 1.90803, 359.092, 177.979, 0.0107422, 0.00488281, -0.0292969, 0.379883, 0.454102, -9.88281, 12.8.2021 17:47:54.817
691, 1.90735, 359.05, 177.987, 0.0078125, 0.00390625, -0.0234375, 0.476562, 0.367188, -9.625, 12.8.2021 17:47:54.825
692, 1.90673, 359.015, 177.988, 0.00195312, 0.000976562, -0.0205078, 0.704102, 0.310547, -9.72656, 12.8.2021 17:47:54.833
693, 1.91305, 358.973, 177.995, -0.00195312, 0.000976562, -0.0185547, 0.65625, 0.261719, -9.85254, 12.8.2021 17:47:54.841
694, 1.9193, 358.931, 177.996, -0.00488281, -0.00292969, -0.0166016, 0.671875, 0.166992, -9.89062, 12.8.2021 17:47:54.849
695, 1.92567, 358.896, 177.997, -0.00683594, -0.00390625, -0.0146484, 0.691406, 0.0771484, -9.86035, 12.8.2021 17:47:54.857
696, 1.93192, 358.854, 177.998, -0.00976562, -0.00292969, -0.0126953, 0.650391, 0.15332, -9.77051, 12.8.2021 17:47:54.865
697, 1.9383, 358.819, 177.998, -0.0117188, -0.00195312, -0.0136719, 0.624023, 0.166016, -9.78125, 12.8.2021 17:47:54.873
698, 1.94455, 358.777, 177.999, -0.0117188, -0.00195312, -0.015625, 0.605469, 0.243164, -9.89453, 12.8.2021 17:47:54.881
699, 1.95079, 358.735, 178, -0.0107422, -0.00292969, -0.0175781, 0.454102, 0.301758, -9.8457, 12.8.2021 17:47:54.889
700, 1.95704, 358.693, 178.001, -0.0117188, -0.00390625, -0.0185547, 0.480469, 0.416992, -9.85742, 12.8.2021 17:47:54.897
701, 1.96377, 358.658, 178.001, -0.00976562, -0.00292969, -0.0175781, 0.483398, 0.518555, -9.81641, 12.8.2021 17:47:54.905
702, 1.96303, 358.616, 178.002, -0.00488281, -0.00195312, -0.015625, 0.459961, 0.628906, -9.81348, 12.8.2021 17:47:54.913
703, 1.96928, 358.573, 178.003, -0.00292969, 0, -0.0126953, 0.5625, 0.694336, -9.94531, 12.8.2021 17:47:54.921
704, 1.96867, 358.538, 178.003, 0, 0.000976562, -0.0078125, 0.458008, 0.704102, -9.91504, 12.8.2021 17:47:54.929
705, 1.97482, 358.496, 177.997, 0.00390625, 0.00195312, -0.00390625, 0.400391, 0.542969, -9.80566, 12.8.2021 17:47:54.937
706, 1.97408, 358.454, 177.998, 0.00488281, 0, -0.00292969, 0.392578, 0.411133, -9.80664, 12.8.2021 17:47:54.945
707, 1.97336, 358.419, 177.991, 0.00585938, -0.00195312, -0.00488281, 0.322266, 0.275391, -9.75488, 12.8.2021 17:47:54.953
708, 1.97972, 358.384, 177.992, 0.00390625, -0.00292969, -0.00683594, 0.466797, 0.300781, -9.62598, 12.8.2021 17:47:54.961
709, 1.98611, 358.356, 177.986, 0, -0.00683594, -0.0078125, 0.491211, 0.305664, -9.49414, 12.8.2021 17:47:54.969
710, 1.98549, 358.321, 177.986, -0.00195312, -0.0126953, -0.00585938, 0.436523, 0.216797, -9.62305, 12.8.2021 17:47:54.977
711, 1.99187, 358.293, 177.98, -0.00488281, -0.0146484, -0.00390625, 0.578125, 0.134766, -9.51953, 12.8.2021 17:47:54.985
712, 1.99848, 358.272, 177.98, -0.00976562, -0.0195312, -0.00292969, 0.522461, 0.0380859, -9.72949, 12.8.2021 17:47:54.993
713, 2.01234, 358.25, 177.974, -0.0146484, -0.0234375, -0.00390625, 0.419922, 0.046875, -9.69629, 12.8.2021 17:47:55.001
714, 2.01896, 358.229, 177.974, -0.0185547, -0.0244141, -0.00585938, 0.493164, 0.124023, -9.64355, 12.8.2021 17:47:55.009
715, 2.03256, 358.208, 177.975, -0.0205078, -0.0244141, -0.00976562, -0.206055, 0.551758, -11.208, 12.8.2021 17:47:55.017
716, 2.03905, 358.18, 177.976, -0.00683594, 0.00976562, -0.0107422, 0.31543, 0.50293, -11.1133, 12.8.2021 17:47:55.025
717, 2.04554, 358.152, 177.976, 0, 0.015625, -0.00585938, 0.602539, 0.523438, -10.2275, 12.8.2021 17:47:55.033
718, 2.04491, 358.117, 177.977, 0.0107422, 0.00683594, -0.00292969, 0.125977, 0.743164, -9.67969, 12.8.2021 17:47:55.041
719, 2.03717, 358.082, 177.97, 0.0205078, 0.0361328, 0.00292969, 0.155273, 0.897461, -9.49414, 12.8.2021 17:47:55.049
720, 2.02942, 358.047, 177.964, 0.0263672, 0.0351562, 0.0107422, 0.205078, 0.869141, -9.41504, 12.8.2021 17:47:55.057
721, 2.01468, 358.012, 177.957, 0.0263672, 0.0253906, 0.0146484, -0.115234, 0.754883, -10.1475, 12.8.2021 17:47:55.065
722, 2.00693, 357.977, 177.95, 0.0195312, 0.00878906, 0.0146484, -0.0615234, 0.435547, -9.20996, 12.8.2021 17:47:55.073
723, 1.99942, 357.956, 177.944, 0.00683594, -0.00683594, 0.0136719, 0.0419922, 0.015625, -8.7041, 12.8.2021 17:47:55.081
724, 1.99903, 357.949, 177.93, -0.00488281, -0.0224609, 0.0126953, 0.104492, -0.124023, -9.4834, 12.8.2021 17:47:55.089
725, 2.00576, 357.942, 177.923, -0.0107422, -0.0253906, 0.0146484, 0.521484, -0.37207, -10.2598, 12.8.2021 17:47:55.097
726, 2.01249, 357.934, 177.916, -0.015625, -0.0244141, 0.0107422, 0.649414, -0.291992, -10.4775, 12.8.2021 17:47:55.105
727, 2.01959, 357.927, 177.91, -0.0146484, -0.0214844, 0.0107422, 0.530273, 0.110352, -10.4922, 12.8.2021 17:47:55.113
728, 2.01919, 357.913, 177.903, -0.0107422, 0.00292969, 0.0185547, 0.750977, 0.262695, -9.75684, 12.8.2021 17:47:55.121
729, 2.02565, 357.899, 177.889, -0.0107422, 0.0136719, 0.0253906, 0.344727, 0.447266, -9.71289, 12.8.2021 17:47:55.129
730, 2.03212, 357.878, 177.883, -0.00976562, 0.0126953, 0.0234375, -0.220703, 0.588867, -10.1201, 12.8.2021 17:47:55.137
731, 2.03844, 357.856, 177.869, -0.0107422, 0.0117188, 0.0136719, -0.145508, 0.43457, -9.50195, 12.8.2021 17:47:55.145
732, 2.03817, 357.842, 177.869, -0.015625, -0.00585938, 0.00195312, -0.270508, 0.37207, -9.00098, 12.8.2021 17:47:55.153
733, 2.04503, 357.835, 177.87, -0.0175781, -0.0234375, -0.0117188, 0.0224609, 0.359375, -8.60156, 12.8.2021 17:47:55.161
734, 2.05229, 357.842, 177.877, -0.0146484, -0.0400391, -0.0224609, 0.241211, 0.25, -9.19629, 12.8.2021 17:47:55.169
735, 2.05956, 357.849, 177.884, -0.0117188, -0.0498047, -0.0292969, 0.443359, 0.230469, -10.0176, 12.8.2021 17:47:55.177
736, 2.06709, 357.863, 177.898, -0.00878906, -0.0527344, -0.0351562, 0.530273, 0.223633, -10.2676, 12.8.2021 17:47:55.185
737, 2.06762, 357.877, 177.911, -0.000976562, -0.03125, -0.0400391, -0.0439453, 0.477539, -11.4678, 12.8.2021 17:47:55.191
738, 2.0679, 357.871, 177.932, 0.0117188, 0.0136719, -0.0439453, 0.295898, 0.438477, -11.3848, 12.8.2021 17:47:55.199
739, 2.06094, 357.85, 177.954, 0.0146484, 0.0322266, -0.0439453, 0.400391, 0.391602, -10.4473, 12.8.2021 17:47:55.207
740, 2.05386, 357.823, 177.975, 0.0175781, 0.0429688, -0.0419922, -0.0498047, 0.550781, -9.63965, 12.8.2021 17:47:55.215
741, 2.04664, 357.795, 177.989, 0.0175781, 0.0595703, -0.0332031, 0.0449219, 0.416016, -9.37109, 12.8.2021 17:47:55.223
742, 2.03944, 357.768, 178.004, 0.0136719, 0.0410156, -0.0283203, -0.249023, 0.363281, -9.27734, 12.8.2021 17:47:55.231
743, 2.03236, 357.747, 178.018, 0.0078125, 0.0175781, -0.0283203, -0.545898, 0.351562, -9.18555, 12.8.2021 17:47:55.239
744, 2.0324, 357.733, 178.032, -0.00292969, -0.00585938, -0.0263672, -0.137695, 0.00878906, -8.60449, 12.8.2021 17:47:55.247
745, 2.03267, 357.74, 178.039, -0.0136719, -0.0332031, -0.0283203, 0.126953, -0.106445, -8.87207, 12.8.2021 17:47:55.255
746, 2.04019, 357.754, 178.053, -0.0205078, -0.046875, -0.0302734, 0.216797, 0.0205078, -10.1709, 12.8.2021 17:47:55.263
747, 2.05471, 357.769, 178.067, -0.0205078, -0.0371094, -0.0292969, 0.740234, 0.078125, -10.79, 12.8.2021 17:47:55.271
748, 2.0621, 357.776, 178.081, -0.015625, -0.0283203, -0.03125, 0.666016, 0.300781, -10.9434, 12.8.2021 17:47:55.279
749, 2.06225, 357.776, 178.088, -0.0078125, -0.00390625, -0.0302734, 0.618164, 0.433594, -10.2744, 12.8.2021 17:47:55.287
750, 2.06941, 357.769, 178.102, -0.000976562, 0.0292969, -0.0292969, 0.632812, 0.556641, -9.71387, 12.8.2021 17:47:55.295
751, 2.06934, 357.748, 178.117, 0, 0.0371094, -0.0322266, 0.222656, 0.821289, -9.76367, 12.8.2021 17:47:55.303
752, 2.06243, 357.728, 178.138, 0.00292969, 0.0322266, -0.0371094, 0.0244141, 0.505859, -9.48633, 12.8.2021 17:47:55.311
753, 2.06249, 357.714, 178.152, 0.000976562, 0.0185547, -0.0458984, 0.199219, 0.286133, -8.31348, 12.8.2021 17:47:55.319
754, 2.06307, 357.714, 178.18, -0.00390625, -0.0146484, -0.0566406, 0.0224609, 0.113281, -8.5918, 12.8.2021 17:47:55.327
755, 2.06325, 357.722, 178.201, -0.00683594, -0.0400391, -0.0615234, 0.289062, -0.0126953, -9.12012, 12.8.2021 17:47:55.335
756, 2.07115, 357.743, 178.229, -0.0117188, -0.0537109, -0.0644531, -0.0253906, 0.37793, -11.667, 12.8.2021 17:47:55.343
757, 2.07208, 357.758, 178.263, -0.000976562, -0.0361328, -0.0683594, 0.4375, 0.364258, -12.2031, 12.8.2021 17:47:55.351
758, 2.07276, 357.765, 178.291, 0.00488281, -0.00683594, -0.0664062, 1.12012, 0.395508, -11.292, 12.8.2021 17:47:55.359
759, 2.07333, 357.766, 178.319, 0.0078125, 0.000976562, -0.0634766, 0.913086, 0.609375, -9.51367, 12.8.2021 17:47:55.367
760, 2.0668, 357.759, 178.347, 0.0107422, 0.0351562, -0.0576172, 0.160156, 0.823242, -9.23633, 12.8.2021 17:47:55.375
761, 2.05987, 357.725, 178.376, 0.0126953, 0.0820312, -0.0498047, 0.941406, 0.0361328, -9.2207, 12.8.2021 17:47:55.383
762, 2.06, 357.704, 178.397, 0.00292969, 0.0302734, -0.0507812, -0.583984, 0.488281, -10.5654, 12.8.2021 17:47:55.391
763, 2.06014, 357.684, 178.418, -0.00390625, 0.0478516, -0.0498047, -0.0146484, 0.358398, -9.36719, 12.8.2021 17:47:55.399
764, 2.06054, 357.67, 178.447, -0.00585938, 0.00585938, -0.0527344, 0.269531, -0.481445, -8.00293, 12.8.2021 17:47:55.407
765, 2.06807, 357.678, 178.468, -0.0205078, -0.0410156, -0.0566406, 0.296875, -0.0263672, -7.6084, 12.8.2021 17:47:55.415
766, 2.07593, 357.699, 178.495, -0.0166016, -0.0507812, -0.0585938, 0.530273, 0.128906, -10.6387, 12.8.2021 17:47:55.423
767, 2.08355, 357.713, 178.516, -0.015625, -0.0371094, -0.0566406, 1.14258, 0.418945, -11.8311, 12.8.2021 17:47:55.431
768, 2.0844, 357.735, 178.544, -0.0136719, -0.0400391, -0.0556641, 1.3252, 0.849609, -10.2295, 12.8.2021 17:47:55.439
769, 2.092, 357.749, 178.565, -0.00292969, -0.03125, -0.0507812, 0.71582, 0.710938, -9.77051, 12.8.2021 17:47:55.447
770, 2.09243, 357.749, 178.586, -0.000976562, 0.015625, -0.0429688, 0.787109, 0.428711, -8.23926, 12.8.2021 17:47:55.455
771, 2.09268, 357.736, 178.607, -0.0107422, 0.0371094, -0.0400391, 0.326172, 0.669922, -9.79785, 12.8.2021 17:47:55.463
772, 2.09294, 357.722, 178.628, -0.000976562, 0.0380859, -0.0410156, -0.268555, 0.444336, -12.1875, 12.8.2021 17:47:55.471
773, 2.09311, 357.702, 178.65, 0.00585938, 0.0458984, -0.0478516, -0.0537109, 0.291016, -11.6328, 12.8.2021 17:47:55.479
774, 2.09338, 357.688, 178.671, 0.00976562, 0.0185547, -0.0498047, 0.420898, 0.0898438, -9.13574, 12.8.2021 17:47:55.487
775, 2.08674, 357.682, 178.692, 0.015625, -0.0166016, -0.0527344, 0.5, 0.183594, -6.86621, 12.8.2021 17:47:55.495
776, 2.0735, 357.696, 178.719, 0.0166016, -0.0371094, -0.0527344, 0.126953, 0.414062, -8.74902, 12.8.2021 17:47:55.503
777, 2.06672, 357.711, 178.74, 0.0136719, -0.0205078, -0.0488281, 0.551758, 0.639648, -10.6816, 12.8.2021 17:47:55.511
778, 2.06723, 357.718, 178.761, 0.0078125, -0.0136719, -0.0458984, 0.744141, 0.506836, -11.3047, 12.8.2021 17:47:55.519
779, 2.06075, 357.725, 178.782, -0.000976562, -0.0107422, -0.0439453, 0.639648, 0.470703, -10.5508, 12.8.2021 17:47:55.527
780, 2.06817, 357.726, 178.803, -0.0107422, 0.00292969, -0.0439453, 0.742188, -0.0400391, -9.28125, 12.8.2021 17:47:55.535
781, 2.06852, 357.719, 178.824, -0.0175781, 0.0175781, -0.0439453, 0.433594, -0.168945, -9.59668, 12.8.2021 17:47:55.543
782, 2.08287, 357.712, 178.845, -0.0205078, 0.03125, -0.0449219, 0.474609, -0.0302734, -9.83203, 12.8.2021 17:47:55.551
783, 2.09015, 357.699, 178.867, -0.0175781, 0.00878906, -0.0478516, 0.123047, 0.0498047, -9.76953, 12.8.2021 17:47:55.559
784, 2.09757, 357.699, 178.888, -0.0185547, -0.00195312, -0.0488281, -0.0908203, 0.102539, -8.62402, 12.8.2021 17:47:55.567
785, 2.105, 357.699, 178.909, -0.0205078, 0.000976562, -0.0537109, 0.515625, 0.149414, -8.07031, 12.8.2021 17:47:55.575
786, 2.11257, 357.7, 178.937, -0.0117188, -0.0136719, -0.0615234, 0.0292969, 0.557617, -11.835, 12.8.2021 17:47:55.583
787, 2.1202, 357.707, 178.965, -0.0107422, 0.000976562, -0.0595703, 0.299805, 1.0498, -12.4893, 12.8.2021 17:47:55.591
788, 2.12057, 357.701, 178.986, -0.00292969, 0.00683594, -0.0556641, 1.40723, 0.519531, -9.72949, 12.8.2021 17:47:55.599
789, 2.1212, 357.708, 179.014, 0.00585938, -0.03125, -0.0527344, 0.447266, 0.630859, -8.58008, 12.8.2021 17:47:55.607
790, 2.1147, 357.716, 179.035, 0.0107422, 0.00878906, -0.0488281, 0.298828, 0.435547, -8.36523, 12.8.2021 17:47:55.615
791, 2.10802, 357.702, 179.056, 0.00683594, 0.0380859, -0.0449219, 0.522461, 0.28125, -9.72461, 12.8.2021 17:47:55.623
792, 2.10833, 357.688, 179.077, 0.00390625, 0.0195312, -0.0439453, -0.0722656, 0.588867, -11.332, 12.8.2021 17:47:55.631
793, 2.10871, 357.682, 179.098, 0.00488281, 0.0107422, -0.0439453, -0.102539, 0.220703, -10.4346, 12.8.2021 17:47:55.639
794, 2.10215, 357.682, 179.119, 0, -0.00683594, -0.0419922, 0.420898, -0.00585938, -7.98828, 12.8.2021 17:47:55.647
795, 2.10264, 357.69, 179.14, -0.00390625, -0.0205078, -0.0439453, 0.347656, 0.196289, -7.85352, 12.8.2021 17:47:55.655
796, 2.10303, 357.704, 179.154, 0, -0.0380859, -0.046875, 0.179688, 0.166992, -9.95117, 12.8.2021 17:47:55.663
797, 2.11056, 357.718, 179.174, -0.0117188, -0.0136719, -0.0439453, 0.816406, 0.232422, -10.2617, 12.8.2021 17:47:55.671
798, 2.11803, 357.725, 179.195, -0.0195312, -0.0136719, -0.0429688, 0.34375, 0.837891, -12.0146, 12.8.2021 17:47:55.679
799, 2.11846, 357.726, 179.216, -0.00390625, 0.000976562, -0.0410156, -0.0429688, 0.415039, -12.2676, 12.8.2021 17:47:55.687
800, 2.11864, 357.712, 179.231, 0.00195312, 0.0546875, -0.0390625, 1.34863, 0.103516, -9.66699, 12.8.2021 17:47:55.695
801, 2.11902, 357.706, 179.252, 0.00585938, -0.00976562, -0.0429688, -0.222656, 0.479492, -8.43457, 12.8.2021 17:47:55.703
802, 2.11241, 357.699, 179.273, 0.0126953, 0.0244141, -0.0458984, -0.291992, 0.015625, -8.41504, 12.8.2021 17:47:55.711
803, 2.10575, 357.685, 179.294, 0.0078125, 0.0390625, -0.046875, 0.151367, 0.193359, -8.54688, 12.8.2021 17:47:55.719
804, 2.10614, 357.679, 179.315, 0.0107422, -0.000976562, -0.0546875, -0.393555, 0.554688, -11.0508, 12.8.2021 17:47:55.727
805, 2.09973, 357.679, 179.343, 0.0166016, -0.00976562, -0.0595703, 0.111328, 0.477539, -10.0791, 12.8.2021 17:47:55.735
806, 2.09339, 357.694, 179.37, 0.0126953, -0.0302734, -0.0605469, 0.121094, 0.522461, -9.00098, 12.8.2021 17:47:55.743
807, 2.08705, 357.709, 179.398, 0.0136719, -0.0332031, -0.0615234, 0.475586, 0.356445, -8.59082, 12.8.2021 17:47:55.751
808, 2.0807, 357.723, 179.426, 0.00878906, -0.0302734, -0.0576172, 0.273438, 0.460938, -9.92871, 12.8.2021 17:47:55.759
809, 2.08116, 357.73, 179.447, -0.00292969, 0.00585938, -0.0537109, 0.930664, 0.320312, -9.58594, 12.8.2021 17:47:55.767
810, 2.08172, 357.731, 179.475, -0.00878906, -0.00195312, -0.0517578, -0.603516, 0.923828, -13.4238, 12.8.2021 17:47:55.775
811, 2.08207, 357.717, 179.496, 0.00390625, 0.0439453, -0.0449219, 0.0361328, 0.0429688, -12.4727, 12.8.2021 17:47:55.783
812, 2.08243, 357.704, 179.517, 0.00292969, 0.03125, -0.0400391, 0.463867, -0.196289, -8.41699, 12.8.2021 17:47:55.791
813, 2.07572, 357.704, 179.531, 0.00878906, -0.0185547, -0.0410156, -1.01855, -0.0361328, -7.65625, 12.8.2021 17:47:55.799
814, 2.07612, 357.697, 179.552, 0.00195312, 0.0400391, -0.0371094, 0.160156, -0.0732422, -7.4707, 12.8.2021 17:47:55.807
815, 2.07637, 357.691, 179.566, 0.000976562, 0, -0.0371094, -0.382812, 0.547852, -10.5674, 12.8.2021 17:47:55.815
816, 2.06981, 357.691, 179.587, 0.0078125, -0.00292969, -0.0380859, -0.0507812, 0.685547, -11.4707, 12.8.2021 17:47:55.823
817, 2.07012, 357.698, 179.601, 0.00683594, -0.0224609, -0.0322266, 0.175781, 0.847656, -9.59473, 12.8.2021 17:47:55.831
818, 2.06346, 357.713, 179.614, 0.0126953, -0.0332031, -0.0273438, 0.299805, 0.556641, -8.31543, 12.8.2021 17:47:55.839
819, 2.05642, 357.727, 179.628, 0.0117188, -0.0234375, -0.0253906, 0.0693359, 0.335938, -9.17285, 12.8.2021 17:47:55.847
820, 2.05659, 357.734, 179.635, -0.00488281, -0.00683594, -0.0195312, 0.390625, 0.355469, -9.52637, 12.8.2021 17:47:55.855
821, 2.05675, 357.741, 179.642, -0.00976562, -0.0253906, -0.0224609, -0.921875, 0.694336, -12.917, 12.8.2021 17:47:55.863
822, 2.05705, 357.748, 179.656, 0.000976562, 0.0126953, -0.0224609, -0.556641, 0.155273, -12.5859, 12.8.2021 17:47:55.871
823, 2.05717, 357.741, 179.663, -0.00195312, 0.0273438, -0.0195312, 0.613281, -0.236328, -8.70312, 12.8.2021 17:47:55.879
824, 2.05745, 357.742, 179.677, 0.00683594, -0.0302734, -0.0302734, -0.328125, -0.0576172, -7.89258, 12.8.2021 17:47:55.887
825, 2.05076, 357.749, 179.69, 0.00976562, 0.0126953, -0.0292969, -0.275391, 0.129883, -8.16895, 12.8.2021 17:47:55.895
826, 2.05087, 357.742, 179.698, 0.00292969, 0.0166016, -0.0214844, 0.0722656, 0.52832, -10.2822, 12.8.2021 17:47:55.903
827, 2.04416, 357.742, 179.711, 0.0117188, -0.00390625, -0.0214844, -0.380859, 0.790039, -12.124, 12.8.2021 17:47:55.911
828, 2.0373, 357.742, 179.718, 0.00878906, -0.00976562, -0.015625, -0.204102, 0.583008, -9.74219, 12.8.2021 17:47:55.919
829, 2.03746, 357.75, 179.725, 0.00488281, -0.0136719, -0.0117188, 0.0576172, 0.323242, -7.5127, 12.8.2021 17:47:55.927
830, 2.03051, 357.764, 179.725, 0.00585938, -0.0185547, -0.0136719, 0.186523, 0.307617, -7.08203, 12.8.2021 17:47:55.935
831, 2.03066, 357.771, 179.732, -0.00683594, -0.0234375, -0.0117188, -0.722656, 0.0869141, -11.1514, 12.8.2021 17:47:55.943
832, 2.04481, 357.778, 179.739, -0.0400391, 0, -0.00683594, -0.160156, 0.560547, -12.4131, 12.8.2021 17:47:55.951
833, 2.05881, 357.785, 179.739, -0.0234375, 0, -0.0146484, -0.9375, 0.814453, -14.2246, 12.8.2021 17:47:55.959
834, 2.06592, 357.778, 179.746, -0.00585938, 0.0205078, -0.015625, 0.581055, -0.356445, -8.60938, 12.8.2021 17:47:55.967
835, 2.06606, 357.778, 179.753, -0.00976562, -0.0117188, -0.0175781, -0.310547, -0.325195, -6.83691, 12.8.2021 17:47:55.975
836, 2.06619, 357.778, 179.76, -0.00488281, 0.0292969, -0.0185547, -0.268555, 0.324219, -7.93652, 12.8.2021 17:47:55.983
837, 2.06631, 357.771, 179.767, 0.00976562, 0.0283203, -0.015625, -0.458008, 0.209961, -11.1094, 12.8.2021 17:47:55.991
838, 2.05944, 357.764, 179.774, 0.0166016, 0.0214844, -0.0166016, -0.642578, 0.902344, -12.2041, 12.8.2021 17:47:55.999
839, 2.05257, 357.758, 179.781, 0.0195312, 0.00683594, -0.00976562, -0.586914, 0.828125, -9.11328, 12.8.2021 17:47:56.007
840, 2.04572, 357.758, 179.788, 0.0175781, 0.00585938, -0.00488281, -0.0996094, 0.458984, -7.82031, 12.8.2021 17:47:56.015
841, 2.03174, 357.765, 179.788, 0.0146484, -0.00683594, -0.0078125, 0.585938, 0.516602, -6.64355, 12.8.2021 17:47:56.023
842, 2.02492, 357.779, 179.794, 0.0361328, -0.0634766, -0.015625, -0.961914, -0.576172, -10.6904, 12.8.2021 17:47:56.031
843, 2.01797, 357.8, 179.794, -0.00878906, -0.00878906, -0.00878906, -0.210938, 0.982422, -10.709, 12.8.2021 17:47:56.039
844, 2.01812, 357.807, 179.801, -0.0146484, 0.00292969, -0.00390625, -0.720703, 0.352539, -15.1973, 12.8.2021 17:47:56.047
845, 2.02513, 357.814, 179.801, -0.00195312, -0.0078125, -0.00585938, 0.0712891, -0.144531, -10.4141, 12.8.2021 17:47:56.055
846, 2.02513, 357.814, 179.801, -0.00683594, 0.00390625, -0.00976562, 0.318359, -0.192383, -7.98633, 12.8.2021 17:47:56.063
847, 2.02528, 357.821, 179.808, -0.00292969, -0.00585938, -0.0166016, -0.125977, -0.0771484, -7.32422, 12.8.2021 17:47:56.071
848, 2.02541, 357.821, 179.815, -0.00195312, 0.0253906, -0.0175781, -0.880859, 0.222656, -9.96387, 12.8.2021 17:47:56.079
849, 2.03251, 357.807, 179.822, -0.0244141, 0.0625, -0.0126953, 0.108398, 0.40332, -11.8857, 12.8.2021 17:47:56.087
850, 2.03948, 357.793, 179.822, -0.0126953, 0.00878906, -0.0117188, -0.725586, 0.833008, -10.8252, 12.8.2021 17:47:56.095
851, 2.0466, 357.793, 179.83, -0.00390625, -0.00195312, -0.00878906, -0.699219, 0.268555, -9.09375, 12.8.2021 17:47:56.103
852, 2.04662, 357.8, 179.829, -0.0263672, 0.0195312, -0.00292969, 0.176758, 0.19043, -6.44043, 12.8.2021 17:47:56.111
853, 2.05361, 357.8, 179.83, -0.0078125, -0.0126953, -0.00683594, 0.125977, 0.618164, -8.02734, 12.8.2021 17:47:56.119
854, 2.05378, 357.821, 179.836, 0.0126953, -0.0507812, -0.0107422, -0.505859, 0.0820312, -10.0137, 12.8.2021 17:47:56.127
855, 2.05383, 357.849, 179.836, -0.00195312, -0.0419922, -0.00390625, -0.535156, 0.50293, -11.4639, 12.8.2021 17:47:56.135
856, 2.04688, 357.87, 179.835, 0.00390625, -0.0253906, -0.00292969, -1.12891, 0.908203, -14.0039, 12.8.2021 17:47:56.143
857, 2.04689, 357.877, 179.835, 0.0185547, -0.00195312, -0.00878906, 0.344727, 0.134766, -11.0537, 12.8.2021 17:47:56.151
858, 2.03306, 357.892, 179.842, 0.0195312, -0.0195312, -0.0175781, 0.387695, 0.625, -8.30566, 12.8.2021 17:47:56.157
859, 2.01922, 357.906, 179.848, 0.0390625, -0.0244141, -0.0234375, -0.231445, 0.432617, -7.57031, 12.8.2021 17:47:56.165
860, 2.00538, 357.913, 179.855, 0.0341797, 0.00878906, -0.0175781, -0.949219, 0.232422, -10.1514, 12.8.2021 17:47:56.173
861, 1.9985, 357.906, 179.862, -0.00292969, 0.0703125, -0.00585938, -0.125977, 0.59668, -10.4756, 12.8.2021 17:47:56.181
862, 1.99847, 357.885, 179.862, -0.00683594, 0.0458984, -0.00488281, 0.0917969, 0.267578, -10.6631, 12.8.2021 17:47:56.189
863, 1.99846, 357.878, 179.862, 0.00292969, -0.0078125, -0.00585938, -1.15039, -0.157227, -10.8555, 12.8.2021 17:47:56.197
864, 2.00532, 357.878, 179.855, -0.0351562, 0.0322266, 0.00390625, -0.394531, -0.342773, -8.11621, 12.8.2021 17:47:56.205
865, 2.02629, 357.871, 179.856, -0.0537109, 0.0351562, 0.00390625, 0.862305, 0.100586, -6.60547, 12.8.2021 17:47:56.213
866, 2.04017, 357.885, 179.849, -0.0185547, -0.046875, -0.00585938, -0.15918, -0.144531, -8.45508, 12.8.2021 17:47:56.221
867, 2.04723, 357.927, 179.848, -0.0166016, -0.0625, -0.00390625, -0.820312, 0.319336, -11.7148, 12.8.2021 17:47:56.229
868, 2.05428, 357.962, 179.848, -0.0126953, -0.0351562, 0.00195312, -0.751953, 0.799805, -12.4561, 12.8.2021 17:47:56.237
869, 2.05419, 357.983, 179.84, 0.00488281, -0.0263672, 0.0078125, -0.958984, 1.01855, -12.6377, 12.8.2021 17:47:56.245
870, 2.04712, 358.01, 179.833, 0.0146484, -0.0185547, 0.0136719, 0.137695, 0.524414, -9.23926, 12.8.2021 17:47:56.253
871, 2.03293, 358.031, 179.818, 0.0302734, -0.0332031, 0.0195312, 0.34668, 0.874023, -7.00781, 12.8.2021 17:47:56.261
872, 2.01139, 358.052, 179.803, 0.0585938, -0.0214844, 0.0234375, -1.08984, 0.691406, -9.77539, 12.8.2021 17:47:56.269
873, 1.99019, 358.059, 179.789, 0.0302734, 0.0498047, 0.0371094, -0.604492, 0.623047, -10.833, 12.8.2021 17:47:56.277
874, 1.98279, 358.037, 179.768, -0.00390625, 0.0869141, 0.0400391, 0.307617, 1.03613, -10.7939, 12.8.2021 17:47:56.285
875, 1.97552, 358.023, 179.754, 0.0166016, 0.00585938, 0.0322266, -1.1543, 0.114258, -10.9736, 12.8.2021 17:47:56.293
876, 1.97517, 358.03, 179.733, -0.00292969, 0.0292969, 0.0332031, -0.868164, -0.791992, -9.37988, 12.8.2021 17:47:56.301
877, 1.9819, 358.022, 179.719, -0.0478516, 0.0380859, 0.0341797, -0.000976562, 0.103516, -6.62695, 12.8.2021 17:47:56.309
878, 2.00266, 358.029, 179.706, -0.0234375, -0.0166016, 0.0263672, 0.0664062, -0.445312, -7.24805, 12.8.2021 17:47:56.317
879, 2.00947, 358.05, 179.691, -0.0117188, -0.0439453, 0.0234375, -0.975586, -0.557617, -11.5049, 12.8.2021 17:47:56.325
880, 2.01628, 358.071, 179.677, -0.0224609, -0.00683594, 0.0273438, 0.160156, 0.59375, -10.7139, 12.8.2021 17:47:56.333
881, 2.01611, 358.091, 179.663, -0.000976562, -0.0292969, 0.0341797, -0.736328, 1.32031, -12.8857, 12.8.2021 17:47:56.341
882, 2.01581, 358.105, 179.642, 0.0126953, -0.00292969, 0.0429688, -0.339844, 0.318359, -10.9141, 12.8.2021 17:47:56.349
883, 2.00849, 358.112, 179.62, 0.00585938, 0.0166016, 0.0478516, 0.0810547, 0.62793, -8.52734, 12.8.2021 17:47:56.357
884, 2.00118, 358.118, 179.599, 0.0214844, 0.00878906, 0.0458984, -0.285156, 0.746094, -8.77539, 12.8.2021 17:47:56.365
885, 1.98684, 358.118, 179.578, 0.0205078, 0.0273438, 0.0439453, -0.783203, 0.328125, -9.57227, 12.8.2021 17:47:56.373
886, 1.98644, 358.104, 179.557, -0.0214844, 0.0683594, 0.0449219, -0.262695, 0.806641, -10.2666, 12.8.2021 17:47:56.381
887, 1.99305, 358.096, 179.536, -0.0214844, 0.0302734, 0.0371094, -0.289062, 0.416992, -9.77637, 12.8.2021 17:47:56.389
888, 1.9998, 358.096, 179.523, -0.0117188, 0.00195312, 0.0322266, -0.916016, -0.446289, -10.5576, 12.8.2021 17:47:56.397
889, 2.01346, 358.102, 179.502, -0.0332031, 0.0175781, 0.0332031, 0.105469, -0.0410156, -7.50391, 12.8.2021 17:47:56.405
890, 2.02025, 358.109, 179.488, -0.0234375, -0.0117188, 0.03125, 0.30957, -0.0136719, -8.53223, 12.8.2021 17:47:56.413
891, 2.02711, 358.13, 179.473, -0.000976562, -0.0351562, 0.03125, -0.0878906, 0.0205078, -9.40527, 12.8.2021 17:47:56.421
892, 2.02691, 358.157, 179.452, 0.00976562, -0.0283203, 0.0332031, 0.62207, 0.320312, -8.91992, 12.8.2021 17:47:56.429
893, 2.01284, 358.185, 179.437, 0.0273438, -0.0644531, 0.03125, -0.5, 1.34961, -10.248, 12.8.2021 17:47:56.437
894, 1.99882, 358.22, 179.422, 0.0263672, -0.0371094, 0.0390625, -0.902344, 1.32129, -11.5537, 12.8.2021 17:47:56.445
895, 1.99161, 358.241, 179.401, 0.0263672, 0.00195312, 0.046875, -0.220703, 0.419922, -12.3242, 12.8.2021 17:47:56.453
896, 1.97734, 358.247, 179.38, 0.0322266, -0.00683594, 0.0390625, 0.0820312, 0.771484, -11.1289, 12.8.2021 17:47:56.461
897, 1.95623, 358.261, 179.365, 0.0400391, -0.0136719, 0.0292969, 0.15918, 0.166016, -9.08398, 12.8.2021 17:47:56.469
898, 1.94215, 358.282, 179.351, 0.0361328, -0.0107422, 0.0244141, -0.220703, 0.256836, -8.32422, 12.8.2021 17:47:56.477
899, 1.92799, 358.289, 179.336, 0.0214844, 0.0263672, 0.0253906, -0.472656, 0.046875, -9.46289, 12.8.2021 17:47:56.485
900, 1.9207, 358.275, 179.322, -0.000976562, 0.0498047, 0.0322266, -0.0722656, 0.186523, -9.93262, 12.8.2021 17:47:56.493
901, 1.92044, 358.268, 179.308, -0.0166016, 0.0380859, 0.0351562, 0.00390625, 0.189453, -10.7656, 12.8.2021 17:47:56.501
902, 1.9341, 358.267, 179.288, -0.0253906, 0.00195312, 0.0361328, -0.288086, -0.12793, -10.1221, 12.8.2021 17:47:56.509
903, 1.94796, 358.281, 179.274, -0.046875, 0.00488281, 0.0400391, -0.34375, -0.550781, -9.41699, 12.8.2021 17:47:56.517
904, 1.97561, 358.28, 179.253, -0.0722656, 0.0214844, 0.0478516, 0.469727, -0.291992, -8.19727, 12.8.2021 17:47:56.525
905, 2.00319, 358.287, 179.225, -0.0625, -0.0126953, 0.046875, 0.344727, 0.0410156, -8.27539, 12.8.2021 17:47:56.533
906, 2.024, 358.307, 179.204, -0.0361328, -0.0361328, 0.0439453, -0.00683594, -0.117188, -9.5332, 12.8.2021 17:47:56.541
907, 2.03787, 358.335, 179.183, -0.0273438, -0.0332031, 0.0429688, -0.171875, 0.669922, -9.7832, 12.8.2021 17:47:56.549
908, 2.04486, 358.362, 179.169, -0.00683594, -0.0322266, 0.0380859, -0.880859, 1.2207, -12.5088, 12.8.2021 17:47:56.557
909, 2.04466, 358.376, 179.148, 0.0166016, 0.0078125, 0.0332031, 0.0419922, 0.992188, -11.3867, 12.8.2021 17:47:56.565
910, 2.03053, 358.383, 179.133, 0.0361328, 0.00390625, 0.0244141, 0.34668, 1.18555, -10.6035, 12.8.2021 17:47:56.573
911, 2.00951, 358.39, 179.126, 0.0507812, -0.0107422, 0.0205078, 0.0478516, 1.37793, -9.04883, 12.8.2021 17:47:56.581
912, 1.98145, 358.404, 179.111, 0.0595703, 0.0175781, 0.0234375, 0.192383, 0.838867, -9.03809, 12.8.2021 17:47:56.589
913, 1.95333, 358.397, 179.104, 0.0488281, 0.0351562, 0.0205078, -0.0722656, 0.769531, -9.5791, 12.8.2021 17:47:56.597
914, 1.93919, 358.39, 179.097, 0.0322266, 0.0488281, 0.0166016, 0.269531, 0.576172, -9.78809, 12.8.2021 17:47:56.605
915, 1.92505, 358.383, 179.09, 0.0214844, 0.0166016, 0.0126953, -0.344727, -0.151367, -10.2305, 12.8.2021 17:47:56.613
916, 1.91795, 358.383, 179.083, -0.00390625, 0.0205078, 0.0136719, -0.209961, -0.382812, -9.44824, 12.8.2021 17:47:56.621
917, 1.9248, 358.389, 179.069, -0.0234375, 0.00488281, 0.0185547, 0.249023, -0.513672, -8.26367, 12.8.2021 17:47:56.629
918, 1.93181, 358.403, 179.062, -0.0166016, -0.0292969, 0.0214844, 0.0810547, -0.871094, -8.97266, 12.8.2021 17:47:56.637
919, 1.93884, 358.431, 179.047, -0.0146484, -0.0380859, 0.0253906, 0.154297, -0.553711, -9.42285, 12.8.2021 17:47:56.645
920, 1.95287, 358.459, 179.033, -0.0214844, -0.0419922, 0.0273438, 0.663086, 0.292969, -9.05566, 12.8.2021 17:47:56.653
921, 1.95301, 358.486, 179.025, -0.0107422, -0.0585938, 0.0205078, -0.24707, 0.772461, -11.4043, 12.8.2021 17:47:56.661
922, 1.96006, 358.514, 179.011, -0.00292969, -0.0224609, 0.0185547, -0.625977, 0.75293, -13.2061, 12.8.2021 17:47:56.669
923, 1.96009, 358.528, 179.004, 0.00292969, 0.0292969, 0.0146484, 0.768555, 0.769531, -10.4736, 12.8.2021 17:47:56.677
924, 1.95301, 358.528, 178.997, 0.0146484, 0.00390625, 0.00585938, 0.344727, 0.858398, -9.46289, 12.8.2021 17:47:56.685
925, 1.94602, 358.528, 178.997, 0.0166016, 0.0195312, 0.00585938, -0.0761719, 0.602539, -9.20312, 12.8.2021 17:47:56.693
926, 1.93887, 358.521, 178.99, 0.0117188, 0.0546875, 0.0107422, 0.394531, 0.428711, -8.87012, 12.8.2021 17:47:56.701
927, 1.93175, 358.507, 178.99, 0.015625, 0.0419922, 0.00292969, -0.0078125, 0.735352, -9.58301, 12.8.2021 17:47:56.709
928, 1.92476, 358.507, 178.99, 0.0175781, 0.0166016, -0.00292969, -0.535156, 0.279297, -10.6357, 12.8.2021 17:47:56.717
929, 1.92476, 358.507, 178.99, -0.000976562, 0.00878906, -0.00390625, -0.136719, -0.0917969, -8.92383, 12.8.2021 17:47:56.725
930, 1.92482, 358.514, 178.99, -0.0107422, -0.00390625, -0.0078125, 0.313477, 0.0400391, -8.17188, 12.8.2021 17:47:56.733
931, 1.9251, 358.535, 178.996, -0.000976562, -0.0478516, -0.00683594, 0.151367, -0.110352, -9.22363, 12.8.2021 17:47:56.741
932, 1.92542, 358.57, 178.996, 0.00488281, -0.046875, -0.000976562, 0.426758, -0.233398, -10.0938, 12.8.2021 17:47:56.749
933, 1.92567, 358.598, 178.995, -0.00292969, -0.046875, 0.00683594, 0.614258, 0.205078, -9.80371, 12.8.2021 17:47:56.757
934, 1.92583, 358.626, 178.988, -0.00878906, -0.0449219, 0.0136719, 0.541016, 0.55957, -9.25391, 12.8.2021 17:47:56.765
935, 1.92594, 358.647, 178.98, 0.00390625, -0.0185547, 0.0146484, -0.731445, 0.388672, -13.1719, 12.8.2021 17:47:56.773
936, 1.92591, 358.654, 178.973, 0.00488281, 0.0371094, 0.0136719, 0.663086, 0.572266, -11.3135, 12.8.2021 17:47:56.781
937, 1.92576, 358.647, 178.966, 0.00488281, 0.0283203, 0.0126953, 0.537109, 0.378906, -10.4258, 12.8.2021 17:47:56.789
938, 1.91869, 358.646, 178.959, 0.00585938, 0.00390625, 0.00878906, -0.256836, -0.0078125, -8.86719, 12.8.2021 17:47:56.797
939, 1.91862, 358.639, 178.96, -0.0107422, 0.0537109, 0.00878906, 0.0517578, 0.250977, -8.56738, 12.8.2021 17:47:56.805
940, 1.9254, 358.625, 178.953, -0.015625, 0.0537109, 0.00585938, 0.55957, 0.569336, -8.28125, 12.8.2021 17:47:56.813
941, 1.9254, 358.625, 178.953, 0.00585938, -0.00488281, -0.00488281, -0.693359, 0.305664, -10.6826, 12.8.2021 17:47:56.821
942, 1.92546, 358.632, 178.953, -0.0136719, -0.00390625, -0.000976562, -0.412109, 0.0537109, -9.95703, 12.8.2021 17:47:56.829
943, 1.93951, 358.639, 178.953, -0.0322266, 0.0175781, 0, 0.692383, 0.109375, -8.2793, 12.8.2021 17:47:56.837
944, 1.94657, 358.646, 178.953, -0.00683594, -0.0292969, -0.0078125, 0.566406, 0.209961, -8.68066, 12.8.2021 17:47:56.845
945, 1.94691, 358.674, 178.959, 0.0078125, -0.0488281, -0.00292969, 0.166016, 0.219727, -9.95215, 12.8.2021 17:47:56.853
946, 1.94702, 358.695, 178.952, 0.00488281, -0.0302734, 0.00585938, 0.929688, 0.644531, -8.58301, 12.8.2021 17:47:56.861
947, 1.94029, 358.723, 178.951, 0.0175781, -0.0595703, 0.00488281, -0.933594, 0.644531, -12.1953, 12.8.2021 17:47:56.869
948, 1.92651, 358.744, 178.951, 0.0234375, 0.0117188, 0.00195312, -0.40625, 0.726562, -13.4082, 12.8.2021 17:47:56.877
949, 1.91945, 358.737, 178.951, 0.0146484, 0.0488281, 0.00292969, 1.03809, 0.737305, -10.457, 12.8.2021 17:47:56.885
950, 1.91203, 358.737, 178.944, 0.0166016, -0.015625, 0, 0.117188, 0.875, -9.51758, 12.8.2021 17:47:56.893
951, 1.9051, 358.744, 178.944, 0.0205078, 0.0117188, 0.00292969, -0.113281, -0.0712891, -8.4082, 12.8.2021 17:47:56.901
952, 1.89805, 358.737, 178.944, -0.0078125, 0.0351562, 0.0117188, -0.174805, 0.226562, -8.4375, 12.8.2021 17:47:56.909
953, 1.90489, 358.73, 178.937, -0.0185547, 0.0537109, 0.0107422, 0.435547, 0.235352, -9.76953, 12.8.2021 17:47:56.917
954, 1.91208, 358.723, 178.93, -0.00292969, -0.0107422, 0.00488281, -0.853516, -0.230469, -11.7432, 12.8.2021 17:47:56.925
955, 1.91215, 358.73, 178.93, -0.0244141, 0.0146484, 0.00488281, -0.0908203, -0.398438, -9.42188, 12.8.2021 17:47:56.933
956, 1.93313, 358.73, 178.93, -0.0419922, 0.0126953, 0.00390625, 0.942383, 0.142578, -7.2168, 12.8.2021 17:47:56.941
957, 1.94017, 358.744, 178.923, -0.00195312, -0.0478516, -0.000976562, -0.0371094, 0.00976562, -8.58496, 12.8.2021 17:47:56.949
958, 1.94044, 358.772, 178.923, -0.00488281, -0.0341797, 0.00488281, 0.424805, 0.59375, -8.94727, 12.8.2021 17:47:56.957
959, 1.94064, 358.793, 178.922, -0.00488281, -0.0390625, 0.00683594, 0.0458984, 0.985352, -10.7578, 12.8.2021 17:47:56.965
960, 1.94041, 358.813, 178.915, 0.0214844, -0.0332031, -0.000976562, -1.27051, 1.07129, -14.6396, 12.8.2021 17:47:56.973
961, 1.9265, 358.82, 178.915, 0.0205078, 0.046875, -0.000976562, 1.00391, 0.648438, -10.1855, 12.8.2021 17:47:56.981
962, 1.91952, 358.814, 178.922, 0.0214844, -0.00292969, -0.00390625, 0.560547, 0.592773, -8.26367, 12.8.2021 17:47:56.989
963, 1.9056, 358.821, 178.921, 0.0351562, 0, -0.00585938, -0.541016, 0.382812, -9.34863, 12.8.2021 17:47:56.997
964, 1.89155, 358.814, 178.921, 0.0166016, 0.0546875, 0.00488281, 0.244141, 0.353516, -9.15137, 12.8.2021 17:47:57.005
965, 1.88443, 358.8, 178.921, 0.0126953, 0.0302734, 0.00390625, -0.226562, 0.418945, -10.3418, 12.8.2021 17:47:57.013
966, 1.87744, 358.8, 178.921, 0.0175781, 0.00292969, -0.000976562, -0.619141, 0.0605469, -10.2627, 12.8.2021 17:47:57.021
967, 1.87751, 358.807, 178.921, -0.00585938, -0.000976562, -0.00195312, -0.196289, -0.217773, -8.77734, 12.8.2021 17:47:57.029
968, 1.87757, 358.814, 178.921, -0.0175781, -0.0078125, -0.00585938, 0.558594, -0.0478516, -7.62012, 12.8.2021 17:47:57.037
969, 1.88477, 358.835, 178.921, -0.00683594, -0.0478516, -0.00390625, -0.155273, -0.25, -10.5293, 12.8.2021 17:47:57.045
970, 1.89196, 358.856, 178.921, -0.0166016, -0.0341797, 0.0078125, 0.621094, 0.333984, -9.16016, 12.8.2021 17:47:57.053
971, 1.89914, 358.884, 178.913, -0.00878906, -0.0488281, 0.00878906, -0.294922, 0.665039, -10.7266, 12.8.2021 17:47:57.061
972, 1.89236, 358.905, 178.913, 0.0185547, -0.0205078, 0.00683594, -1.21875, 0.646484, -13.9365, 12.8.2021 17:47:57.069
973, 1.88523, 358.898, 178.906, 0.0166016, 0.0673828, 0.0146484, 1.11328, 0.404297, -9.77832, 12.8.2021 17:47:57.077
974, 1.8781, 358.891, 178.899, 0.0185547, 0.0146484, 0.0126953, 0.28418, 0.786133, -7.98047, 12.8.2021 17:47:57.085
975, 1.86398, 358.884, 178.892, 0.0292969, 0.0224609, 0.0126953, -0.737305, 0.551758, -9.94727, 12.8.2021 17:47:57.093
976, 1.85678, 358.87, 178.885, 0.0126953, 0.0546875, 0.0253906, 0.126953, 0.535156, -9.05273, 12.8.2021 17:47:57.101
977, 1.84957, 358.863, 178.871, 0.00683594, 0.00292969, 0.0224609, -0.74707, 0.737305, -10.2471, 12.8.2021 17:47:57.109
978, 1.84964, 358.876, 178.864, 0.00585938, -0.0390625, 0.0195312, -1.03906, -0.0771484, -10.1045, 12.8.2021 17:47:57.117
979, 1.84971, 358.897, 178.85, -0.0292969, -0.0292969, 0.0253906, -0.0722656, -0.226562, -8.08496, 12.8.2021 17:47:57.125
980, 1.86391, 358.925, 178.842, -0.0361328, -0.0458984, 0.0214844, 0.880859, -0.19043, -6.86621, 12.8.2021 17:47:57.131
981, 1.87811, 358.959, 178.828, -0.0175781, -0.0966797, 0.0214844, -0.303711, -0.295898, -11.0049, 12.8.2021 17:47:57.139
982, 1.8924, 359.001, 178.813, -0.0332031, -0.0537109, 0.03125, 0.332031, 0.198242, -10.3857, 12.8.2021 17:47:57.147
983, 1.89948, 359.022, 178.799, -0.0244141, -0.0175781, 0.0341797, -0.0869141, 1.06836, -12.3506, 12.8.2021 17:47:57.155
984, 1.90649, 359.035, 178.785, 0.0205078, -0.00292969, 0.0302734, -0.742188, 0.326172, -13.0947, 12.8.2021 17:47:57.163
985, 1.89224, 359.021, 178.771, 0.0224609, 0.078125, 0.03125, 0.732422, 0.350586, -8.75488, 12.8.2021 17:47:57.171
986, 1.88489, 359, 178.757, 0.0253906, 0.046875, 0.0234375, 0.294922, 1.07129, -8.24609, 12.8.2021 17:47:57.179
987, 1.8637, 358.986, 178.75, 0.0390625, 0.0136719, 0.0195312, -1.17383, 0.770508, -10.2793, 12.8.2021 17:47:57.187
988, 1.84951, 358.979, 178.736, 0.0214844, 0.0478516, 0.0205078, -0.236328, 1.0498, -9.01367, 12.8.2021 17:47:57.195
989, 1.84245, 358.979, 178.729, 0.0224609, -0.0117188, 0.0107422, -0.650391, 0.21582, -9.03418, 12.8.2021 17:47:57.203
990, 1.83562, 358.993, 178.729, 0.0117188, -0.0400391, -0.000976562, -0.756836, 0.0615234, -9.38672, 12.8.2021 17:47:57.211
991, 1.83594, 359.021, 178.729, -0.00878906, -0.0380859, -0.000976562, 0.185547, -0.322266, -8.59277, 12.8.2021 17:47:57.219
992, 1.83625, 359.049, 178.728, -0.0146484, -0.0478516, -0.00488281, 0.405273, -0.40625, -9.81738, 12.8.2021 17:47:57.227
993, 1.84348, 359.07, 178.728, -0.0078125, -0.0380859, -0.000976562, 0.285156, -0.237305, -11.0225, 12.8.2021 17:47:57.235
994, 1.8507, 359.091, 178.728, -0.0136719, -0.0244141, 0.0078125, 0.421875, 0.298828, -9.89746, 12.8.2021 17:47:57.243
995, 1.8508, 359.105, 178.72, 0.000976562, -0.00292969, 0.0117188, -0.789062, 0.821289, -11.293, 12.8.2021 17:47:57.251
996, 1.84375, 359.105, 178.713, 0.0195312, 0.0458984, 0.015625, -1.01855, 0.322266, -12.2881, 12.8.2021 17:47:57.259
997, 1.83638, 359.077, 178.707, 0.0117188, 0.0976562, 0.0214844, 0.665039, 0.163086, -8.94824, 12.8.2021 17:47:57.267
998, 1.82901, 359.049, 178.7, 0.0195312, 0.0341797, 0.0146484, -0.317383, 0.698242, -8.45703, 12.8.2021 17:47:57.275
999, 1.82188, 359.042, 178.693, 0.0273438, 0.0292969, 0.015625, -0.767578, 0.771484, -9.35742, 12.8.2021 17:47:57.283
1000, 1.80776, 359.035, 178.686, 0.0224609, 0.0273438, 0.0224609, 0.000976562, 0.549805, -8.62012, 12.8.2021 17:47:57.291
1001, 1.80072, 359.042, 178.672, 0.0244141, -0.0253906, 0.0175781, -0.787109, 0.543945, -9.77246, 12.8.2021 17:47:57.299
1002, 1.78693, 359.063, 178.665, 0.0146484, -0.0341797, 0.015625, -0.384766, 0.227539, -9.52051, 12.8.2021 17:47:57.307
1003, 1.78711, 359.084, 178.657, -0.00976562, -0.0341797, 0.015625, 0.0234375, 0.00488281, -9.63477, 12.8.2021 17:47:57.315
1004, 1.79429, 359.104, 178.65, -0.0205078, -0.0292969, 0.015625, 0.452148, -0.321289, -9.63379, 12.8.2021 17:47:57.323
1005, 1.80847, 359.125, 178.643, -0.0263672, -0.03125, 0.0195312, 0.217773, -0.446289, -10.8857, 12.8.2021 17:47:57.331
1006, 1.8225, 359.139, 178.629, -0.0390625, -0.0126953, 0.0224609, 0.455078, -0.0390625, -9.62891, 12.8.2021 17:47:57.339
1007, 1.83659, 359.152, 178.622, -0.0371094, -0.0195312, 0.0234375, -0.970703, 0.508789, -10.9014, 12.8.2021 17:47:57.347
1008, 1.85046, 359.152, 178.608, -0.0195312, 0.0351562, 0.0253906, -0.820312, 0.182617, -11.7988, 12.8.2021 17:47:57.355
1009, 1.85717, 359.138, 178.594, -0.0205078, 0.0771484, 0.03125, 0.779297, 0.0605469, -9.21777, 12.8.2021 17:47:57.363
1010, 1.86387, 359.123, 178.58, -0.00683594, 0.0117188, 0.0273438, -0.464844, 0.814453, -8.97656, 12.8.2021 17:47:57.371
1011, 1.86372, 359.116, 178.573, 0.0126953, 0.0322266, 0.0302734, -0.324219, 0.591797, -9.38574, 12.8.2021 17:47:57.379
1012, 1.85647, 359.109, 178.552, 0.0136719, 0.0175781, 0.0380859, -0.245117, 1.01465, -9.38477, 12.8.2021 17:47:57.387
1013, 1.84246, 359.116, 178.538, 0.0263672, -0.00976562, 0.0351562, -0.748047, 1.23242, -10.2236, 12.8.2021 17:47:57.395
1014, 1.82849, 359.13, 178.517, 0.03125, -0.015625, 0.0361328, -0.220703, 0.508789, -9.1748, 12.8.2021 17:47:57.403
1015, 1.82157, 359.144, 178.503, 0.00976562, -0.0244141, 0.0351562, -0.407227, 0.383789, -9.47559, 12.8.2021 17:47:57.411
1016, 1.82155, 359.15, 178.489, -0.00292969, -0.00292969, 0.0322266, 0.542969, -0.157227, -9.36426, 12.8.2021 17:47:57.419
1017, 1.82162, 359.164, 178.474, -0.015625, -0.0263672, 0.0302734, 0.0244141, -0.400391, -10.7373, 12.8.2021 17:47:57.427
1018, 1.83611, 359.185, 178.46, -0.03125, -0.0302734, 0.0283203, -0.12207, -0.246094, -9.87305, 12.8.2021 17:47:57.435
1019, 1.85027, 359.205, 178.446, -0.0351562, -0.0253906, 0.0263672, -0.100586, -0.202148, -8.74512, 12.8.2021 17:47:57.443
1020, 1.86434, 359.219, 178.432, -0.0205078, -0.0117188, 0.0146484, -0.882812, -0.273438, -11.2314, 12.8.2021 17:47:57.451
