Seq, Rot x, Rot y, Rot z, Vel x, Vel y, Vel z, Acc x, Acc y, Acc z, Time(m.d.y h:m:s.ms)
0, 15.818, 88.7166, 88.0925, 0.000976562, 0, -0.000976562, 9.85938, -0.0820312, -0.282227, 11.29.2021 15:25:11.434
1, 15.818, 88.7166, 88.0925, 0, -0.000976562, 0, 9.86035, -0.0585938, -0.203125, 11.29.2021 15:25:11.438
2, 15.9822, 88.5904, 88.3409, 0, 0, -0.000976562, 9.87695, -0.0498047, -0.231445, 11.29.2021 15:25:11.444
3, 15.8614, 88.4351, 88.3444, 0, -0.000976562, 0, 9.90137, -0.0283203, -0.226562, 11.29.2021 15:25:11.452
4, 15.6519, 88.5875, 88.0087, 0, -0.000976562, -0.000976562, 9.8584, -0.0410156, -0.216797, 11.29.2021 15:25:11.460
5, 15.4881, 88.7134, 87.7603, 0, -0.000976562, -0.000976562, 9.85547, -0.046875, -0.198242, 11.29.2021 15:25:11.468
6, 15.4881, 88.7134, 87.7603, 0.000976562, -0.00195312, -0.000976562, 9.86328, -0.0458984, -0.205078, 11.29.2021 15:25:11.476
7, 15.4881, 88.7134, 87.7603, 0.000976562, -0.00195312, 0, 9.88379, -0.0400391, -0.234375, 11.29.2021 15:25:11.484
8, 15.4881, 88.7134, 87.7603, 0.000976562, -0.000976562, -0.000976562, 9.84863, -0.0654297, -0.214844, 11.29.2021 15:25:11.492
9, 15.0654, 88.5883, 87.4234, 0, -0.000976562, -0.000976562, 9.86816, -0.0722656, -0.21582, 11.29.2021 15:25:11.500
10, 15.0654, 88.5883, 87.4234, 0, -0.000976562, 0, 9.86816, -0.0556641, -0.203125, 11.29.2021 15:25:11.508
11, 15.0654, 88.5883, 87.4234, 0.000976562, -0.000976562, 0, 9.8916, -0.0654297, -0.197266, 11.29.2021 15:25:11.516
12, 15.0654, 88.5883, 87.4234, 0, 0, -0.000976562, 9.875, -0.0595703, -0.244141, 11.29.2021 15:25:11.524
13, 14.901, 88.7143, 87.173, 0, -0.000976562, -0.000976562, 9.85645, -0.0722656, -0.204102, 11.29.2021 15:25:11.532
14, 15.107, 88.5486, 87.5083, -0.00195312, -0.000976562, -0.000976562, 9.84375, -0.0703125, -0.193359, 11.29.2021 15:25:11.540
15, 15.2285, 88.7175, 87.503, -0.00195312, -0.000976562, 0, 9.8418, -0.0566406, -0.183594, 11.29.2021 15:25:11.548
16, 15.2285, 88.7175, 87.503, -0.00195312, -0.000976562, 0.000976562, 9.86035, -0.0488281, -0.257812, 11.29.2021 15:25:11.556
17, 15.2285, 88.7175, 87.503, -0.000976562, -0.000976562, 0, 9.86523, -0.0605469, -0.206055, 11.29.2021 15:25:11.564
18, 15.2285, 88.7175, 87.503, -0.000976562, -0.000976562, 0, 9.88281, -0.0517578, -0.186523, 11.29.2021 15:25:11.572
19, 15.132, 88.595, 87.4955, -0.000976562, -0.000976562, -0.000976562, 9.87695, -0.0351562, -0.243164, 11.29.2021 15:25:11.580
20, 14.9659, 88.7214, 87.2427, -0.000976562, -0.000976562, -0.000976562, 9.87207, -0.0683594, -0.260742, 11.29.2021 15:25:11.588
21, 14.9659, 88.7214, 87.2427, -0.000976562, -0.000976562, 0, 9.84375, -0.09375, -0.223633, 11.29.2021 15:25:11.596
22, 14.9659, 88.7214, 87.2427, -0.000976562, 0, 0, 9.86719, -0.0419922, -0.254883, 11.29.2021 15:25:11.604
23, 14.9659, 88.7214, 87.2427, -0.00195312, -0.000976562, -0.000976562, 9.88672, -0.0488281, -0.257812, 11.29.2021 15:25:11.612
24, 14.9659, 88.7214, 87.2427, -0.000976562, -0.000976562, 0, 9.86816, -0.0625, -0.21582, 11.29.2021 15:25:11.620
25, 14.9659, 88.7214, 87.2427, -0.000976562, -0.000976562, 0, 9.86523, -0.0585938, -0.201172, 11.29.2021 15:25:11.628
26, 14.9659, 88.7214, 87.2427, -0.000976562, 0.000976562, 0.000976562, 9.86816, -0.0634766, -0.179688, 11.29.2021 15:25:11.636
27, 15.1744, 88.5549, 87.5814, 0.000976562, -0.000976562, 0, 9.86816, -0.0712891, -0.167969, 11.29.2021 15:25:11.644
28, 15.1744, 88.5549, 87.5814, -0.000976562, 0, -0.000976562, 9.89355, -0.0693359, -0.232422, 11.29.2021 15:25:11.652
29, 15.1744, 88.5549, 87.5814, -0.000976562, 0, 0, 9.88379, -0.0449219, -0.239258, 11.29.2021 15:25:11.660
30, 15.1744, 88.5549, 87.5814, 0, -0.000976562, -0.000976562, 9.8623, -0.0712891, -0.250977, 11.29.2021 15:25:11.668
31, 15.2972, 88.7247, 87.5762, -0.00195312, -0.000976562, -0.000976562, 9.87598, -0.0546875, -0.171875, 11.29.2021 15:25:11.676
32, 15.2972, 88.7247, 87.5762, 0, -0.000976562, -0.000976562, 9.89453, -0.0898438, -0.180664, 11.29.2021 15:25:11.684
33, 15.2972, 88.7247, 87.5762, -0.000976562, 0, -0.000976562, 9.87988, -0.0625, -0.217773, 11.29.2021 15:25:11.692
34, 15.5083, 88.5579, 87.9175, -0.000976562, 0, -0.000976562, 9.88477, -0.0576172, -0.210938, 11.29.2021 15:25:11.700
35, 15.5083, 88.5579, 87.9175, -0.000976562, -0.000976562, -0.000976562, 9.87695, -0.0546875, -0.246094, 11.29.2021 15:25:11.708
36, 15.3407, 88.6809, 87.6634, -0.00195312, -0.00195312, 0, 9.87305, -0.0654297, -0.196289, 11.29.2021 15:25:11.716
37, 15.3407, 88.6809, 87.6634, -0.000976562, -0.000976562, 0, 9.8916, -0.0683594, -0.242188, 11.29.2021 15:25:11.724
38, 15.4641, 88.8693, 87.6584, -0.000976562, 0, 0, 9.88965, -0.0810547, -0.233398, 11.29.2021 15:25:11.732
39, 15.4641, 88.8693, 87.6584, -0.000976562, 0, -0.000976562, 9.86816, -0.0751953, -0.206055, 11.29.2021 15:25:11.740
40, 15.6315, 88.7279, 87.913, -0.000976562, -0.000976562, 0, 9.86523, -0.0595703, -0.227539, 11.29.2021 15:25:11.748
41, 15.8455, 88.5606, 88.2565, -0.00195312, -0.000976562, 0, 9.88672, -0.0673828, -0.199219, 11.29.2021 15:25:11.756
42, 15.6775, 88.6839, 88.0022, -0.000976562, 0, -0.000976562, 9.8916, -0.0488281, -0.198242, 11.29.2021 15:25:11.764
43, 15.6775, 88.6839, 88.0022, -0.00195312, -0.000976562, 0, 9.86719, -0.0410156, -0.271484, 11.29.2021 15:25:11.772
44, 15.8455, 88.5606, 88.2565, -0.000976562, -0.000976562, 0, 9.86719, -0.0732422, -0.253906, 11.29.2021 15:25:11.780
45, 15.8455, 88.5606, 88.2565, -0.00195312, 0, -0.000976562, 9.875, -0.0761719, -0.227539, 11.29.2021 15:25:11.788
46, 15.9398, 88.68, 88.2618, -0.00195312, -0.000976562, -0.000976562, 9.87402, -0.046875, -0.262695, 11.29.2021 15:25:11.796
47, 15.9398, 88.68, 88.2618, 0, -0.000976562, 0, 9.88281, -0.0732422, -0.18457, 11.29.2021 15:25:11.804
48, 15.9398, 88.68, 88.2618, 0, -0.000976562, 0, 9.89941, -0.0458984, -0.194336, 11.29.2021 15:25:11.812
49, 15.9398, 88.68, 88.2618, 0.000976562, -0.000976562, -0.000976562, 9.875, -0.0488281, -0.203125, 11.29.2021 15:25:11.820
50, 15.9398, 88.68, 88.2618, -0.000976562, -0.00195312, -0.000976562, 9.87305, -0.0605469, -0.212891, 11.29.2021 15:25:11.828
51, 15.9398, 88.68, 88.2618, 0, -0.000976562, -0.000976562, 9.8584, -0.0556641, -0.203125, 11.29.2021 15:25:11.836
52, 15.7727, 88.8155, 88.0083, -0.000976562, -0.000976562, -0.00195312, 9.87793, -0.0869141, -0.202148, 11.29.2021 15:25:11.844
53, 15.7727, 88.8155, 88.0083, 0, 0, -0.000976562, 9.8623, -0.0820312, -0.263672, 11.29.2021 15:25:11.852
54, 15.7727, 88.8155, 88.0083, 0, 0, -0.000976562, 9.88965, -0.0839844, -0.208984, 11.29.2021 15:25:11.860
55, 15.7727, 88.8155, 88.0083, 0, 0, -0.000976562, 9.88477, -0.0361328, -0.219727, 11.29.2021 15:25:11.868
56, 15.6775, 88.6839, 88.0022, 0, 0.000976562, -0.000976562, 9.87695, -0.0595703, -0.229492, 11.29.2021 15:25:11.876
57, 15.6775, 88.6839, 88.0022, 0.000976562, 0, -0.00195312, 9.88184, -0.0517578, -0.246094, 11.29.2021 15:25:11.884
58, 15.6775, 88.6839, 88.0022, 0, -0.000976562, -0.000976562, 9.86328, -0.0605469, -0.203125, 11.29.2021 15:25:11.892
59, 15.6775, 88.6839, 88.0022, 0.000976562, -0.000976562, -0.000976562, 9.85352, -0.0673828, -0.208008, 11.29.2021 15:25:11.900
60, 15.6775, 88.6839, 88.0022, 0.000976562, -0.000976562, -0.000976562, 9.8584, -0.0488281, -0.205078, 11.29.2021 15:25:11.908
61, 15.6775, 88.6839, 88.0022, 0, 0, -0.000976562, 9.87695, -0.0566406, -0.239258, 11.29.2021 15:25:11.916
62, 15.6775, 88.6839, 88.0022, 0, 0, -0.00195312, 9.88379, -0.078125, -0.242188, 11.29.2021 15:25:11.924
63, 15.6775, 88.6839, 88.0022, 0, -0.000976562, -0.000976562, 9.87402, -0.0498047, -0.246094, 11.29.2021 15:25:11.932
64, 15.6775, 88.6839, 88.0022, -0.000976562, 0, -0.000976562, 9.87695, -0.0664062, -0.249023, 11.29.2021 15:25:11.940
65, 15.6775, 88.6839, 88.0022, 0, -0.000976562, -0.000976562, 9.86523, -0.0742188, -0.217773, 11.29.2021 15:25:11.948
66, 15.6775, 88.6839, 88.0022, 0, 0, -0.000976562, 9.89258, -0.0654297, -0.1875, 11.29.2021 15:25:11.956
67, 15.6775, 88.6839, 88.0022, 0.000976562, 0, -0.000976562, 9.8916, -0.0693359, -0.235352, 11.29.2021 15:25:11.964
68, 15.6775, 88.6839, 88.0022, 0.000976562, -0.000976562, -0.000976562, 9.88184, -0.0761719, -0.220703, 11.29.2021 15:25:11.972
69, 15.8455, 88.5606, 88.2565, 0, -0.000976562, 0, 9.86816, -0.0556641, -0.209961, 11.29.2021 15:25:11.980
70, 15.8455, 88.5606, 88.2565, 0, 0, -0.000976562, 9.87988, -0.0341797, -0.203125, 11.29.2021 15:25:11.988
71, 15.8455, 88.5606, 88.2565, 0, 0, 0, 9.85742, -0.0410156, -0.226562, 11.29.2021 15:25:11.996
72, 15.6775, 88.6839, 88.0022, 0, 0, 0, 9.86328, -0.0322266, -0.188477, 11.29.2021 15:25:12.004
73, 15.6775, 88.6839, 88.0022, 0, -0.000976562, 0, 9.87988, -0.046875, -0.191406, 11.29.2021 15:25:12.012
74, 15.6775, 88.6839, 88.0022, 0, -0.00195312, 0, 9.87988, -0.0595703, -0.229492, 11.29.2021 15:25:12.020
75, 15.6775, 88.6839, 88.0022, 0, -0.000976562, -0.000976562, 9.8418, -0.046875, -0.200195, 11.29.2021 15:25:12.028
76, 15.6775, 88.6839, 88.0022, -0.000976562, 0, -0.000976562, 9.85254, -0.0546875, -0.250977, 11.29.2021 15:25:12.036
77, 15.6775, 88.6839, 88.0022, -0.000976562, 0, 0, 9.86035, -0.0527344, -0.209961, 11.29.2021 15:25:12.044
78, 15.6775, 88.6839, 88.0022, -0.00195312, -0.000976562, 0, 9.86523, -0.100586, -0.223633, 11.29.2021 15:25:12.052
79, 15.5091, 88.82, 87.7464, 0, -0.000976562, 0, 9.87305, -0.0771484, -0.206055, 11.29.2021 15:25:12.060
80, 15.5091, 88.82, 87.7464, -0.000976562, -0.000976562, -0.000976562, 9.89355, -0.0576172, -0.222656, 11.29.2021 15:25:12.068
81, 15.6775, 88.6839, 88.0022, 0, -0.00195312, -0.000976562, 9.85059, -0.0927734, -0.237305, 11.29.2021 15:25:12.076
82, 15.6775, 88.6839, 88.0022, -0.00195312, -0.000976562, -0.000976562, 9.86035, -0.0439453, -0.200195, 11.29.2021 15:25:12.084
83, 15.6775, 88.6839, 88.0022, -0.00195312, -0.000976562, -0.000976562, 9.88867, -0.0664062, -0.237305, 11.29.2021 15:25:12.092
84, 15.6775, 88.6839, 88.0022, -0.00195312, 0, -0.000976562, 9.86914, -0.0439453, -0.257812, 11.29.2021 15:25:12.100
85, 15.5536, 88.5189, 88.0065, 0, -0.00195312, -0.000976562, 9.85352, -0.0478516, -0.216797, 11.29.2021 15:25:12.108
86, 15.385, 88.6383, 87.7513, -0.00195312, 0, -0.000976562, 9.89648, -0.0556641, -0.189453, 11.29.2021 15:25:12.116
87, 15.385, 88.6383, 87.7513, 0, 0, 0, 9.89453, -0.0800781, -0.19043, 11.29.2021 15:25:12.124
88, 15.5091, 88.82, 87.7464, 0, 0, 0, 9.87695, -0.0507812, -0.206055, 11.29.2021 15:25:12.132
89, 15.5091, 88.82, 87.7464, -0.00195312, 0, 0, 9.87695, -0.0546875, -0.241211, 11.29.2021 15:25:12.140
90, 15.5091, 88.82, 87.7464, -0.000976562, 0, -0.000976562, 9.8584, -0.0839844, -0.210938, 11.29.2021 15:25:12.148
91, 15.5091, 88.82, 87.7464, 0.000976562, -0.000976562, 0, 9.8584, -0.0771484, -0.21582, 11.29.2021 15:25:12.156
92, 15.5091, 88.82, 87.7464, 0, -0.000976562, 0, 9.85059, -0.0673828, -0.227539, 11.29.2021 15:25:12.164
93, 15.724, 88.6414, 88.0923, -0.00195312, -0.000976562, 0, 9.87012, -0.0742188, -0.21582, 11.29.2021 15:25:12.172
94, 15.893, 88.5217, 88.3477, 0, 0, 0, 9.88867, -0.0732422, -0.256836, 11.29.2021 15:25:12.180
95, 15.9877, 88.6376, 88.3527, 0, 0, 0, 9.87012, -0.0605469, -0.212891, 11.29.2021 15:25:12.188
96, 15.9877, 88.6376, 88.3527, 0, -0.000976562, 0.000976562, 9.90137, -0.0292969, -0.188477, 11.29.2021 15:25:12.196
97, 15.9877, 88.6376, 88.3527, 0, -0.000976562, 0, 9.88965, -0.0488281, -0.196289, 11.29.2021 15:25:12.204
98, 15.9877, 88.6376, 88.3527, -0.000976562, 0, -0.000976562, 9.87793, -0.0742188, -0.208984, 11.29.2021 15:25:12.212
99, 15.9877, 88.6376, 88.3527, 0, -0.000976562, 0, 9.8916, -0.0458984, -0.219727, 11.29.2021 15:25:12.220
100, 15.9877, 88.6376, 88.3527, 0, -0.000976562, 0, 9.87988, -0.0800781, -0.24707, 11.29.2021 15:25:12.228
101, 15.9877, 88.6376, 88.3527, -0.000976562, -0.000976562, -0.000976562, 9.87012, -0.0449219, -0.243164, 11.29.2021 15:25:12.236
102, 15.9877, 88.6376, 88.3527, -0.000976562, -0.000976562, -0.000976562, 9.85352, -0.0380859, -0.22168, 11.29.2021 15:25:12.244
103, 15.9877, 88.6376, 88.3527, -0.00195312, -0.000976562, -0.000976562, 9.88965, -0.0576172, -0.210938, 11.29.2021 15:25:12.252
104, 15.9877, 88.6376, 88.3527, 0, -0.000976562, 0, 9.875, -0.0429688, -0.216797, 11.29.2021 15:25:12.260
105, 15.9877, 88.6376, 88.3527, 0, 0, 0, 9.875, -0.0839844, -0.21582, 11.29.2021 15:25:12.268
106, 15.8196, 88.7685, 88.0981, -0.000976562, -0.000976562, -0.000976562, 9.86816, -0.0771484, -0.220703, 11.29.2021 15:25:12.276
107, 15.9877, 88.6376, 88.3527, -0.000976562, -0.000976562, -0.000976562, 9.87988, -0.0742188, -0.225586, 11.29.2021 15:25:12.284
108, 15.9877, 88.6376, 88.3527, -0.000976562, -0.000976562, -0.000976562, 9.8623, -0.0380859, -0.223633, 11.29.2021 15:25:12.292
109, 15.8196, 88.7685, 88.0981, -0.000976562, 0, -0.000976562, 9.87988, -0.0224609, -0.207031, 11.29.2021 15:25:12.300
110, 15.8196, 88.7685, 88.0981, 0.000976562, -0.00195312, 0, 9.87012, -0.0537109, -0.188477, 11.29.2021 15:25:12.308
111, 15.8196, 88.7685, 88.0981, 0, -0.000976562, 0, 9.88184, -0.0615234, -0.239258, 11.29.2021 15:25:12.316
112, 15.724, 88.6414, 88.0923, 0, -0.000976562, 0, 9.88477, -0.0712891, -0.235352, 11.29.2021 15:25:12.324
113, 15.8196, 88.7685, 88.0981, -0.000976562, -0.000976562, -0.000976562, 9.86816, -0.0859375, -0.228516, 11.29.2021 15:25:12.332
114, 15.8196, 88.7685, 88.0981, 0, -0.000976562, -0.000976562, 9.87012, -0.0664062, -0.249023, 11.29.2021 15:25:12.340
115, 15.8196, 88.7685, 88.0981, 0, -0.000976562, 0, 9.86035, -0.0771484, -0.210938, 11.29.2021 15:25:12.348
116, 15.8196, 88.7685, 88.0981, -0.000976562, 0, -0.000976562, 9.85156, -0.0751953, -0.199219, 11.29.2021 15:25:12.356
117, 15.8196, 88.7685, 88.0981, 0, -0.00195312, -0.000976562, 9.86035, -0.0820312, -0.213867, 11.29.2021 15:25:12.364
118, 15.8196, 88.7685, 88.0981, -0.000976562, -0.000976562, -0.000976562, 9.85547, -0.0693359, -0.239258, 11.29.2021 15:25:12.372
119, 15.9877, 88.6376, 88.3527, 0.000976562, -0.000976562, -0.000976562, 9.86035, -0.0527344, -0.212891, 11.29.2021 15:25:12.380
120, 15.864, 88.4775, 88.3563, 0, -0.000976562, -0.000976562, 9.88672, -0.0419922, -0.239258, 11.29.2021 15:25:12.388
121, 15.6496, 88.6346, 88.0126, 0, -0.000976562, -0.00195312, 9.88672, -0.0185547, -0.226562, 11.29.2021 15:25:12.396
122, 15.6496, 88.6346, 88.0126, 0, 0.000976562, -0.000976562, 9.8623, -0.0439453, -0.264648, 11.29.2021 15:25:12.404
123, 15.6496, 88.6346, 88.0126, -0.000976562, 0, -0.000976562, 9.86816, -0.0859375, -0.225586, 11.29.2021 15:25:12.412
124, 15.6496, 88.6346, 88.0126, 0, -0.000976562, -0.000976562, 9.87988, -0.0742188, -0.21582, 11.29.2021 15:25:12.420
125, 15.6496, 88.6346, 88.0126, 0, -0.000976562, -0.000976562, 9.86523, -0.0625, -0.21582, 11.29.2021 15:25:12.428
126, 15.6496, 88.6346, 88.0126, 0, -0.000976562, 0, 9.875, -0.0625, -0.210938, 11.29.2021 15:25:12.436
127, 15.6496, 88.6346, 88.0126, 0.000976562, -0.000976562, 0, 9.88965, -0.0390625, -0.203125, 11.29.2021 15:25:12.444
128, 15.6496, 88.6346, 88.0126, 0, 0, -0.000976562, 9.88672, -0.0556641, -0.206055, 11.29.2021 15:25:12.452
129, 15.6496, 88.6346, 88.0126, 0, 0, 0, 9.89941, -0.046875, -0.181641, 11.29.2021 15:25:12.460
130, 15.482, 88.7652, 87.7582, -0.000976562, -0.000976562, 0, 9.86523, -0.0722656, -0.206055, 11.29.2021 15:25:12.468
131, 15.482, 88.7652, 87.7582, -0.000976562, -0.000976562, 0, 9.86816, -0.0537109, -0.193359, 11.29.2021 15:25:12.476
132, 15.482, 88.7652, 87.7582, 0, 0, -0.000976562, 9.86035, -0.0751953, -0.210938, 11.29.2021 15:25:12.484
133, 15.6958, 88.5935, 88.1022, 0, 0, -0.000976562, 9.85352, -0.0625, -0.219727, 11.29.2021 15:25:12.492
134, 15.6958, 88.5935, 88.1022, 0, -0.000976562, -0.000976562, 9.88184, -0.0644531, -0.239258, 11.29.2021 15:25:12.500
135, 15.6958, 88.5935, 88.1022, 0, -0.000976562, -0.000976562, 9.8457, -0.0673828, -0.229492, 11.29.2021 15:25:12.508
136, 15.6958, 88.5935, 88.1022, -0.000976562, -0.000976562, 0, 9.8623, -0.0498047, -0.229492, 11.29.2021 15:25:12.516
137, 15.6958, 88.5935, 88.1022, -0.000976562, 0, 0, 9.87207, -0.0742188, -0.227539, 11.29.2021 15:25:12.524
138, 15.6958, 88.5935, 88.1022, -0.000976562, 0, -0.000976562, 9.87695, -0.0361328, -0.22168, 11.29.2021 15:25:12.532
139, 15.6958, 88.5935, 88.1022, 0, 0.000976562, -0.00195312, 9.83398, -0.0507812, -0.209961, 11.29.2021 15:25:12.540
140, 15.4299, 88.5971, 87.8402, 0, 0, -0.000976562, 9.86719, -0.0361328, -0.22168, 11.29.2021 15:25:12.548
141, 15.4299, 88.5971, 87.8402, 0.000976562, -0.000976562, 0, 9.90332, -0.0517578, -0.229492, 11.29.2021 15:25:12.556
142, 15.4299, 88.5971, 87.8402, 0.000976562, -0.000976562, 0, 9.8916, -0.078125, -0.240234, 11.29.2021 15:25:12.564
143, 15.4299, 88.5971, 87.8402, 0.000976562, 0, 0, 9.86523, -0.0478516, -0.229492, 11.29.2021 15:25:12.570
144, 15.2162, 88.7693, 87.4944, 0, 0, 0, 9.87695, -0.0585938, -0.255859, 11.29.2021 15:25:12.580
145, 15.385, 88.6383, 87.7513, 0, -0.000976562, 0, 9.90332, -0.0712891, -0.237305, 11.29.2021 15:25:12.586
146, 15.385, 88.6383, 87.7513, 0, -0.000976562, -0.000976562, 9.8877, -0.0800781, -0.192383, 11.29.2021 15:25:12.594
147, 15.482, 88.7652, 87.7582, -0.000976562, -0.000976562, -0.000976562, 9.87988, -0.078125, -0.180664, 11.29.2021 15:25:12.602
148, 15.482, 88.7652, 87.7582, 0.000976562, 0, -0.000976562, 9.90625, -0.0478516, -0.227539, 11.29.2021 15:25:12.610
149, 15.482, 88.7652, 87.7582, 0, -0.000976562, -0.000976562, 9.875, -0.0673828, -0.217773, 11.29.2021 15:25:12.618
150, 15.482, 88.7652, 87.7582, 0, -0.00195312, -0.000976562, 9.88672, -0.0595703, -0.239258, 11.29.2021 15:25:12.626
151, 15.482, 88.7652, 87.7582, -0.000976562, -0.000976562, -0.000976562, 9.88477, -0.0605469, -0.210938, 11.29.2021 15:25:12.634
152, 15.482, 88.7652, 87.7582, 0, -0.000976562, -0.000976562, 9.9082, -0.0859375, -0.214844, 11.29.2021 15:25:12.642
153, 15.482, 88.7652, 87.7582, 0, -0.000976562, -0.000976562, 9.88379, -0.0449219, -0.234375, 11.29.2021 15:25:12.650
154, 15.482, 88.7652, 87.7582, 0, -0.000976562, 0, 9.89355, -0.046875, -0.25293, 11.29.2021 15:25:12.658
155, 15.482, 88.7652, 87.7582, -0.000976562, -0.000976562, 0, 9.88672, -0.0439453, -0.255859, 11.29.2021 15:25:12.666
156, 15.3584, 88.5907, 87.763, 0, -0.00195312, 0, 9.89844, -0.0927734, -0.241211, 11.29.2021 15:25:12.674
157, 15.3584, 88.5907, 87.763, 0, -0.000976562, 0, 9.86328, -0.0556641, -0.208008, 11.29.2021 15:25:12.682
158, 15.3584, 88.5907, 87.763, 0, -0.000976562, -0.000976562, 9.88281, -0.0800781, -0.202148, 11.29.2021 15:25:12.690
159, 15.455, 88.7128, 87.7698, 0.000976562, 0, 0, 9.86816, -0.0605469, -0.217773, 11.29.2021 15:25:12.698
160, 15.6219, 88.5869, 88.0228, 0, 0, -0.000976562, 9.86719, -0.0898438, -0.271484, 11.29.2021 15:25:12.706
161, 15.6219, 88.5869, 88.0228, 0.000976562, -0.000976562, 0, 9.87891, -0.0634766, -0.250977, 11.29.2021 15:25:12.714
162, 15.4108, 88.7576, 87.6825, 0, -0.000976562, -0.000976562, 9.88379, -0.0449219, -0.239258, 11.29.2021 15:25:12.722
163, 15.4108, 88.7576, 87.6825, -0.000976562, -0.000976562, 0, 9.88672, -0.0527344, -0.208008, 11.29.2021 15:25:12.730
164, 15.4108, 88.7576, 87.6825, 0, 0, 0, 9.86523, -0.0546875, -0.224609, 11.29.2021 15:25:12.738
165, 15.4108, 88.7576, 87.6825, -0.000976562, -0.000976562, -0.000976562, 9.87988, -0.0488281, -0.208008, 11.29.2021 15:25:12.746
166, 15.4108, 88.7576, 87.6825, -0.000976562, 0, -0.000976562, 9.88477, -0.0458984, -0.208008, 11.29.2021 15:25:12.754
167, 15.4108, 88.7576, 87.6825, 0, 0, -0.000976562, 9.87988, -0.0771484, -0.207031, 11.29.2021 15:25:12.762
168, 15.4108, 88.7576, 87.6825, 0, -0.00195312, 0, 9.88281, -0.0634766, -0.18457, 11.29.2021 15:25:12.770
169, 15.4108, 88.7576, 87.6825, 0, -0.000976562, 0, 9.87012, -0.0751953, -0.189453, 11.29.2021 15:25:12.778
170, 15.6219, 88.5869, 88.0228, 0, -0.000976562, 0, 9.87305, -0.0517578, -0.188477, 11.29.2021 15:25:12.786
171, 15.6219, 88.5869, 88.0228, -0.000976562, 0, 0, 9.86621, -0.0351562, -0.166992, 11.29.2021 15:25:12.794
172, 15.6219, 88.5869, 88.0228, -0.000976562, -0.000976562, 0, 9.875, -0.078125, -0.242188, 11.29.2021 15:25:12.802
173, 15.6219, 88.5869, 88.0228, -0.000976562, -0.000976562, 0, 9.875, -0.0869141, -0.199219, 11.29.2021 15:25:12.810
174, 15.7446, 88.7611, 88.0186, 0, -0.000976562, -0.000976562, 9.8623, -0.0761719, -0.237305, 11.29.2021 15:25:12.818
175, 15.9584, 88.5897, 88.3613, 0, -0.000976562, -0.000976562, 9.85059, -0.0771484, -0.220703, 11.29.2021 15:25:12.826
176, 15.9584, 88.5897, 88.3613, 0, 0, -0.000976562, 9.87012, -0.0498047, -0.236328, 11.29.2021 15:25:12.834
177, 15.9584, 88.5897, 88.3613, -0.000976562, -0.000976562, 0, 9.87207, -0.0722656, -0.220703, 11.29.2021 15:25:12.842
178, 15.7911, 88.7158, 88.108, 0, -0.000976562, 0, 9.87988, -0.0253906, -0.192383, 11.29.2021 15:25:12.850
179, 15.7911, 88.7158, 88.108, 0, 0, -0.000976562, 9.88965, -0.0576172, -0.220703, 11.29.2021 15:25:12.858
180, 15.7911, 88.7158, 88.108, 0, -0.000976562, -0.000976562, 9.89453, -0.0556641, -0.199219, 11.29.2021 15:25:12.866
181, 15.7911, 88.7158, 88.108, 0, -0.000976562, 0, 9.86523, -0.0957031, -0.240234, 11.29.2021 15:25:12.874
182, 15.9142, 88.9103, 88.1039, 0, -0.000976562, -0.000976562, 9.88281, -0.078125, -0.185547, 11.29.2021 15:25:12.882
183, 16.1301, 88.7192, 88.4494, 0, -0.000976562, -0.000976562, 9.87988, -0.0605469, -0.196289, 11.29.2021 15:25:12.890
184, 16.1301, 88.7192, 88.4494, -0.000976562, 0, -0.000976562, 9.89258, -0.0546875, -0.169922, 11.29.2021 15:25:12.898
185, 16.0361, 88.5964, 88.4446, 0, -0.000976562, -0.000976562, 9.88477, -0.0644531, -0.21582, 11.29.2021 15:25:12.906
186, 16.0361, 88.5964, 88.4446, -0.000976562, -0.000976562, -0.000976562, 9.8877, -0.0615234, -0.179688, 11.29.2021 15:25:12.914
187, 16.2101, 88.7262, 88.5343, 0.000976562, -0.000976562, -0.000976562, 9.85742, -0.0693359, -0.237305, 11.29.2021 15:25:12.922
188, 16.2101, 88.7262, 88.5343, 0, 0, 0, 9.86719, -0.0595703, -0.222656, 11.29.2021 15:25:12.930
189, 16.2101, 88.7262, 88.5343, 0, -0.000976562, -0.000976562, 9.85547, -0.0595703, -0.229492, 11.29.2021 15:25:12.938
190, 16.2101, 88.7262, 88.5343, 0, -0.000976562, -0.000976562, 9.90332, -0.0332031, -0.236328, 11.29.2021 15:25:12.946
191, 16.2101, 88.7262, 88.5343, -0.000976562, -0.00195312, 0, 9.87891, -0.0400391, -0.243164, 11.29.2021 15:25:12.954
192, 16.2101, 88.7262, 88.5343, 0, -0.000976562, -0.000976562, 9.87988, -0.0576172, -0.219727, 11.29.2021 15:25:12.962
193, 16.2101, 88.7262, 88.5343, 0, -0.000976562, -0.000976562, 9.87012, -0.0693359, -0.217773, 11.29.2021 15:25:12.970
194, 16.2101, 88.7262, 88.5343, 0, -0.000976562, 0, 9.87012, -0.0576172, -0.224609, 11.29.2021 15:25:12.978
195, 16.2101, 88.7262, 88.5343, 0, 0, -0.000976562, 9.85547, -0.0722656, -0.220703, 11.29.2021 15:25:12.986
196, 16.2101, 88.7262, 88.5343, 0, -0.000976562, -0.000976562, 9.86719, -0.0615234, -0.234375, 11.29.2021 15:25:12.994
197, 16.0852, 88.5564, 88.5375, -0.000976562, -0.000976562, 0, 9.87988, -0.0576172, -0.21582, 11.29.2021 15:25:13.002
198, 16.0852, 88.5564, 88.5375, 0, -0.000976562, -0.000976562, 9.8623, -0.0566406, -0.236328, 11.29.2021 15:25:13.010
199, 15.8671, 88.7231, 88.1886, 0, -0.000976562, -0.000976562, 9.89355, -0.0712891, -0.24707, 11.29.2021 15:25:13.018
200, 15.8671, 88.7231, 88.1886, -0.000976562, -0.00195312, -0.000976562, 9.85547, -0.0693359, -0.227539, 11.29.2021 15:25:13.026
201, 15.8671, 88.7231, 88.1886, 0, -0.00292969, 0, 9.86719, -0.0664062, -0.242188, 11.29.2021 15:25:13.034
202, 15.8671, 88.7231, 88.1886, 0, -0.00195312, 0, 9.87988, -0.0644531, -0.234375, 11.29.2021 15:25:13.042
203, 15.8671, 88.7231, 88.1886, -0.000976562, -0.000976562, -0.000976562, 9.85352, -0.078125, -0.179688, 11.29.2021 15:25:13.050
204, 15.8381, 88.6723, 88.1981, -0.000976562, -0.00195312, -0.00195312, 9.87207, -0.0498047, -0.243164, 11.29.2021 15:25:13.058
205, 15.8381, 88.6723, 88.1981, 0, -0.000976562, -0.000976562, 9.86719, -0.0361328, -0.216797, 11.29.2021 15:25:13.066
206, 15.8381, 88.6723, 88.1981, 0, 0, 0, 9.875, -0.0644531, -0.21582, 11.29.2021 15:25:13.074
207, 15.6235, 88.8557, 87.8533, 0, 0, -0.000976562, 9.85059, -0.0712891, -0.253906, 11.29.2021 15:25:13.082
208, 15.7911, 88.7158, 88.108, 0, 0, -0.000976562, 9.84375, -0.0546875, -0.231445, 11.29.2021 15:25:13.090
209, 15.7911, 88.7158, 88.108, 0, 0, -0.000976562, 9.85059, -0.0478516, -0.219727, 11.29.2021 15:25:13.098
210, 15.7911, 88.7158, 88.108, 0, 0, -0.000976562, 9.88672, -0.0878906, -0.230469, 11.29.2021 15:25:13.106
211, 15.7911, 88.7158, 88.108, 0, 0, 0, 9.87988, -0.0625, -0.210938, 11.29.2021 15:25:13.114
212, 15.6677, 88.5473, 88.1121, 0, 0.000976562, -0.000976562, 9.88184, -0.0439453, -0.196289, 11.29.2021 15:25:13.122
213, 15.6677, 88.5473, 88.1121, -0.000976562, 0, -0.000976562, 9.89648, -0.0751953, -0.197266, 11.29.2021 15:25:13.130
214, 15.6677, 88.5473, 88.1121, -0.000976562, 0.000976562, 0, 9.86035, -0.0732422, -0.24707, 11.29.2021 15:25:13.138
215, 15.7911, 88.7158, 88.108, 0, 0.000976562, 0.000976562, 9.89355, -0.0527344, -0.217773, 11.29.2021 15:25:13.146
216, 15.7911, 88.7158, 88.108, -0.000976562, 0.000976562, 0, 9.86719, -0.0654297, -0.258789, 11.29.2021 15:25:13.154
217, 15.7627, 88.6654, 88.1178, -0.000976562, 0, 0, 9.85059, -0.0527344, -0.231445, 11.29.2021 15:25:13.162
218, 15.7627, 88.6654, 88.1178, 0, 0, 0, 9.85059, -0.0556641, -0.216797, 11.29.2021 15:25:13.170
219, 15.7627, 88.6654, 88.1178, 0.000976562, -0.00195312, 0, 9.86719, -0.0488281, -0.267578, 11.29.2021 15:25:13.178
220, 15.7627, 88.6654, 88.1178, 0.000976562, 0, -0.000976562, 9.87402, -0.0449219, -0.243164, 11.29.2021 15:25:13.186
221, 15.7627, 88.6654, 88.1178, 0.000976562, 0.000976562, 0, 9.87793, -0.0488281, -0.191406, 11.29.2021 15:25:13.194
222, 15.5506, 88.8478, 87.7765, 0, -0.00195312, -0.000976562, 9.86035, -0.0605469, -0.217773, 11.29.2021 15:25:13.202
223, 15.5506, 88.8478, 87.7765, 0, 0.000976562, 0, 9.8584, -0.0869141, -0.208984, 11.29.2021 15:25:13.210
224, 15.5506, 88.8478, 87.7765, 0, 0.000976562, -0.000976562, 9.82422, -0.0673828, -0.209961, 11.29.2021 15:25:13.218
225, 15.5506, 88.8478, 87.7765, 0, 0, -0.000976562, 9.85059, -0.0478516, -0.22168, 11.29.2021 15:25:13.226
226, 15.5506, 88.8478, 87.7765, 0, 0, -0.000976562, 9.87402, -0.0615234, -0.250977, 11.29.2021 15:25:13.234
227, 15.5506, 88.8478, 87.7765, 0, 0, 0, 9.89648, -0.0595703, -0.239258, 11.29.2021 15:25:13.242
228, 15.4283, 88.6624, 87.7813, 0.000976562, 0, -0.000976562, 9.84766, -0.0517578, -0.248047, 11.29.2021 15:25:13.250
229, 15.5945, 88.5409, 88.033, 0.000976562, 0, 0, 9.89551, -0.0566406, -0.255859, 11.29.2021 15:25:13.258
230, 15.5945, 88.5409, 88.033, 0, 0.000976562, 0, 9.88867, -0.0585938, -0.244141, 11.29.2021 15:25:13.266
231, 15.3845, 88.7055, 87.6944, 0, 0.000976562, -0.000976562, 9.88672, -0.0478516, -0.231445, 11.29.2021 15:25:13.274
232, 15.3845, 88.7055, 87.6944, 0.000976562, 0, -0.000976562, 9.8457, -0.03125, -0.235352, 11.29.2021 15:25:13.282
233, 15.3845, 88.7055, 87.6944, 0, 0, 0, 9.85059, -0.0429688, -0.21875, 11.29.2021 15:25:13.290
234, 15.2627, 88.5381, 87.6993, 0, 0, 0, 9.8418, -0.0820312, -0.220703, 11.29.2021 15:25:13.298
235, 15.2627, 88.5381, 87.6993, 0, 0.000976562, 0, 9.85352, -0.0722656, -0.210938, 11.29.2021 15:25:13.306
236, 15.2627, 88.5381, 87.6993, 0, 0.000976562, 0, 9.88965, -0.0498047, -0.219727, 11.29.2021 15:25:13.314
237, 15.2627, 88.5381, 87.6993, -0.000976562, 0.000976562, -0.00195312, 9.875, -0.0654297, -0.208008, 11.29.2021 15:25:13.322
238, 15.2627, 88.5381, 87.6993, -0.000976562, 0, 0, 9.8916, -0.0644531, -0.230469, 11.29.2021 15:25:13.330
239, 15.2627, 88.5381, 87.6993, -0.000976562, -0.000976562, 0, 9.88672, -0.0244141, -0.211914, 11.29.2021 15:25:13.338
240, 15.2627, 88.5381, 87.6993, -0.000976562, 0, -0.000976562, 9.89355, -0.0517578, -0.255859, 11.29.2021 15:25:13.346
241, 15.0554, 88.7023, 87.3628, -0.000976562, -0.000976562, 0, 9.87695, -0.0332031, -0.216797, 11.29.2021 15:25:13.354
242, 14.8904, 88.8406, 87.1107, -0.000976562, -0.000976562, 0, 9.87695, -0.0507812, -0.212891, 11.29.2021 15:25:13.362
243, 14.8904, 88.8406, 87.1107, -0.000976562, -0.000976562, -0.000976562, 9.88184, -0.0517578, -0.239258, 11.29.2021 15:25:13.370
244, 14.7688, 88.6562, 87.1169, 0.000976562, -0.000976562, -0.000976562, 9.88672, -0.0429688, -0.224609, 11.29.2021 15:25:13.378
245, 14.7688, 88.6562, 87.1169, -0.000976562, -0.000976562, -0.000976562, 9.87207, -0.0810547, -0.24707, 11.29.2021 15:25:13.386
246, 14.7688, 88.6562, 87.1169, -0.000976562, -0.000976562, -0.000976562, 9.8457, -0.0644531, -0.236328, 11.29.2021 15:25:13.394
247, 14.7688, 88.6562, 87.1169, -0.000976562, -0.000976562, 0, 9.86719, -0.0712891, -0.239258, 11.29.2021 15:25:13.402
248, 14.5648, 88.837, 86.7827, -0.000976562, -0.000976562, -0.000976562, 9.90625, -0.0644531, -0.210938, 11.29.2021 15:25:13.410
249, 14.5648, 88.837, 86.7827, -0.000976562, -0.000976562, -0.00195312, 9.87207, -0.0576172, -0.222656, 11.29.2021 15:25:13.418
250, 14.5648, 88.837, 86.7827, -0.000976562, -0.000976562, -0.00195312, 9.87305, -0.0800781, -0.199219, 11.29.2021 15:25:13.426
251, 14.5648, 88.837, 86.7827, -0.000976562, -0.000976562, -0.000976562, 9.88477, -0.0576172, -0.224609, 11.29.2021 15:25:13.434
252, 14.5648, 88.837, 86.7827, -0.000976562, -0.000976562, -0.000976562, 9.88965, -0.0644531, -0.220703, 11.29.2021 15:25:13.442
253, 14.5648, 88.837, 86.7827, -0.000976562, -0.00195312, 0, 9.8584, -0.0488281, -0.188477, 11.29.2021 15:25:13.450
254, 14.5648, 88.837, 86.7827, -0.000976562, -0.000976562, -0.000976562, 9.88184, -0.0488281, -0.203125, 11.29.2021 15:25:13.458
255, 14.6702, 88.5387, 87.1083, -0.000976562, -0.000976562, -0.000976562, 9.88672, -0.0371094, -0.188477, 11.29.2021 15:25:13.466
256, 14.6702, 88.5387, 87.1083, -0.000976562, -0.000976562, 0, 9.86523, -0.0615234, -0.255859, 11.29.2021 15:25:13.474
257, 14.6702, 88.5387, 87.1083, -0.000976562, -0.000976562, 0, 9.89844, -0.0732422, -0.25, 11.29.2021 15:25:13.482
258, 14.6702, 88.5387, 87.1083, -0.000976562, -0.00195312, -0.000976562, 9.88672, -0.0732422, -0.245117, 11.29.2021 15:25:13.490
259, 14.6702, 88.5387, 87.1083, 0.000976562, -0.000976562, 0, 9.87695, -0.0800781, -0.24707, 11.29.2021 15:25:13.498
260, 14.7688, 88.6562, 87.1169, -0.000976562, -0.000976562, 0, 9.85352, -0.0664062, -0.239258, 11.29.2021 15:25:13.506
261, 14.7688, 88.6562, 87.1169, -0.000976562, -0.000976562, -0.000976562, 9.88867, -0.0419922, -0.25293, 11.29.2021 15:25:13.514
262, 14.7688, 88.6562, 87.1169, -0.000976562, -0.00195312, -0.000976562, 9.87988, -0.0429688, -0.212891, 11.29.2021 15:25:13.522
263, 14.5648, 88.837, 86.7827, -0.000976562, -0.000976562, 0, 9.86523, -0.0615234, -0.255859, 11.29.2021 15:25:13.530
264, 14.4436, 88.653, 86.7895, -0.00195312, -0.00195312, -0.000976562, 9.86035, -0.0585938, -0.198242, 11.29.2021 15:25:13.538
265, 14.4436, 88.653, 86.7895, -0.000976562, -0.000976562, -0.000976562, 9.88184, -0.0595703, -0.224609, 11.29.2021 15:25:13.546
266, 14.4436, 88.653, 86.7895, -0.00195312, -0.000976562, -0.000976562, 9.85059, -0.0410156, -0.21875, 11.29.2021 15:25:13.554
267, 14.4436, 88.653, 86.7895, -0.00195312, -0.000976562, -0.000976562, 9.8584, -0.0654297, -0.201172, 11.29.2021 15:25:13.562
268, 14.4436, 88.653, 86.7895, -0.000976562, 0, -0.000976562, 9.86816, -0.0732422, -0.1875, 11.29.2021 15:25:13.570
269, 14.4436, 88.653, 86.7895, -0.000976562, 0, -0.00195312, 9.84863, -0.0371094, -0.19043, 11.29.2021 15:25:13.578
270, 14.6471, 88.4942, 87.123, 0.000976562, 0, -0.000976562, 9.85352, -0.0664062, -0.232422, 11.29.2021 15:25:13.586
271, 14.7688, 88.6562, 87.1169, -0.000976562, 0, -0.000976562, 9.87207, -0.0664062, -0.232422, 11.29.2021 15:25:13.594
272, 14.7688, 88.6562, 87.1169, -0.00195312, -0.00195312, 0, 9.88672, -0.0546875, -0.229492, 11.29.2021 15:25:13.602
273, 14.6034, 88.7892, 86.8643, -0.00195312, 0, -0.000976562, 9.87988, -0.0498047, -0.229492, 11.29.2021 15:25:13.610
274, 14.6034, 88.7892, 86.8643, 0.000976562, -0.00195312, 0, 9.85547, -0.0722656, -0.224609, 11.29.2021 15:25:13.618
275, 14.6034, 88.7892, 86.8643, -0.00195312, 0, -0.000976562, 9.86523, -0.0498047, -0.224609, 11.29.2021 15:25:13.626
276, 14.6034, 88.7892, 86.8643, -0.000976562, 0.000976562, -0.000976562, 9.8916, -0.0771484, -0.207031, 11.29.2021 15:25:13.634
277, 14.6034, 88.7892, 86.8643, 0, 0, 0, 9.89941, -0.0537109, -0.174805, 11.29.2021 15:25:13.642
278, 14.6034, 88.7892, 86.8643, 0, -0.00195312, 0, 9.8916, -0.0380859, -0.224609, 11.29.2021 15:25:13.650
279, 14.8088, 88.6146, 87.2004, -0.00195312, 0, 0, 9.87695, -0.0644531, -0.220703, 11.29.2021 15:25:13.658
280, 14.8088, 88.6146, 87.2004, -0.00195312, 0, 0, 9.8916, -0.0634766, -0.249023, 11.29.2021 15:25:13.666
281, 14.8088, 88.6146, 87.2004, 0, 0.000976562, 0, 9.86523, -0.0439453, -0.208008, 11.29.2021 15:25:13.674
282, 14.9311, 88.7926, 87.1944, 0, 0, 0, 9.87012, -0.0771484, -0.204102, 11.29.2021 15:25:13.682
283, 14.9311, 88.7926, 87.1944, 0, 0, 0, 9.88965, -0.0810547, -0.230469, 11.29.2021 15:25:13.690
284, 14.9311, 88.7926, 87.1944, -0.00195312, 0, 0, 9.86426, -0.0517578, -0.264648, 11.29.2021 15:25:13.698
285, 14.9311, 88.7926, 87.1944, -0.00195312, 0.000976562, 0, 9.88965, -0.0576172, -0.206055, 11.29.2021 15:25:13.706
286, 15.1392, 88.6176, 87.5332, 0, 0.000976562, 0, 9.86523, -0.0458984, -0.209961, 11.29.2021 15:25:13.712
287, 15.1392, 88.6176, 87.5332, 0, 0, 0, 9.8916, -0.0742188, -0.230469, 11.29.2021 15:25:13.720
288, 15.1392, 88.6176, 87.5332, 0, -0.000976562, 0.000976562, 9.87988, -0.0742188, -0.222656, 11.29.2021 15:25:13.728
289, 15.1392, 88.6176, 87.5332, 0, 0.000976562, 0, 9.87012, -0.0771484, -0.210938, 11.29.2021 15:25:13.736
290, 15.1392, 88.6176, 87.5332, 0, 0.000976562, 0, 9.8584, -0.0498047, -0.226562, 11.29.2021 15:25:13.744
291, 15.1392, 88.6176, 87.5332, 0, -0.00195312, -0.000976562, 9.86035, -0.0507812, -0.224609, 11.29.2021 15:25:13.752
292, 15.1392, 88.6176, 87.5332, 0, -0.00195312, 0, 9.8916, -0.0527344, -0.219727, 11.29.2021 15:25:13.760
293, 15.1392, 88.6176, 87.5332, -0.00195312, 0, -0.00195312, 9.85742, -0.0546875, -0.250977, 11.29.2021 15:25:13.768
294, 15.1392, 88.6176, 87.5332, -0.000976562, 0, -0.000976562, 9.87305, -0.0625, -0.210938, 11.29.2021 15:25:13.776
295, 15.1392, 88.6176, 87.5332, 0, 0.000976562, 0, 9.83887, -0.0449219, -0.235352, 11.29.2021 15:25:13.784
296, 15.1392, 88.6176, 87.5332, 0, -0.00195312, -0.000976562, 9.84375, -0.0820312, -0.217773, 11.29.2021 15:25:13.792
297, 15.1392, 88.6176, 87.5332, -0.000976562, 0.000976562, -0.000976562, 9.87793, -0.09375, -0.21875, 11.29.2021 15:25:13.800
298, 15.1392, 88.6176, 87.5332, 0, 0.000976562, 0, 9.88184, -0.0488281, -0.201172, 11.29.2021 15:25:13.808
299, 15.4728, 88.6206, 87.8691, 0, 0, 0, 9.89453, -0.0625, -0.204102, 11.29.2021 15:25:13.816
300, 15.4728, 88.6206, 87.8691, 0.000976562, 0, 0, 9.86914, -0.046875, -0.248047, 11.29.2021 15:25:13.824
301, 15.4728, 88.6206, 87.8691, 0, 0.00195312, 0, 9.8584, -0.0478516, -0.22168, 11.29.2021 15:25:13.832
302, 15.4728, 88.6206, 87.8691, 0, 0, -0.000976562, 9.87207, -0.0791016, -0.227539, 11.29.2021 15:25:13.840
303, 15.4728, 88.6206, 87.8691, 0, 0, -0.000976562, 9.84863, -0.0615234, -0.241211, 11.29.2021 15:25:13.848
304, 15.4728, 88.6206, 87.8691, -0.000976562, -0.000976562, 0, 9.86328, -0.0693359, -0.217773, 11.29.2021 15:25:13.856
305, 15.4728, 88.6206, 87.8691, -0.000976562, 0, 0, 9.87012, -0.0419922, -0.186523, 11.29.2021 15:25:13.864
306, 15.4728, 88.6206, 87.8691, -0.000976562, -0.000976562, 0, 9.87012, -0.0517578, -0.236328, 11.29.2021 15:25:13.872
307, 15.5685, 88.7457, 87.8755, -0.000976562, -0.00195312, 0, 9.87207, -0.0585938, -0.246094, 11.29.2021 15:25:13.880
308, 15.5685, 88.7457, 87.8755, -0.000976562, -0.000976562, 0, 9.86035, -0.0742188, -0.212891, 11.29.2021 15:25:13.888
309, 15.5685, 88.7457, 87.8755, 0, -0.00195312, 0, 9.88965, -0.0751953, -0.202148, 11.29.2021 15:25:13.896
310, 15.5685, 88.7457, 87.8755, 0, -0.00195312, 0, 9.87891, -0.0615234, -0.255859, 11.29.2021 15:25:13.904
311, 15.5685, 88.7457, 87.8755, 0.000976562, -0.000976562, 0, 9.85645, -0.0966797, -0.208984, 11.29.2021 15:25:13.912
312, 15.5685, 88.7457, 87.8755, 0.000976562, -0.000976562, -0.000976562, 9.87305, -0.09375, -0.225586, 11.29.2021 15:25:13.920
313, 15.7346, 88.6169, 88.1275, 0, -0.000976562, -0.000976562, 9.8916, -0.0488281, -0.203125, 11.29.2021 15:25:13.928
314, 15.7346, 88.6169, 88.1275, 0, -0.000976562, -0.00195312, 9.875, -0.0292969, -0.214844, 11.29.2021 15:25:13.936
315, 15.5685, 88.7457, 87.8755, 0, -0.000976562, -0.000976562, 9.88477, -0.0654297, -0.208984, 11.29.2021 15:25:13.944
316, 15.5685, 88.7457, 87.8755, 0, -0.000976562, 0, 9.87988, -0.0595703, -0.232422, 11.29.2021 15:25:13.952
317, 15.5685, 88.7457, 87.8755, 0, 0, 0, 9.87305, -0.0722656, -0.208984, 11.29.2021 15:25:13.960
318, 15.5685, 88.7457, 87.8755, 0, -0.000976562, 0, 9.88184, -0.0742188, -0.21875, 11.29.2021 15:25:13.968
319, 15.7346, 88.6169, 88.1275, 0, -0.000976562, -0.000976562, 9.88672, -0.0634766, -0.263672, 11.29.2021 15:25:13.976
320, 15.7346, 88.6169, 88.1275, 0, -0.00195312, -0.000976562, 9.87402, -0.0244141, -0.273438, 11.29.2021 15:25:13.984
321, 15.7346, 88.6169, 88.1275, 0.000976562, -0.000976562, -0.000976562, 9.86035, -0.0673828, -0.222656, 11.29.2021 15:25:13.992
322, 15.7346, 88.6169, 88.1275, 0.000976562, -0.00195312, 0.000976562, 9.86523, -0.0585938, -0.249023, 11.29.2021 15:25:14.000
323, 15.7346, 88.6169, 88.1275, 0, -0.000976562, 0, 9.86816, -0.0966797, -0.195312, 11.29.2021 15:25:14.008
324, 15.7346, 88.6169, 88.1275, 0, 0, 0, 9.875, -0.0869141, -0.19043, 11.29.2021 15:25:14.016
325, 15.8284, 88.7415, 88.1331, 0.000976562, -0.00195312, -0.000976562, 9.88477, -0.0673828, -0.204102, 11.29.2021 15:25:14.024
326, 15.7346, 88.6169, 88.1275, 0.000976562, -0.00195312, -0.00195312, 9.90137, -0.0429688, -0.208008, 11.29.2021 15:25:14.032
327, 15.7346, 88.6169, 88.1275, 0, -0.00195312, -0.000976562, 9.87695, -0.0527344, -0.212891, 11.29.2021 15:25:14.040
328, 15.7346, 88.6169, 88.1275, 0.000976562, -0.000976562, -0.000976562, 9.86523, -0.0361328, -0.228516, 11.29.2021 15:25:14.048
329, 15.7346, 88.6169, 88.1275, 0.000976562, -0.000976562, -0.000976562, 9.87891, -0.0351562, -0.246094, 11.29.2021 15:25:14.056
330, 15.7346, 88.6169, 88.1275, 0, -0.000976562, 0, 9.8584, -0.0585938, -0.196289, 11.29.2021 15:25:14.064
331, 15.7346, 88.6169, 88.1275, 0, -0.000976562, 0, 9.83887, -0.0820312, -0.212891, 11.29.2021 15:25:14.072
332, 15.7346, 88.6169, 88.1275, 0.000976562, -0.000976562, -0.000976562, 9.875, -0.0771484, -0.213867, 11.29.2021 15:25:14.080
333, 15.7346, 88.6169, 88.1275, 0, -0.000976562, 0, 9.87207, -0.0625, -0.220703, 11.29.2021 15:25:14.088
334, 15.7346, 88.6169, 88.1275, 0, 0, 0, 9.88867, -0.0527344, -0.232422, 11.29.2021 15:25:14.096
335, 15.7346, 88.6169, 88.1275, -0.000976562, -0.000976562, -0.000976562, 9.87402, -0.0351562, -0.243164, 11.29.2021 15:25:14.104
336, 15.7346, 88.6169, 88.1275, -0.000976562, 0, -0.000976562, 9.87988, -0.0410156, -0.214844, 11.29.2021 15:25:14.112
337, 15.7346, 88.6169, 88.1275, -0.000976562, 0, -0.000976562, 9.86523, -0.0742188, -0.234375, 11.29.2021 15:25:14.120
338, 15.7346, 88.6169, 88.1275, -0.000976562, -0.000976562, -0.000976562, 9.85059, -0.0742188, -0.21582, 11.29.2021 15:25:14.128
339, 15.7346, 88.6169, 88.1275, -0.000976562, 0, -0.000976562, 9.87695, -0.0566406, -0.249023, 11.29.2021 15:25:14.136
340, 15.7346, 88.6169, 88.1275, -0.000976562, 0, 0, 9.87891, -0.0488281, -0.267578, 11.29.2021 15:25:14.144
341, 15.5236, 88.7918, 87.788, 0, 0, -0.000976562, 9.87207, -0.0498047, -0.224609, 11.29.2021 15:25:14.152
342, 15.4018, 88.6138, 87.7927, -0.000976562, 0, -0.000976562, 9.87988, -0.0546875, -0.229492, 11.29.2021 15:25:14.160
343, 15.4018, 88.6138, 87.7927, -0.000976562, 0, -0.000976562, 9.87012, -0.0380859, -0.231445, 11.29.2021 15:25:14.168
344, 15.236, 88.7423, 87.5406, -0.000976562, 0, -0.000976562, 9.86035, -0.0498047, -0.236328, 11.29.2021 15:25:14.176
345, 15.236, 88.7423, 87.5406, -0.000976562, -0.000976562, 0, 9.88672, -0.0585938, -0.201172, 11.29.2021 15:25:14.184
346, 15.236, 88.7423, 87.5406, -0.000976562, 0, -0.000976562, 9.87012, -0.0351562, -0.185547, 11.29.2021 15:25:14.192
347, 15.1392, 88.6176, 87.5332, -0.000976562, 0, -0.000976562, 9.87988, -0.0791016, -0.228516, 11.29.2021 15:25:14.200
348, 15.1392, 88.6176, 87.5332, -0.000976562, 0, -0.000976562, 9.88184, -0.0615234, -0.239258, 11.29.2021 15:25:14.208
349, 14.8088, 88.6146, 87.2004, -0.000976562, 0, 0, 9.875, -0.0722656, -0.222656, 11.29.2021 15:25:14.216
350, 14.8088, 88.6146, 87.2004, 0, 0, 0, 9.88379, -0.0683594, -0.244141, 11.29.2021 15:25:14.224
351, 14.9069, 88.7392, 87.2088, 0, 0, 0, 9.86035, -0.0898438, -0.266602, 11.29.2021 15:25:14.232
352, 14.9069, 88.7392, 87.2088, -0.000976562, 0, 0, 9.8584, -0.0722656, -0.21582, 11.29.2021 15:25:14.240
353, 14.9069, 88.7392, 87.2088, -0.00195312, 0, -0.000976562, 9.89941, -0.0722656, -0.202148, 11.29.2021 15:25:14.248
354, 14.9069, 88.7392, 87.2088, -0.00195312, 0, 0, 9.87305, -0.0869141, -0.213867, 11.29.2021 15:25:14.256
355, 15.0721, 88.611, 87.4606, -0.000976562, -0.000976562, -0.000976562, 9.84375, -0.0498047, -0.231445, 11.29.2021 15:25:14.264
356, 15.0721, 88.611, 87.4606, -0.000976562, -0.000976562, -0.000976562, 9.85059, -0.0478516, -0.226562, 11.29.2021 15:25:14.272
357, 15.0721, 88.611, 87.4606, -0.00195312, 0, 0.000976562, 9.88672, -0.0517578, -0.246094, 11.29.2021 15:25:14.280
358, 15.0721, 88.611, 87.4606, -0.000976562, 0, -0.000976562, 9.88867, -0.0478516, -0.234375, 11.29.2021 15:25:14.288
359, 15.1682, 88.735, 87.4681, -0.000976562, 0.000976562, 0, 9.88672, -0.0498047, -0.246094, 11.29.2021 15:25:14.296
360, 15.1682, 88.735, 87.4681, -0.000976562, 0, 0, 9.85352, -0.0488281, -0.211914, 11.29.2021 15:25:14.304
361, 15.1682, 88.735, 87.4681, -0.000976562, 0, 0, 9.88184, -0.0830078, -0.230469, 11.29.2021 15:25:14.312
362, 15.1682, 88.735, 87.4681, 0, -0.000976562, 0, 9.88379, -0.0527344, -0.229492, 11.29.2021 15:25:14.320
363, 15.1682, 88.735, 87.4681, 0, -0.000976562, 0, 9.90137, -0.0693359, -0.225586, 11.29.2021 15:25:14.328
364, 15.1682, 88.735, 87.4681, -0.000976562, 0, 0, 9.88672, -0.0703125, -0.208984, 11.29.2021 15:25:14.336
365, 15.1682, 88.735, 87.4681, -0.000976562, 0, -0.000976562, 9.8584, -0.0712891, -0.182617, 11.29.2021 15:25:14.344
366, 15.1682, 88.735, 87.4681, -0.000976562, 0, 0, 9.84863, -0.0673828, -0.227539, 11.29.2021 15:25:14.352
367, 15.1682, 88.735, 87.4681, -0.000976562, 0, 0, 9.87891, -0.0683594, -0.251953, 11.29.2021 15:25:14.360
368, 15.1682, 88.735, 87.4681, -0.000976562, 0.000976562, 0.000976562, 9.88184, -0.0234375, -0.243164, 11.29.2021 15:25:14.368
369, 15.1682, 88.735, 87.4681, -0.000976562, 0, 0, 9.87012, -0.0615234, -0.239258, 11.29.2021 15:25:14.376
370, 15.1682, 88.735, 87.4681, -0.000976562, 0, -0.000976562, 9.88672, -0.0644531, -0.230469, 11.29.2021 15:25:14.384
371, 15.1682, 88.735, 87.4681, -0.000976562, 0, -0.000976562, 9.87793, -0.0722656, -0.204102, 11.29.2021 15:25:14.392
372, 15.1682, 88.735, 87.4681, -0.000976562, 0, -0.000976562, 9.87207, -0.0527344, -0.229492, 11.29.2021 15:25:14.400
373, 15.1682, 88.735, 87.4681, -0.000976562, -0.000976562, -0.000976562, 9.89355, -0.0595703, -0.234375, 11.29.2021 15:25:14.408
374, 15.1682, 88.735, 87.4681, -0.00195312, -0.000976562, 0, 9.88965, -0.0644531, -0.217773, 11.29.2021 15:25:14.416
375, 15.1682, 88.735, 87.4681, -0.000976562, 0, 0, 9.85254, -0.0654297, -0.267578, 11.29.2021 15:25:14.424
376, 15.1682, 88.735, 87.4681, -0.000976562, 0, -0.000976562, 9.86035, -0.0742188, -0.220703, 11.29.2021 15:25:14.432
377, 15.1682, 88.735, 87.4681, -0.000976562, -0.000976562, -0.00195312, 9.86523, -0.0791016, -0.21875, 11.29.2021 15:25:14.440
378, 15.2634, 88.8726, 87.4756, -0.000976562, -0.000976562, -0.000976562, 9.8457, -0.0605469, -0.219727, 11.29.2021 15:25:14.448
379, 15.1431, 88.6836, 87.481, 0.000976562, 0, -0.000976562, 9.84082, -0.078125, -0.255859, 11.29.2021 15:25:14.456
380, 15.3065, 88.5603, 87.7294, -0.000976562, 0, 0, 9.875, -0.0527344, -0.224609, 11.29.2021 15:25:14.464
381, 15.3065, 88.5603, 87.7294, -0.000976562, 0.000976562, 0, 9.86035, -0.0576172, -0.222656, 11.29.2021 15:25:14.472
382, 15.3065, 88.5603, 87.7294, -0.000976562, 0.000976562, -0.000976562, 9.87988, -0.03125, -0.223633, 11.29.2021 15:25:14.480
383, 15.4266, 88.7308, 87.7246, -0.000976562, 0.000976562, 0.000976562, 9.87988, -0.0488281, -0.198242, 11.29.2021 15:25:14.488
384, 15.2634, 88.8726, 87.4756, -0.000976562, 0.000976562, 0, 9.87207, -0.0458984, -0.216797, 11.29.2021 15:25:14.496
385, 15.2634, 88.8726, 87.4756, -0.000976562, 0.000976562, -0.000976562, 9.85156, -0.0634766, -0.186523, 11.29.2021 15:25:14.504
386, 15.3754, 88.5669, 87.804, -0.000976562, 0, -0.000976562, 9.84863, -0.0654297, -0.212891, 11.29.2021 15:25:14.512
387, 15.3754, 88.5669, 87.804, -0.000976562, 0, -0.000976562, 9.85352, -0.0576172, -0.22168, 11.29.2021 15:25:14.520
388, 15.3754, 88.5669, 87.804, -0.000976562, 0.000976562, -0.000976562, 9.85742, -0.078125, -0.255859, 11.29.2021 15:25:14.528
389, 15.3754, 88.5669, 87.804, -0.00195312, 0, -0.000976562, 9.87988, -0.0625, -0.208008, 11.29.2021 15:25:14.536
390, 15.3754, 88.5669, 87.804, -0.00195312, 0, -0.000976562, 9.87988, -0.0478516, -0.222656, 11.29.2021 15:25:14.544
391, 15.2104, 88.6907, 87.5532, -0.00195312, 0, -0.000976562, 9.88477, -0.0439453, -0.208008, 11.29.2021 15:25:14.552
392, 15.2104, 88.6907, 87.5532, -0.00195312, 0, -0.000976562, 9.88184, -0.0595703, -0.232422, 11.29.2021 15:25:14.560
393, 15.2104, 88.6907, 87.5532, -0.000976562, 0, -0.000976562, 9.85254, -0.0712891, -0.246094, 11.29.2021 15:25:14.568
394, 15.2104, 88.6907, 87.5532, -0.000976562, 0, 0, 9.88184, -0.0595703, -0.220703, 11.29.2021 15:25:14.576
395, 15.2104, 88.6907, 87.5532, -0.000976562, 0.000976562, -0.000976562, 9.87695, -0.0390625, -0.198242, 11.29.2021 15:25:14.584
396, 15.2104, 88.6907, 87.5532, -0.000976562, -0.000976562, -0.000976562, 9.88574, -0.0849609, -0.173828, 11.29.2021 15:25:14.592
397, 15.2104, 88.6907, 87.5532, -0.000976562, 0, 0, 9.86523, -0.0615234, -0.239258, 11.29.2021 15:25:14.600
398, 15.2104, 88.6907, 87.5532, 0, 0, -0.000976562, 9.85449, -0.0585938, -0.277344, 11.29.2021 15:25:14.608
399, 15.2104, 88.6907, 87.5532, 0, 0, 0, 9.87793, -0.0488281, -0.181641, 11.29.2021 15:25:14.616
400, 15.4192, 88.5278, 87.891, 0, -0.000976562, 0, 9.85352, -0.0849609, -0.197266, 11.29.2021 15:25:14.624
401, 15.4192, 88.5278, 87.891, 0, 0, 0, 9.86035, -0.03125, -0.213867, 11.29.2021 15:25:14.632
402, 15.2792, 88.6979, 87.6269, 0, -0.000976562, 0, 9.8584, -0.0839844, -0.222656, 11.29.2021 15:25:14.640
403, 15.2792, 88.6979, 87.6269, 0, -0.000976562, 0, 9.87012, -0.0751953, -0.201172, 11.29.2021 15:25:14.648
404, 15.2792, 88.6979, 87.6269, 0.000976562, -0.00195312, -0.000976562, 9.8584, -0.0791016, -0.234375, 11.29.2021 15:25:14.656
405, 15.4459, 88.5734, 87.8801, 0, -0.000976562, 0, 9.88672, -0.0859375, -0.213867, 11.29.2021 15:25:14.664
406, 15.5413, 88.6939, 87.8865, 0, -0.000976562, 0, 9.87012, -0.0527344, -0.209961, 11.29.2021 15:25:14.672
407, 15.7527, 88.5306, 88.226, 0, -0.000976562, -0.000976562, 9.85059, -0.0820312, -0.217773, 11.29.2021 15:25:14.680
408, 15.7527, 88.5306, 88.226, -0.000976562, -0.00195312, -0.000976562, 9.87988, -0.0341797, -0.214844, 11.29.2021 15:25:14.688
409, 15.8751, 88.697, 88.2222, 0, -0.000976562, 0.000976562, 9.88379, -0.0400391, -0.248047, 11.29.2021 15:25:14.696
410, 15.8751, 88.697, 88.2222, 0, -0.000976562, 0, 9.87695, -0.0634766, -0.244141, 11.29.2021 15:25:14.704
411, 15.8751, 88.697, 88.2222, 0, -0.000976562, 0, 9.87988, -0.0732422, -0.189453, 11.29.2021 15:25:14.712
412, 15.8751, 88.697, 88.2222, 0.000976562, -0.00195312, 0, 9.87402, -0.0664062, -0.249023, 11.29.2021 15:25:14.720
413, 15.8751, 88.697, 88.2222, -0.000976562, -0.000976562, 0, 9.86035, -0.0556641, -0.212891, 11.29.2021 15:25:14.728
414, 15.8751, 88.697, 88.2222, -0.000976562, -0.00195312, -0.000976562, 9.85352, -0.0517578, -0.193359, 11.29.2021 15:25:14.736
415, 15.8751, 88.697, 88.2222, 0, 0, -0.000976562, 9.875, -0.0576172, -0.229492, 11.29.2021 15:25:14.744
416, 15.7088, 88.8347, 87.9699, 0, -0.000976562, 0, 9.87305, -0.0576172, -0.208008, 11.29.2021 15:25:14.752
417, 15.7088, 88.8347, 87.9699, 0, -0.000976562, -0.000976562, 9.85645, -0.101562, -0.208984, 11.29.2021 15:25:14.760
418, 15.7088, 88.8347, 87.9699, -0.000976562, 0, 0, 9.88867, -0.0703125, -0.251953, 11.29.2021 15:25:14.768
419, 15.8751, 88.697, 88.2222, -0.000976562, -0.000976562, -0.000976562, 9.88379, -0.0751953, -0.258789, 11.29.2021 15:25:14.776
420, 15.8751, 88.697, 88.2222, 0, 0, 0, 9.8916, -0.0615234, -0.230469, 11.29.2021 15:25:14.784
421, 15.8751, 88.697, 88.2222, 0, 0, 0, 9.86816, -0.0439453, -0.208008, 11.29.2021 15:25:14.792
422, 15.8751, 88.697, 88.2222, 0, -0.000976562, -0.000976562, 9.89355, -0.0458984, -0.267578, 11.29.2021 15:25:14.800
423, 15.8751, 88.697, 88.2222, -0.000976562, -0.000976562, -0.000976562, 9.88184, -0.0595703, -0.229492, 11.29.2021 15:25:14.808
424, 15.8751, 88.697, 88.2222, -0.000976562, -0.000976562, -0.000976562, 9.86523, -0.0585938, -0.198242, 11.29.2021 15:25:14.816
425, 15.8751, 88.697, 88.2222, 0, 0, -0.000976562, 9.88965, -0.0644531, -0.220703, 11.29.2021 15:25:14.824
426, 15.8751, 88.697, 88.2222, 0.000976562, 0, -0.000976562, 9.88379, -0.0810547, -0.245117, 11.29.2021 15:25:14.832
427, 15.7527, 88.5306, 88.226, 0, -0.000976562, -0.000976562, 9.87207, -0.0585938, -0.253906, 11.29.2021 15:25:14.840
428, 15.8464, 88.6474, 88.2313, 0, -0.000976562, 0, 9.88379, -0.0400391, -0.236328, 11.29.2021 15:25:14.848
429, 15.8464, 88.6474, 88.2313, -0.000976562, 0, 0.000976562, 9.87402, -0.0683594, -0.255859, 11.29.2021 15:25:14.854
430, 15.8464, 88.6474, 88.2313, 0, -0.000976562, -0.000976562, 9.87012, -0.0634766, -0.194336, 11.29.2021 15:25:14.864
431, 15.8464, 88.6474, 88.2313, 0.000976562, -0.000976562, -0.000976562, 9.89453, -0.0673828, -0.222656, 11.29.2021 15:25:14.870
432, 15.8464, 88.6474, 88.2313, 0, 0, -0.000976562, 9.86816, -0.0439453, -0.200195, 11.29.2021 15:25:14.878
433, 15.8464, 88.6474, 88.2313, 0, -0.000976562, 0, 9.8623, -0.0527344, -0.234375, 11.29.2021 15:25:14.886
434, 15.6357, 88.8268, 87.8928, 0, -0.000976562, -0.000976562, 9.85059, -0.0478516, -0.231445, 11.29.2021 15:25:14.894
435, 15.6357, 88.8268, 87.8928, -0.000976562, -0.00195312, -0.000976562, 9.87012, -0.0488281, -0.203125, 11.29.2021 15:25:14.902
436, 15.5143, 88.6443, 87.8973, -0.000976562, -0.000976562, -0.000976562, 9.86816, -0.0673828, -0.21582, 11.29.2021 15:25:14.910
437, 15.5143, 88.6443, 87.8973, 0, -0.00195312, -0.00195312, 9.86523, -0.0400391, -0.245117, 11.29.2021 15:25:14.918
438, 15.5143, 88.6443, 87.8973, 0, -0.000976562, -0.000976562, 9.88184, -0.0742188, -0.232422, 11.29.2021 15:25:14.926
439, 15.5143, 88.6443, 87.8973, 0.000976562, -0.000976562, 0, 9.9082, -0.0576172, -0.201172, 11.29.2021 15:25:14.934
440, 15.4192, 88.5278, 87.891, 0, -0.00195312, 0, 9.88672, -0.0410156, -0.212891, 11.29.2021 15:25:14.942
441, 15.4192, 88.5278, 87.891, -0.000976562, 0, -0.000976562, 9.87207, -0.0566406, -0.239258, 11.29.2021 15:25:14.950
442, 15.2533, 88.6481, 87.6391, 0, 0, 0, 9.87695, -0.0732422, -0.242188, 11.29.2021 15:25:14.958
443, 15.2533, 88.6481, 87.6391, 0, -0.000976562, -0.000976562, 9.83691, -0.0634766, -0.208008, 11.29.2021 15:25:14.966
444, 15.2533, 88.6481, 87.6391, -0.000976562, -0.000976562, 0, 9.88867, -0.0527344, -0.224609, 11.29.2021 15:25:14.974
445, 15.2533, 88.6481, 87.6391, 0, -0.000976562, 0, 9.8916, -0.0517578, -0.239258, 11.29.2021 15:25:14.982
446, 15.2533, 88.6481, 87.6391, 0.000976562, 0, 0, 9.85059, -0.0605469, -0.208008, 11.29.2021 15:25:14.990
447, 15.2533, 88.6481, 87.6391, 0.000976562, 0, 0, 9.87988, -0.0615234, -0.232422, 11.29.2021 15:25:14.998
448, 15.2533, 88.6481, 87.6391, 0, 0, -0.000976562, 9.89844, -0.0595703, -0.232422, 11.29.2021 15:25:15.006
449, 15.2533, 88.6481, 87.6391, 0, 0, -0.000976562, 9.86816, -0.0439453, -0.208008, 11.29.2021 15:25:15.014
450, 15.0452, 88.8276, 87.3011, 0, 0, 0, 9.87207, -0.0595703, -0.227539, 11.29.2021 15:25:15.022
451, 15.0452, 88.8276, 87.3011, -0.000976562, -0.000976562, 0, 9.86523, -0.0478516, -0.224609, 11.29.2021 15:25:15.030
452, 15.2533, 88.6481, 87.6391, 0, -0.000976562, -0.000976562, 9.88477, -0.0664062, -0.174805, 11.29.2021 15:25:15.038
453, 15.2533, 88.6481, 87.6391, 0, -0.000976562, -0.000976562, 9.89844, -0.0615234, -0.227539, 11.29.2021 15:25:15.046
454, 15.2533, 88.6481, 87.6391, -0.000976562, -0.000976562, -0.000976562, 9.89551, -0.0322266, -0.25293, 11.29.2021 15:25:15.054
455, 14.7577, 88.777, 87.0539, 0, -0.000976562, -0.000976562, 9.89453, -0.0556641, -0.212891, 11.29.2021 15:25:15.062
456, 14.6587, 88.649, 87.045, 0, -0.00195312, -0.000976562, 9.85059, -0.0478516, -0.228516, 11.29.2021 15:25:15.070
457, 14.6587, 88.649, 87.045, 0, -0.000976562, -0.000976562, 9.87793, -0.0654297, -0.206055, 11.29.2021 15:25:15.078
458, 14.6587, 88.649, 87.045, 0.000976562, -0.000976562, -0.00195312, 9.88184, -0.0361328, -0.200195, 11.29.2021 15:25:15.086
459, 14.6587, 88.649, 87.045, 0, 0, 0, 9.87012, -0.0595703, -0.217773, 11.29.2021 15:25:15.094
460, 14.6587, 88.649, 87.045, 0, -0.00195312, 0, 9.88672, -0.0517578, -0.253906, 11.29.2021 15:25:15.102
461, 14.6587, 88.649, 87.045, 0, -0.000976562, -0.000976562, 9.875, -0.0507812, -0.206055, 11.29.2021 15:25:15.110
462, 14.6587, 88.649, 87.045, 0, -0.00195312, -0.000976562, 9.8623, -0.0292969, -0.21875, 11.29.2021 15:25:15.118
463, 14.3909, 88.6527, 86.7802, 0, -0.000976562, -0.000976562, 9.88672, -0.0400391, -0.226562, 11.29.2021 15:25:15.126
464, 14.3909, 88.6527, 86.7802, 0, 0, 0, 9.88867, -0.03125, -0.216797, 11.29.2021 15:25:15.134
465, 14.3909, 88.6527, 86.7802, 0, 0, -0.000976562, 9.87793, -0.0605469, -0.203125, 11.29.2021 15:25:15.142
466, 14.3909, 88.6527, 86.7802, 0, -0.000976562, -0.000976562, 9.87109, -0.0732422, -0.1875, 11.29.2021 15:25:15.150
467, 14.3909, 88.6527, 86.7802, 0.000976562, -0.000976562, 0, 9.86523, -0.0712891, -0.227539, 11.29.2021 15:25:15.158
468, 14.3909, 88.6527, 86.7802, 0.000976562, 0.000976562, -0.000976562, 9.875, -0.0820312, -0.21582, 11.29.2021 15:25:15.166
469, 14.1199, 88.6565, 86.5123, -0.000976562, -0.000976562, -0.00195312, 9.86621, -0.0546875, -0.169922, 11.29.2021 15:25:15.174
470, 14.2443, 88.8409, 86.5047, 0, -0.00195312, 0, 9.8623, -0.0341797, -0.216797, 11.29.2021 15:25:15.182
471, 14.4519, 88.6596, 86.8466, 0, -0.000976562, 0, 9.89453, -0.0341797, -0.198242, 11.29.2021 15:25:15.190
472, 14.4519, 88.6596, 86.8466, 0, -0.00195312, -0.000976562, 9.84863, -0.0556641, -0.212891, 11.29.2021 15:25:15.198
473, 14.4519, 88.6596, 86.8466, 0, -0.000976562, 0, 9.8584, -0.0644531, -0.227539, 11.29.2021 15:25:15.206
474, 14.4519, 88.6596, 86.8466, 0, -0.000976562, 0, 9.87012, -0.0527344, -0.219727, 11.29.2021 15:25:15.214
475, 14.2821, 88.7929, 86.5868, 0.000976562, -0.000976562, 0, 9.87012, -0.0605469, -0.212891, 11.29.2021 15:25:15.222
476, 14.2821, 88.7929, 86.5868, 0, 0, -0.000976562, 9.87207, -0.0332031, -0.245117, 11.29.2021 15:25:15.230
477, 14.1784, 88.6632, 86.5763, 0, 0, -0.000976562, 9.88867, -0.0419922, -0.239258, 11.29.2021 15:25:15.238
478, 14.1784, 88.6632, 86.5763, 0, -0.000976562, 0, 9.88867, -0.0478516, -0.222656, 11.29.2021 15:25:15.246
479, 14.1784, 88.6632, 86.5763, 0, -0.000976562, 0, 9.88867, -0.0517578, -0.239258, 11.29.2021 15:25:15.254
480, 14.1784, 88.6632, 86.5763, 0, -0.000976562, -0.000976562, 9.87207, -0.0830078, -0.251953, 11.29.2021 15:25:15.262
481, 14.1784, 88.6632, 86.5763, 0, -0.000976562, 0, 9.8584, -0.0820312, -0.210938, 11.29.2021 15:25:15.270
482, 14.1784, 88.6632, 86.5763, 0.000976562, 0, 0, 9.85742, -0.0732422, -0.265625, 11.29.2021 15:25:15.278
483, 14.2821, 88.7929, 86.5868, 0.000976562, -0.000976562, -0.000976562, 9.89355, -0.0527344, -0.222656, 11.29.2021 15:25:15.286
484, 14.4519, 88.6596, 86.8466, 0, -0.000976562, -0.000976562, 9.87012, -0.0537109, -0.198242, 11.29.2021 15:25:15.294
485, 14.4519, 88.6596, 86.8466, 0, 0, 0, 9.86035, -0.0498047, -0.226562, 11.29.2021 15:25:15.302
486, 14.4519, 88.6596, 86.8466, 0, -0.000976562, 0, 9.83789, -0.0771484, -0.277344, 11.29.2021 15:25:15.310
487, 14.4519, 88.6596, 86.8466, 0, -0.000976562, -0.000976562, 9.85059, -0.0576172, -0.236328, 11.29.2021 15:25:15.318
488, 14.327, 88.4973, 86.8535, 0, 0, 0, 9.87012, -0.0546875, -0.231445, 11.29.2021 15:25:15.326
489, 14.1199, 88.6565, 86.5123, 0, -0.000976562, 0, 9.85547, -0.0527344, -0.212891, 11.29.2021 15:25:15.334
490, 14.2228, 88.7853, 86.5228, 0.000976562, -0.000976562, -0.000976562, 9.88184, -0.0410156, -0.224609, 11.29.2021 15:25:15.342
491, 14.2228, 88.7853, 86.5228, 0.000976562, -0.000976562, -0.000976562, 9.86523, -0.0527344, -0.219727, 11.29.2021 15:25:15.350
492, 14.3909, 88.6527, 86.7802, -0.000976562, -0.000976562, -0.00195312, 9.88379, -0.0566406, -0.232422, 11.29.2021 15:25:15.358
493, 14.3909, 88.6527, 86.7802, 0, -0.000976562, -0.000976562, 9.86523, -0.0869141, -0.204102, 11.29.2021 15:25:15.366
494, 14.3909, 88.6527, 86.7802, -0.000976562, -0.000976562, 0, 9.88477, -0.0908203, -0.211914, 11.29.2021 15:25:15.374
495, 14.3909, 88.6527, 86.7802, -0.000976562, -0.00195312, -0.000976562, 9.86523, -0.0498047, -0.236328, 11.29.2021 15:25:15.382
496, 14.3909, 88.6527, 86.7802, 0, -0.00195312, -0.000976562, 9.85156, -0.0673828, -0.208008, 11.29.2021 15:25:15.390
497, 14.3909, 88.6527, 86.7802, 0, -0.000976562, 0, 9.86523, -0.0673828, -0.212891, 11.29.2021 15:25:15.398
498, 14.3909, 88.6527, 86.7802, -0.00195312, 0, 0, 9.87695, -0.0761719, -0.244141, 11.29.2021 15:25:15.406
499, 14.4918, 88.7812, 86.7899, -0.000976562, 0, 0.000976562, 9.88672, -0.0673828, -0.21582, 11.29.2021 15:25:15.414
500, 14.6587, 88.649, 87.045, -0.000976562, 0, 0, 9.88477, -0.0498047, -0.227539, 11.29.2021 15:25:15.422
501, 14.866, 88.4905, 87.3837, -0.000976562, 0, -0.000976562, 9.8916, -0.0722656, -0.213867, 11.29.2021 15:25:15.430
502, 14.866, 88.4905, 87.3837, -0.000976562, -0.000976562, -0.000976562, 9.89355, -0.0283203, -0.226562, 11.29.2021 15:25:15.438
503, 14.866, 88.4905, 87.3837, -0.000976562, -0.000976562, 0, 9.88184, -0.0742188, -0.21582, 11.29.2021 15:25:15.446
504, 14.9892, 88.652, 87.378, -0.00195312, -0.000976562, 0, 9.86816, -0.0703125, -0.191406, 11.29.2021 15:25:15.454
505, 14.9892, 88.652, 87.378, -0.00195312, -0.000976562, 0, 9.875, -0.0732422, -0.244141, 11.29.2021 15:25:15.462
506, 14.9892, 88.652, 87.378, 0, 0, 0, 9.88672, -0.0537109, -0.194336, 11.29.2021 15:25:15.470
507, 14.9892, 88.652, 87.378, -0.000976562, 0, -0.000976562, 9.8584, -0.0527344, -0.212891, 11.29.2021 15:25:15.478
508, 14.9892, 88.652, 87.378, -0.000976562, 0, 0, 9.875, -0.0556641, -0.212891, 11.29.2021 15:25:15.486
509, 15.1993, 88.4932, 87.7188, -0.000976562, 0.000976562, -0.000976562, 9.88184, -0.0458984, -0.219727, 11.29.2021 15:25:15.494
510, 15.1993, 88.4932, 87.7188, -0.000976562, 0, -0.000976562, 9.86719, -0.0566406, -0.246094, 11.29.2021 15:25:15.502
511, 15.1993, 88.4932, 87.7188, -0.000976562, -0.000976562, -0.000976562, 9.875, -0.0722656, -0.220703, 11.29.2021 15:25:15.510
512, 15.1993, 88.4932, 87.7188, -0.000976562, 0, -0.000976562, 9.84375, -0.0507812, -0.219727, 11.29.2021 15:25:15.518
513, 15.1993, 88.4932, 87.7188, -0.000976562, 0, -0.000976562, 9.89355, -0.078125, -0.240234, 11.29.2021 15:25:15.526
514, 15.1993, 88.4932, 87.7188, -0.000976562, 0, 0, 9.88672, -0.0488281, -0.249023, 11.29.2021 15:25:15.534
515, 15.1993, 88.4932, 87.7188, -0.000976562, 0, 0, 9.87695, -0.0546875, -0.222656, 11.29.2021 15:25:15.542
516, 15.2966, 88.6069, 87.7257, 0, -0.000976562, -0.000976562, 9.87988, -0.0742188, -0.21582, 11.29.2021 15:25:15.550
517, 15.2966, 88.6069, 87.7257, -0.000976562, -0.00195312, 0, 9.88672, -0.0800781, -0.25, 11.29.2021 15:25:15.558
518, 15.2966, 88.6069, 87.7257, -0.00195312, 0, 0, 9.87305, -0.0986328, -0.200195, 11.29.2021 15:25:15.566
519, 15.2966, 88.6069, 87.7257, -0.00195312, -0.000976562, -0.000976562, 9.9082, -0.0732422, -0.238281, 11.29.2021 15:25:15.574
520, 15.2966, 88.6069, 87.7257, -0.00195312, -0.000976562, -0.000976562, 9.87988, -0.0449219, -0.226562, 11.29.2021 15:25:15.582
521, 15.2966, 88.6069, 87.7257, -0.000976562, -0.000976562, -0.000976562, 9.86035, -0.0546875, -0.239258, 11.29.2021 15:25:15.590
522, 15.3928, 88.7305, 87.7325, -0.00195312, 0, 0, 9.86719, -0.0351562, -0.238281, 11.29.2021 15:25:15.598
523, 15.3928, 88.7305, 87.7325, -0.00195312, 0, 0, 9.88965, -0.0722656, -0.220703, 11.29.2021 15:25:15.606
524, 15.3928, 88.7305, 87.7325, -0.000976562, -0.000976562, 0.000976562, 9.88477, -0.0859375, -0.216797, 11.29.2021 15:25:15.614
525, 15.5588, 88.6031, 87.9847, -0.000976562, -0.000976562, 0.000976562, 9.875, -0.0595703, -0.224609, 11.29.2021 15:25:15.622
526, 15.5588, 88.6031, 87.9847, 0, -0.000976562, 0, 9.88184, -0.0595703, -0.220703, 11.29.2021 15:25:15.630
527, 15.5588, 88.6031, 87.9847, 0.000976562, 0, 0, 9.8916, -0.0400391, -0.241211, 11.29.2021 15:25:15.638
528, 15.5588, 88.6031, 87.9847, 0.000976562, -0.000976562, -0.000976562, 9.875, -0.0556641, -0.196289, 11.29.2021 15:25:15.646
529, 15.5588, 88.6031, 87.9847, 0, -0.000976562, 0, 9.87207, -0.03125, -0.226562, 11.29.2021 15:25:15.654
530, 15.5588, 88.6031, 87.9847, 0, -0.000976562, 0, 9.88965, -0.0654297, -0.196289, 11.29.2021 15:25:15.662
531, 15.5588, 88.6031, 87.9847, 0, -0.000976562, -0.000976562, 9.87207, -0.0556641, -0.212891, 11.29.2021 15:25:15.670
532, 15.5588, 88.6031, 87.9847, -0.000976562, -0.000976562, -0.000976562, 9.86719, -0.0576172, -0.231445, 11.29.2021 15:25:15.678
533, 15.5588, 88.6031, 87.9847, 0, -0.000976562, 0, 9.87012, -0.0761719, -0.237305, 11.29.2021 15:25:15.686
534, 15.5588, 88.6031, 87.9847, 0, -0.000976562, 0, 9.9082, -0.0644531, -0.210938, 11.29.2021 15:25:15.694
535, 15.3928, 88.7305, 87.7325, -0.000976562, -0.000976562, -0.000976562, 9.88281, -0.0644531, -0.166016, 11.29.2021 15:25:15.702
536, 15.3928, 88.7305, 87.7325, 0, 0, -0.000976562, 9.88965, -0.0644531, -0.222656, 11.29.2021 15:25:15.710
537, 15.3928, 88.7305, 87.7325, 0, -0.000976562, -0.000976562, 9.86523, -0.0166016, -0.21582, 11.29.2021 15:25:15.718
538, 15.3928, 88.7305, 87.7325, -0.000976562, -0.000976562, -0.00195312, 9.89648, -0.0517578, -0.186523, 11.29.2021 15:25:15.726
539, 15.3928, 88.7305, 87.7325, -0.000976562, -0.000976562, 0, 9.89453, -0.0439453, -0.186523, 11.29.2021 15:25:15.734
540, 15.3404, 88.5667, 87.8132, -0.000976562, 0, 0, 9.86523, -0.0634766, -0.198242, 11.29.2021 15:25:15.742
541, 15.3404, 88.5667, 87.8132, 0, -0.000976562, -0.000976562, 9.88477, -0.0673828, -0.21582, 11.29.2021 15:25:15.750
542, 15.4641, 88.7379, 87.8084, 0, -0.000976562, 0, 9.90918, -0.0917969, -0.198242, 11.29.2021 15:25:15.758
543, 15.4641, 88.7379, 87.8084, 0.000976562, -0.000976562, -0.000976562, 9.88477, -0.0820312, -0.204102, 11.29.2021 15:25:15.766
544, 15.4641, 88.7379, 87.8084, 0, 0, -0.000976562, 9.86523, -0.0292969, -0.208984, 11.29.2021 15:25:15.774
545, 15.1982, 88.742, 87.5449, 0.000976562, -0.000976562, 0, 9.8916, -0.0556641, -0.204102, 11.29.2021 15:25:15.782
546, 15.4119, 88.5732, 87.8905, 0.000976562, -0.000976562, -0.000976562, 9.86328, -0.0585938, -0.186523, 11.29.2021 15:25:15.790
547, 15.5368, 88.7452, 87.8859, 0, 0, -0.000976562, 9.86328, -0.0722656, -0.21582, 11.29.2021 15:25:15.798
548, 15.5368, 88.7452, 87.8859, 0, -0.000976562, -0.000976562, 9.87891, -0.0751953, -0.256836, 11.29.2021 15:25:15.806
549, 15.5368, 88.7452, 87.8859, -0.000976562, -0.000976562, -0.000976562, 9.87305, -0.0742188, -0.217773, 11.29.2021 15:25:15.814
550, 15.5368, 88.7452, 87.8859, -0.000976562, 0, -0.000976562, 9.87012, -0.0419922, -0.243164, 11.29.2021 15:25:15.822
551, 15.5368, 88.7452, 87.8859, 0, -0.000976562, -0.000976562, 9.875, -0.0488281, -0.208008, 11.29.2021 15:25:15.830
552, 15.5368, 88.7452, 87.8859, 0.000976562, -0.000976562, 0, 9.88965, -0.0742188, -0.213867, 11.29.2021 15:25:15.838
553, 15.5368, 88.7452, 87.8859, 0, -0.000976562, -0.000976562, 9.86328, -0.0673828, -0.21582, 11.29.2021 15:25:15.846
554, 15.7533, 88.5759, 88.234, 0, 0, -0.000976562, 9.86523, -0.0703125, -0.196289, 11.29.2021 15:25:15.854
555, 15.7533, 88.5759, 88.234, -0.000976562, -0.000976562, -0.000976562, 9.87305, -0.0839844, -0.220703, 11.29.2021 15:25:15.862
556, 15.7533, 88.5759, 88.234, 0, -0.00195312, -0.000976562, 9.85645, -0.0371094, -0.185547, 11.29.2021 15:25:15.870
557, 15.8786, 88.7484, 88.2301, 0, -0.000976562, 0, 9.87305, -0.0703125, -0.204102, 11.29.2021 15:25:15.878
558, 15.8786, 88.7484, 88.2301, 0.000976562, -0.000976562, -0.000976562, 9.87012, -0.0478516, -0.229492, 11.29.2021 15:25:15.886
559, 15.7085, 88.8923, 87.9713, 0, -0.000976562, -0.000976562, 9.8584, -0.0546875, -0.226562, 11.29.2021 15:25:15.894
560, 15.7085, 88.8923, 87.9713, 0, -0.000976562, 0, 9.84277, -0.0517578, -0.248047, 11.29.2021 15:25:15.902
561, 15.7085, 88.8923, 87.9713, 0, 0, 0, 9.87695, -0.0390625, -0.211914, 11.29.2021 15:25:15.910
562, 15.7085, 88.8923, 87.9713, 0, -0.000976562, 0, 9.85059, -0.0507812, -0.209961, 11.29.2021 15:25:15.918
563, 15.7085, 88.8923, 87.9713, 0, -0.000976562, -0.000976562, 9.88477, -0.0771484, -0.208984, 11.29.2021 15:25:15.926
564, 15.6111, 88.7524, 87.965, -0.00195312, 0, -0.000976562, 9.87012, -0.03125, -0.211914, 11.29.2021 15:25:15.934
565, 15.6111, 88.7524, 87.965, -0.00195312, 0, -0.000976562, 9.86328, -0.0390625, -0.207031, 11.29.2021 15:25:15.942
566, 15.6111, 88.7524, 87.965, 0, -0.000976562, 0, 9.84668, -0.0371094, -0.19043, 11.29.2021 15:25:15.950
567, 15.6111, 88.7524, 87.965, 0, -0.000976562, 0, 9.875, -0.0751953, -0.199219, 11.29.2021 15:25:15.958
568, 15.6111, 88.7524, 87.965, 0, -0.000976562, 0.000976562, 9.86816, -0.0820312, -0.199219, 11.29.2021 15:25:15.966
569, 15.6111, 88.7524, 87.965, 0, 0, -0.000976562, 9.87207, -0.0585938, -0.246094, 11.29.2021 15:25:15.974
570, 15.6111, 88.7524, 87.965, 0, -0.00195312, -0.000976562, 9.875, -0.0791016, -0.223633, 11.29.2021 15:25:15.980
571, 15.6111, 88.7524, 87.965, 0, -0.000976562, -0.000976562, 9.88672, -0.0722656, -0.210938, 11.29.2021 15:25:15.988
572, 15.6111, 88.7524, 87.965, 0, 0, -0.000976562, 9.88379, -0.0556641, -0.260742, 11.29.2021 15:25:15.996
573, 15.6111, 88.7524, 87.965, 0, -0.000976562, -0.000976562, 9.87012, -0.078125, -0.249023, 11.29.2021 15:25:16.004
574, 15.6111, 88.7524, 87.965, 0, -0.000976562, -0.000976562, 9.8457, -0.078125, -0.267578, 11.29.2021 15:25:16.012
575, 15.6111, 88.7524, 87.965, 0, -0.000976562, 0, 9.8584, -0.0507812, -0.198242, 11.29.2021 15:25:16.020
576, 15.583, 88.7006, 87.9758, 0, -0.00195312, 0, 9.88379, -0.046875, -0.248047, 11.29.2021 15:25:16.028
577, 15.583, 88.7006, 87.9758, 0, -0.00195312, -0.000976562, 9.87695, -0.0292969, -0.200195, 11.29.2021 15:25:16.036
578, 15.583, 88.7006, 87.9758, 0, 0, 0, 9.87695, -0.0273438, -0.202148, 11.29.2021 15:25:16.044
579, 15.583, 88.7006, 87.9758, -0.00195312, 0, -0.000976562, 9.85547, -0.0292969, -0.202148, 11.29.2021 15:25:16.052
580, 15.583, 88.7006, 87.9758, 0, -0.000976562, -0.000976562, 9.8584, -0.0341797, -0.202148, 11.29.2021 15:25:16.060
581, 15.583, 88.7006, 87.9758, 0, 0, -0.000976562, 9.87012, -0.0800781, -0.202148, 11.29.2021 15:25:16.068
582, 15.2685, 88.7493, 87.6201, 0, 0, -0.000976562, 9.88965, -0.0761719, -0.225586, 11.29.2021 15:25:16.076
583, 15.2685, 88.7493, 87.6201, 0, 0, -0.000976562, 9.87695, -0.0849609, -0.266602, 11.29.2021 15:25:16.084
584, 15.3672, 88.8888, 87.6274, 0, 0, 0, 9.84082, -0.0673828, -0.224609, 11.29.2021 15:25:16.092
585, 15.242, 88.6976, 87.6326, 0, -0.000976562, 0, 9.87988, -0.0507812, -0.219727, 11.29.2021 15:25:16.100
586, 15.242, 88.6976, 87.6326, 0.000976562, -0.000976562, 0, 9.875, -0.0439453, -0.198242, 11.29.2021 15:25:16.108
587, 15.242, 88.6976, 87.6326, 0, 0.000976562, -0.000976562, 9.85547, -0.0644531, -0.227539, 11.29.2021 15:25:16.116
588, 15.242, 88.6976, 87.6326, -0.00195312, -0.000976562, 0, 9.88379, -0.0419922, -0.262695, 11.29.2021 15:25:16.124
589, 15.242, 88.6976, 87.6326, -0.00195312, -0.000976562, 0, 9.86035, -0.0605469, -0.209961, 11.29.2021 15:25:16.132
590, 15.242, 88.6976, 87.6326, 0, -0.000976562, -0.00195312, 9.85352, -0.0576172, -0.226562, 11.29.2021 15:25:16.140
591, 15.242, 88.6976, 87.6326, 0, -0.000976562, 0, 9.8916, -0.0634766, -0.194336, 11.29.2021 15:25:16.148
592, 15.242, 88.6976, 87.6326, 0, -0.00195312, 0, 9.87305, -0.0488281, -0.196289, 11.29.2021 15:25:16.156
593, 15.242, 88.6976, 87.6326, -0.000976562, -0.000976562, -0.000976562, 9.87988, -0.0595703, -0.222656, 11.29.2021 15:25:16.164
594, 15.242, 88.6976, 87.6326, -0.000976562, -0.000976562, 0, 9.85742, -0.0322266, -0.259766, 11.29.2021 15:25:16.172
595, 15.1168, 88.5311, 87.6378, 0, -0.00195312, 0, 9.87988, -0.0361328, -0.224609, 11.29.2021 15:25:16.180
596, 14.9044, 88.6945, 87.2926, 0, -0.000976562, 0, 9.86523, -0.0712891, -0.253906, 11.29.2021 15:25:16.188
597, 14.9044, 88.6945, 87.2926, 0, -0.000976562, 0, 9.88965, -0.0605469, -0.208984, 11.29.2021 15:25:16.196
598, 14.9044, 88.6945, 87.2926, 0, 0, 0, 9.87988, -0.0742188, -0.21875, 11.29.2021 15:25:16.204
599, 14.9044, 88.6945, 87.2926, 0, -0.000976562, 0, 9.86523, -0.0654297, -0.191406, 11.29.2021 15:25:16.212
600, 14.9044, 88.6945, 87.2926, 0, -0.00195312, 0, 9.87012, -0.0644531, -0.217773, 11.29.2021 15:25:16.220
601, 14.9044, 88.6945, 87.2926, 0, -0.000976562, -0.000976562, 9.86328, -0.0537109, -0.188477, 11.29.2021 15:25:16.228
602, 14.9044, 88.6945, 87.2926, 0.000976562, -0.000976562, 0, 9.85352, -0.0732422, -0.244141, 11.29.2021 15:25:16.236
603, 14.9044, 88.6945, 87.2926, 0, 0, -0.000976562, 9.86035, -0.0722656, -0.220703, 11.29.2021 15:25:16.244
604, 14.9044, 88.6945, 87.2926, 0, -0.000976562, 0, 9.88184, -0.0751953, -0.258789, 11.29.2021 15:25:16.252
605, 15.0039, 88.8276, 87.3009, 0, -0.000976562, 0, 9.88184, -0.0791016, -0.223633, 11.29.2021 15:25:16.260
606, 15.1723, 88.6906, 87.5577, 0, 0, 0, 9.89551, -0.0517578, -0.258789, 11.29.2021 15:25:16.268
607, 15.1723, 88.6906, 87.5577, 0, 0, -0.000976562, 9.90332, -0.0390625, -0.255859, 11.29.2021 15:25:16.276
608, 15.1723, 88.6906, 87.5577, 0, -0.00195312, -0.000976562, 9.87988, -0.0595703, -0.224609, 11.29.2021 15:25:16.284
609, 15.0484, 88.5249, 87.563, 0, -0.000976562, 0, 9.88477, -0.0605469, -0.208008, 11.29.2021 15:25:16.292
610, 15.0484, 88.5249, 87.563, 0, -0.00195312, -0.000976562, 9.8877, -0.0683594, -0.182617, 11.29.2021 15:25:16.300
611, 15.1466, 88.6412, 87.5704, 0, -0.000976562, -0.000976562, 9.89648, -0.0615234, -0.24707, 11.29.2021 15:25:16.308
612, 15.1466, 88.6412, 87.5704, -0.000976562, -0.00195312, 0, 9.89648, -0.0859375, -0.213867, 11.29.2021 15:25:16.316
613, 15.1466, 88.6412, 87.5704, 0, -0.000976562, -0.000976562, 9.87109, -0.0634766, -0.179688, 11.29.2021 15:25:16.324
614, 15.314, 88.5214, 87.8245, 0, -0.000976562, -0.000976562, 9.875, -0.0712891, -0.239258, 11.29.2021 15:25:16.332
615, 15.314, 88.5214, 87.8245, 0, 0, -0.000976562, 9.86035, -0.0673828, -0.222656, 11.29.2021 15:25:16.340
616, 15.314, 88.5214, 87.8245, 0, 0, -0.000976562, 9.84375, -0.0507812, -0.223633, 11.29.2021 15:25:16.348
617, 15.314, 88.5214, 87.8245, 0, -0.000976562, -0.000976562, 9.88184, -0.0771484, -0.21582, 11.29.2021 15:25:16.356
618, 15.4372, 88.6867, 87.8198, 0, -0.000976562, 0.000976562, 9.8916, -0.0654297, -0.194336, 11.29.2021 15:25:16.364
619, 15.4372, 88.6867, 87.8198, 0, -0.000976562, 0, 9.87891, -0.0566406, -0.255859, 11.29.2021 15:25:16.372
620, 15.4372, 88.6867, 87.8198, 0.000976562, -0.000976562, 0, 9.87207, -0.0478516, -0.219727, 11.29.2021 15:25:16.380
621, 15.4372, 88.6867, 87.8198, 0, 0.000976562, -0.000976562, 9.87988, -0.0595703, -0.169922, 11.29.2021 15:25:16.388
622, 15.4372, 88.6867, 87.8198, 0.000976562, 0.000976562, -0.000976562, 9.875, -0.0605469, -0.203125, 11.29.2021 15:25:16.396
623, 15.4372, 88.6867, 87.8198, -0.000976562, -0.000976562, -0.000976562, 9.88672, -0.0654297, -0.265625, 11.29.2021 15:25:16.404
624, 15.4372, 88.6867, 87.8198, -0.000976562, -0.00195312, -0.000976562, 9.86035, -0.0507812, -0.214844, 11.29.2021 15:25:16.412
625, 15.4372, 88.6867, 87.8198, -0.000976562, -0.00195312, -0.000976562, 9.88672, -0.0478516, -0.219727, 11.29.2021 15:25:16.420
626, 15.4372, 88.6867, 87.8198, 0, 0, 0, 9.87305, -0.0654297, -0.191406, 11.29.2021 15:25:16.428
627, 15.6498, 88.5242, 88.1622, 0.000976562, -0.000976562, -0.000976562, 9.86133, -0.0800781, -0.192383, 11.29.2021 15:25:16.436
628, 15.6498, 88.5242, 88.1622, -0.000976562, 0.000976562, -0.000976562, 9.875, -0.0605469, -0.199219, 11.29.2021 15:25:16.444
629, 15.7733, 88.6898, 88.1582, -0.00195312, 0, 0, 9.88477, -0.0751953, -0.185547, 11.29.2021 15:25:16.452
630, 15.6056, 88.8266, 87.9034, 0, -0.000976562, 0, 9.87988, -0.0615234, -0.232422, 11.29.2021 15:25:16.460
631, 15.6056, 88.8266, 87.9034, -0.000976562, -0.000976562, -0.000976562, 9.86719, -0.0380859, -0.223633, 11.29.2021 15:25:16.468
632, 15.6056, 88.8266, 87.9034, 0, -0.000976562, 0, 9.87891, -0.0595703, -0.241211, 11.29.2021 15:25:16.476
633, 15.6056, 88.8266, 87.9034, -0.000976562, -0.000976562, -0.000976562, 9.83105, -0.0644531, -0.243164, 11.29.2021 15:25:16.484
634, 15.6056, 88.8266, 87.9034, -0.000976562, 0.000976562, -0.000976562, 9.88281, -0.0634766, -0.199219, 11.29.2021 15:25:16.492
635, 15.8204, 88.6472, 88.2486, 0.000976562, 0, 0.000976562, 9.87305, -0.0410156, -0.203125, 11.29.2021 15:25:16.500
636, 15.8204, 88.6472, 88.2486, 0, 0, 0, 9.87695, -0.0625, -0.220703, 11.29.2021 15:25:16.508
637, 15.7246, 88.5305, 88.2432, 0, 0, 0, 9.87305, -0.0654297, -0.201172, 11.29.2021 15:25:16.516
638, 15.7246, 88.5305, 88.2432, 0, -0.000976562, 0, 9.87012, -0.0439453, -0.195312, 11.29.2021 15:25:16.524
639, 15.8494, 88.6967, 88.2394, 0, 0, 0, 9.8916, -0.0517578, -0.234375, 11.29.2021 15:25:16.532
640, 15.8494, 88.6967, 88.2394, 0, 0, 0, 9.88672, -0.0742188, -0.208984, 11.29.2021 15:25:16.540
641, 15.8494, 88.6967, 88.2394, 0.000976562, -0.000976562, -0.000976562, 9.87305, -0.0859375, -0.220703, 11.29.2021 15:25:16.548
642, 15.8494, 88.6967, 88.2394, 0.000976562, -0.000976562, 0, 9.87988, -0.0791016, -0.220703, 11.29.2021 15:25:16.556
643, 15.8494, 88.6967, 88.2394, 0, -0.000976562, 0, 9.88867, -0.0595703, -0.234375, 11.29.2021 15:25:16.564
644, 15.8494, 88.6967, 88.2394, 0, 0, 0, 9.8916, -0.0693359, -0.220703, 11.29.2021 15:25:16.572
645, 16.0676, 88.5331, 88.5878, -0.00195312, -0.000976562, 0, 9.89648, -0.0771484, -0.207031, 11.29.2021 15:25:16.580
646, 16.0676, 88.5331, 88.5878, 0.000976562, 0, 0, 9.84473, -0.015625, -0.263672, 11.29.2021 15:25:16.588
647, 15.8494, 88.6967, 88.2394, 0.000976562, 0.000976562, -0.000976562, 9.86523, -0.0351562, -0.243164, 11.29.2021 15:25:16.596
648, 15.8494, 88.6967, 88.2394, -0.000976562, 0.000976562, -0.00195312, 9.86816, -0.0556641, -0.214844, 11.29.2021 15:25:16.604
649, 15.8494, 88.6967, 88.2394, -0.000976562, -0.000976562, -0.000976562, 9.89453, -0.0654297, -0.204102, 11.29.2021 15:25:16.612
650, 15.8494, 88.6967, 88.2394, -0.000976562, 0.000976562, -0.000976562, 9.85547, -0.0791016, -0.234375, 11.29.2021 15:25:16.620
651, 15.8494, 88.6967, 88.2394, -0.000976562, -0.00195312, -0.000976562, 9.86328, -0.0810547, -0.235352, 11.29.2021 15:25:16.628
652, 15.8494, 88.6967, 88.2394, 0, -0.000976562, 0, 9.875, -0.0546875, -0.227539, 11.29.2021 15:25:16.636
653, 15.7246, 88.5305, 88.2432, -0.000976562, -0.00195312, -0.000976562, 9.90332, -0.0429688, -0.229492, 11.29.2021 15:25:16.644
654, 15.8204, 88.6472, 88.2486, -0.000976562, 0, 0, 9.87402, -0.0449219, -0.25293, 11.29.2021 15:25:16.652
655, 15.8204, 88.6472, 88.2486, -0.000976562, -0.000976562, -0.000976562, 9.89746, -0.0751953, -0.177734, 11.29.2021 15:25:16.660
656, 15.8204, 88.6472, 88.2486, -0.00195312, -0.000976562, -0.000976562, 9.89453, -0.0634766, -0.18457, 11.29.2021 15:25:16.668
657, 15.8204, 88.6472, 88.2486, -0.000976562, -0.000976562, -0.000976562, 9.85645, -0.0771484, -0.199219, 11.29.2021 15:25:16.676
658, 15.8204, 88.6472, 88.2486, -0.000976562, -0.000976562, 0, 9.87305, -0.0771484, -0.204102, 11.29.2021 15:25:16.684
659, 15.8204, 88.6472, 88.2486, -0.000976562, -0.00195312, 0, 9.84082, -0.0605469, -0.22168, 11.29.2021 15:25:16.692
660, 15.8204, 88.6472, 88.2486, -0.00195312, -0.000976562, 0, 9.86523, -0.0634766, -0.250977, 11.29.2021 15:25:16.700
661, 15.8204, 88.6472, 88.2486, -0.00195312, -0.000976562, -0.000976562, 9.86523, -0.0712891, -0.237305, 11.29.2021 15:25:16.708
662, 15.8204, 88.6472, 88.2486, -0.000976562, -0.00195312, 0, 9.87207, -0.0664062, -0.232422, 11.29.2021 15:25:16.716
663, 15.8204, 88.6472, 88.2486, -0.000976562, 0, 0, 9.84863, -0.0830078, -0.244141, 11.29.2021 15:25:16.724
664, 15.8204, 88.6472, 88.2486, 0, 0, 0, 9.88477, -0.0878906, -0.178711, 11.29.2021 15:25:16.732
665, 15.9151, 88.7751, 88.2539, -0.000976562, -0.000976562, -0.000976562, 9.88184, -0.046875, -0.255859, 11.29.2021 15:25:16.740
666, 15.9151, 88.7751, 88.2539, -0.000976562, 0, -0.000976562, 9.87012, -0.0214844, -0.225586, 11.29.2021 15:25:16.748
667, 15.9151, 88.7751, 88.2539, -0.000976562, -0.000976562, -0.000976562, 9.85059, -0.0507812, -0.211914, 11.29.2021 15:25:16.756
668, 15.9151, 88.7751, 88.2539, -0.000976562, -0.000976562, 0, 9.875, -0.0361328, -0.214844, 11.29.2021 15:25:16.764
669, 15.9151, 88.7751, 88.2539, -0.000976562, -0.000976562, 0, 9.85547, -0.0410156, -0.21875, 11.29.2021 15:25:16.772
670, 15.5779, 88.7719, 87.9143, -0.000976562, -0.000976562, 0, 9.90332, -0.0625, -0.268555, 11.29.2021 15:25:16.780
671, 15.7449, 88.6404, 88.1678, -0.000976562, -0.000976562, 0, 9.87695, -0.0839844, -0.275391, 11.29.2021 15:25:16.788
672, 15.7449, 88.6404, 88.1678, -0.000976562, 0, 0, 9.86719, -0.0615234, -0.246094, 11.29.2021 15:25:16.796
673, 15.7449, 88.6404, 88.1678, -0.000976562, -0.000976562, -0.000976562, 9.87012, -0.03125, -0.226562, 11.29.2021 15:25:16.804
674, 15.7449, 88.6404, 88.1678, -0.00195312, -0.000976562, -0.000976562, 9.875, -0.0595703, -0.217773, 11.29.2021 15:25:16.812
675, 15.6219, 88.4802, 88.1717, -0.00195312, -0.000976562, 0, 9.88086, -0.0595703, -0.165039, 11.29.2021 15:25:16.820
676, 15.6219, 88.4802, 88.1717, 0, 0, -0.000976562, 9.8584, -0.0664062, -0.172852, 11.29.2021 15:25:16.828
677, 15.6219, 88.4802, 88.1717, 0, -0.000976562, -0.000976562, 9.84082, -0.0625, -0.22168, 11.29.2021 15:25:16.836
678, 15.4103, 88.6374, 87.831, 0, -0.000976562, -0.000976562, 9.87695, -0.0595703, -0.244141, 11.29.2021 15:25:16.844
679, 15.4103, 88.6374, 87.831, -0.000976562, -0.000976562, -0.000976562, 9.86523, -0.0595703, -0.234375, 11.29.2021 15:25:16.852
680, 15.2438, 88.7684, 87.5777, -0.000976562, 0, -0.000976562, 9.87207, -0.0546875, -0.236328, 11.29.2021 15:25:16.860
681, 15.2438, 88.7684, 87.5777, 0, 0, -0.000976562, 9.8623, -0.0615234, -0.236328, 11.29.2021 15:25:16.868
682, 15.2438, 88.7684, 87.5777, 0, 0, -0.000976562, 9.8916, -0.0517578, -0.244141, 11.29.2021 15:25:16.876
683, 15.2438, 88.7684, 87.5777, -0.000976562, -0.00195312, -0.000976562, 9.87988, -0.0449219, -0.224609, 11.29.2021 15:25:16.884
684, 15.2438, 88.7684, 87.5777, 0, 0, 0, 9.87793, -0.0771484, -0.208984, 11.29.2021 15:25:16.892
685, 15.4103, 88.6374, 87.831, 0, -0.000976562, 0, 9.86816, -0.0791016, -0.208984, 11.29.2021 15:25:16.900
686, 15.4103, 88.6374, 87.831, -0.000976562, 0, -0.000976562, 9.88281, -0.0683594, -0.194336, 11.29.2021 15:25:16.908
687, 15.4103, 88.6374, 87.831, -0.000976562, -0.000976562, -0.000976562, 9.875, -0.0673828, -0.204102, 11.29.2021 15:25:16.916
688, 15.2438, 88.7684, 87.5777, -0.000976562, -0.000976562, 0, 9.86816, -0.0576172, -0.210938, 11.29.2021 15:25:16.924
689, 15.2438, 88.7684, 87.5777, -0.000976562, -0.000976562, -0.000976562, 9.87305, -0.0605469, -0.210938, 11.29.2021 15:25:16.932
690, 15.2438, 88.7684, 87.5777, -0.00195312, 0, -0.000976562, 9.8877, -0.0585938, -0.191406, 11.29.2021 15:25:16.940
691, 15.2438, 88.7684, 87.5777, -0.00195312, -0.000976562, -0.000976562, 9.86719, -0.0341797, -0.261719, 11.29.2021 15:25:16.948
692, 15.2438, 88.7684, 87.5777, -0.00195312, -0.000976562, -0.000976562, 9.8457, -0.0527344, -0.224609, 11.29.2021 15:25:16.956
693, 15.2438, 88.7684, 87.5777, -0.00195312, -0.000976562, -0.000976562, 9.88184, -0.0507812, -0.214844, 11.29.2021 15:25:16.964
694, 15.2438, 88.7684, 87.5777, -0.00195312, 0, -0.000976562, 9.86914, -0.0351562, -0.25, 11.29.2021 15:25:16.972
695, 15.2438, 88.7684, 87.5777, -0.000976562, -0.000976562, -0.000976562, 9.87012, -0.0664062, -0.253906, 11.29.2021 15:25:16.980
696, 15.2438, 88.7684, 87.5777, -0.000976562, -0.000976562, -0.000976562, 9.88672, -0.0546875, -0.229492, 11.29.2021 15:25:16.988
697, 15.121, 88.5936, 87.583, -0.00195312, -0.000976562, -0.000976562, 9.86328, -0.0673828, -0.227539, 11.29.2021 15:25:16.996
698, 15.121, 88.5936, 87.583, -0.000976562, -0.000976562, -0.00195312, 9.88477, -0.0859375, -0.240234, 11.29.2021 15:25:17.004
699, 15.121, 88.5936, 87.583, -0.000976562, -0.000976562, -0.000976562, 9.85059, -0.0722656, -0.272461, 11.29.2021 15:25:17.012
700, 15.121, 88.5936, 87.583, -0.000976562, -0.000976562, 0, 9.86816, -0.0576172, -0.214844, 11.29.2021 15:25:17.020
701, 15.121, 88.5936, 87.583, -0.000976562, -0.000976562, 0, 9.87012, -0.0751953, -0.204102, 11.29.2021 15:25:17.028
702, 15.121, 88.5936, 87.583, -0.00195312, -0.000976562, -0.000976562, 9.87207, -0.0449219, -0.238281, 11.29.2021 15:25:17.036
703, 15.121, 88.5936, 87.583, -0.00195312, 0, -0.000976562, 9.86523, -0.0673828, -0.206055, 11.29.2021 15:25:17.044
704, 15.121, 88.5936, 87.583, -0.000976562, -0.000976562, -0.000976562, 9.87305, -0.0869141, -0.199219, 11.29.2021 15:25:17.052
705, 15.2179, 88.7161, 87.5902, -0.000976562, -0.000976562, 0, 9.87793, -0.0654297, -0.1875, 11.29.2021 15:25:17.060
706, 15.2179, 88.7161, 87.5902, -0.000976562, 0, -0.000976562, 9.87793, -0.0400391, -0.176758, 11.29.2021 15:25:17.068
707, 15.121, 88.5936, 87.583, -0.000976562, -0.000976562, 0, 9.87695, -0.0273438, -0.193359, 11.29.2021 15:25:17.076
708, 15.121, 88.5936, 87.583, -0.000976562, -0.00195312, 0, 9.87988, -0.0693359, -0.217773, 11.29.2021 15:25:17.084
709, 15.121, 88.5936, 87.583, -0.000976562, -0.000976562, -0.000976562, 9.87207, -0.0478516, -0.22168, 11.29.2021 15:25:17.092
710, 15.121, 88.5936, 87.583, -0.000976562, -0.000976562, 0, 9.89453, -0.0712891, -0.223633, 11.29.2021 15:25:17.100
711, 15.1638, 88.5538, 87.6695, -0.000976562, -0.00195312, -0.000976562, 9.89941, -0.0556641, -0.206055, 11.29.2021 15:25:17.108
712, 15.2873, 88.7233, 87.6644, -0.000976562, -0.00195312, -0.000976562, 9.88477, -0.0712891, -0.230469, 11.29.2021 15:25:17.116
713, 15.2873, 88.7233, 87.6644, -0.000976562, 0, -0.00195312, 9.87695, -0.0644531, -0.242188, 11.29.2021 15:25:17.122
714, 15.2873, 88.7233, 87.6644, -0.000976562, -0.00195312, -0.00195312, 9.87891, -0.0419922, -0.262695, 11.29.2021 15:25:17.130
715, 14.9541, 88.7201, 87.3288, -0.000976562, -0.000976562, -0.00195312, 9.85547, -0.0400391, -0.25, 11.29.2021 15:25:17.138
716, 14.9541, 88.7201, 87.3288, -0.000976562, -0.000976562, 0, 9.88184, -0.0214844, -0.216797, 11.29.2021 15:25:17.146
717, 14.9541, 88.7201, 87.3288, -0.000976562, -0.000976562, -0.000976562, 9.87695, -0.0595703, -0.244141, 11.29.2021 15:25:17.154
718, 14.9541, 88.7201, 87.3288, 0, -0.000976562, 0, 9.9043, -0.0791016, -0.216797, 11.29.2021 15:25:17.164
719, 14.9541, 88.7201, 87.3288, 0, -0.000976562, 0, 9.88965, -0.0673828, -0.21582, 11.29.2021 15:25:17.170
720, 14.9541, 88.7201, 87.3288, 0, -0.000976562, -0.000976562, 9.875, -0.0634766, -0.246094, 11.29.2021 15:25:17.178
721, 14.9541, 88.7201, 87.3288, 0, 0.000976562, 0, 9.875, -0.0673828, -0.222656, 11.29.2021 15:25:17.186
722, 14.9541, 88.7201, 87.3288, 0, -0.000976562, 0, 9.88184, -0.0595703, -0.229492, 11.29.2021 15:25:17.194
723, 14.9541, 88.7201, 87.3288, 0, -0.000976562, 0, 9.87207, -0.0712891, -0.234375, 11.29.2021 15:25:17.202
724, 14.9541, 88.7201, 87.3288, 0, -0.00195312, -0.000976562, 9.88379, -0.0292969, -0.269531, 11.29.2021 15:25:17.210
725, 14.9981, 88.438, 87.5881, 0, 0.000976562, 0, 9.875, -0.0546875, -0.236328, 11.29.2021 15:25:17.218
726, 14.7905, 88.5906, 87.2502, 0, -0.000976562, -0.000976562, 9.86719, -0.0546875, -0.224609, 11.29.2021 15:25:17.226
727, 14.8886, 88.7128, 87.2584, 0, -0.000976562, -0.000976562, 9.86035, -0.0742188, -0.220703, 11.29.2021 15:25:17.234
728, 14.8886, 88.7128, 87.2584, 0, -0.00195312, 0, 9.8584, -0.0585938, -0.201172, 11.29.2021 15:25:17.242
729, 14.8886, 88.7128, 87.2584, 0, -0.00195312, 0, 9.87012, -0.0400391, -0.238281, 11.29.2021 15:25:17.250
730, 14.8886, 88.7128, 87.2584, 0, -0.000976562, 0, 9.88184, -0.0644531, -0.232422, 11.29.2021 15:25:17.258
731, 14.8886, 88.7128, 87.2584, 0.000976562, -0.000976562, 0, 9.87012, -0.0615234, -0.237305, 11.29.2021 15:25:17.266
732, 14.8886, 88.7128, 87.2584, 0, -0.000976562, 0, 9.86523, -0.0478516, -0.216797, 11.29.2021 15:25:17.274
733, 14.8886, 88.7128, 87.2584, 0, -0.000976562, 0, 9.90332, -0.0693359, -0.228516, 11.29.2021 15:25:17.282
734, 14.8886, 88.7128, 87.2584, 0, -0.000976562, -0.000976562, 9.85156, -0.0537109, -0.203125, 11.29.2021 15:25:17.290
735, 14.8886, 88.7128, 87.2584, 0, -0.000976562, -0.000976562, 9.875, -0.0478516, -0.22168, 11.29.2021 15:25:17.298
736, 14.7667, 88.5446, 87.2643, 0, -0.00195312, -0.000976562, 9.87695, -0.0644531, -0.239258, 11.29.2021 15:25:17.306
737, 14.7667, 88.5446, 87.2643, 0, -0.000976562, -0.000976562, 9.86328, -0.0888672, -0.223633, 11.29.2021 15:25:17.314
738, 14.7667, 88.5446, 87.2643, 0.000976562, -0.000976562, -0.000976562, 9.84082, -0.0839844, -0.234375, 11.29.2021 15:25:17.322
739, 14.9321, 88.4321, 87.5154, 0, -0.000976562, -0.000976562, 9.86816, -0.0673828, -0.222656, 11.29.2021 15:25:17.330
740, 14.9321, 88.4321, 87.5154, -0.000976562, -0.000976562, -0.000976562, 9.86035, -0.0615234, -0.244141, 11.29.2021 15:25:17.338
741, 14.9321, 88.4321, 87.5154, -0.000976562, 0.000976562, 0, 9.87207, -0.0664062, -0.232422, 11.29.2021 15:25:17.346
742, 15.029, 88.541, 87.5228, 0, -0.000976562, -0.000976562, 9.8584, -0.0625, -0.214844, 11.29.2021 15:25:17.354
743, 15.029, 88.541, 87.5228, 0, -0.000976562, 0, 9.84863, -0.0527344, -0.22168, 11.29.2021 15:25:17.362
744, 15.15, 88.7088, 87.5175, 0.000976562, -0.000976562, 0, 9.90625, -0.0722656, -0.213867, 11.29.2021 15:25:17.370
745, 15.15, 88.7088, 87.5175, 0, -0.000976562, 0, 9.87207, -0.0517578, -0.244141, 11.29.2021 15:25:17.378
746, 15.15, 88.7088, 87.5175, -0.000976562, -0.00195312, -0.000976562, 9.89551, -0.046875, -0.250977, 11.29.2021 15:25:17.386
747, 15.029, 88.541, 87.5228, 0, -0.000976562, 0, 9.87988, -0.0546875, -0.219727, 11.29.2021 15:25:17.394
748, 15.029, 88.541, 87.5228, 0, -0.000976562, 0, 9.87012, -0.0449219, -0.229492, 11.29.2021 15:25:17.402
749, 15.029, 88.541, 87.5228, 0, 0.000976562, 0, 9.86523, -0.0722656, -0.225586, 11.29.2021 15:25:17.410
750, 15.15, 88.7088, 87.5175, 0, 0.000976562, 0, 9.87012, -0.0605469, -0.191406, 11.29.2021 15:25:17.418
751, 15.15, 88.7088, 87.5175, -0.000976562, 0.000976562, -0.000976562, 9.85645, -0.0517578, -0.191406, 11.29.2021 15:25:17.426
752, 15.15, 88.7088, 87.5175, 0.000976562, 0.000976562, 0, 9.875, -0.0644531, -0.220703, 11.29.2021 15:25:17.434
753, 15.15, 88.7088, 87.5175, -0.000976562, 0.000976562, -0.000976562, 9.87109, -0.0566406, -0.179688, 11.29.2021 15:25:17.442
754, 15.15, 88.7088, 87.5175, -0.000976562, 0, -0.000976562, 9.8916, -0.0224609, -0.205078, 11.29.2021 15:25:17.450
755, 15.0539, 88.5869, 87.5101, -0.00195312, -0.000976562, 0, 9.87695, -0.0371094, -0.246094, 11.29.2021 15:25:17.458
756, 14.8886, 88.7128, 87.2584, -0.00195312, -0.000976562, 0, 9.87891, -0.0947266, -0.264648, 11.29.2021 15:25:17.466
757, 14.8886, 88.7128, 87.2584, -0.000976562, 0.000976562, -0.00195312, 9.87012, -0.0927734, -0.233398, 11.29.2021 15:25:17.474
758, 15.0957, 88.5473, 87.5954, -0.000976562, 0, -0.000976562, 9.86816, -0.046875, -0.176758, 11.29.2021 15:25:17.482
759, 15.0957, 88.5473, 87.5954, -0.000976562, 0, -0.000976562, 9.87695, -0.0693359, -0.217773, 11.29.2021 15:25:17.490
760, 15.0957, 88.5473, 87.5954, -0.000976562, 0.000976562, -0.00195312, 9.87012, -0.046875, -0.186523, 11.29.2021 15:25:17.498
761, 15.2179, 88.7161, 87.5902, 0.000976562, -0.000976562, 0, 9.86523, -0.0556641, -0.198242, 11.29.2021 15:25:17.506
762, 15.2179, 88.7161, 87.5902, -0.00195312, -0.000976562, 0, 9.8916, -0.0341797, -0.209961, 11.29.2021 15:25:17.514
763, 15.0519, 88.856, 87.3369, -0.000976562, 0, -0.000976562, 9.87012, -0.0771484, -0.220703, 11.29.2021 15:25:17.522
764, 15.0519, 88.856, 87.3369, 0, -0.000976562, 0, 9.87207, -0.0810547, -0.232422, 11.29.2021 15:25:17.530
765, 15.2611, 88.6726, 87.6765, 0, -0.00195312, 0, 9.88184, -0.0693359, -0.222656, 11.29.2021 15:25:17.538
766, 15.2611, 88.6726, 87.6765, 0.000976562, -0.000976562, 0.000976562, 9.84863, -0.0927734, -0.256836, 11.29.2021 15:25:17.546
767, 15.4278, 88.5503, 87.9295, 0.000976562, -0.000976562, 0, 9.86523, -0.09375, -0.220703, 11.29.2021 15:25:17.554
768, 15.5504, 88.7192, 87.9251, 0, -0.000976562, 0, 9.89844, -0.0527344, -0.220703, 11.29.2021 15:25:17.562
769, 15.5504, 88.7192, 87.9251, -0.000976562, 0, -0.00195312, 9.85547, -0.0712891, -0.250977, 11.29.2021 15:25:17.570
770, 15.5504, 88.7192, 87.9251, -0.000976562, 0, -0.000976562, 9.84082, -0.0449219, -0.238281, 11.29.2021 15:25:17.578
771, 15.5504, 88.7192, 87.9251, 0.000976562, 0, -0.00195312, 9.85156, -0.0849609, -0.197266, 11.29.2021 15:25:17.586
772, 15.5504, 88.7192, 87.9251, -0.000976562, 0, -0.00195312, 9.88184, -0.0664062, -0.227539, 11.29.2021 15:25:17.594
773, 15.5504, 88.7192, 87.9251, -0.00195312, -0.000976562, 0, 9.88184, -0.0429688, -0.219727, 11.29.2021 15:25:17.602
774, 15.5504, 88.7192, 87.9251, 0, -0.000976562, 0, 9.86621, -0.0732422, -0.191406, 11.29.2021 15:25:17.610
775, 15.5504, 88.7192, 87.9251, 0, -0.00195312, 0, 9.8457, -0.0576172, -0.216797, 11.29.2021 15:25:17.618
776, 15.5504, 88.7192, 87.9251, 0.000976562, -0.000976562, 0, 9.85059, -0.0585938, -0.257812, 11.29.2021 15:25:17.626
777, 15.5504, 88.7192, 87.9251, -0.000976562, 0, -0.000976562, 9.88281, -0.0488281, -0.18457, 11.29.2021 15:25:17.634
778, 15.7629, 88.553, 88.2668, 0, -0.000976562, 0, 9.87793, -0.0791016, -0.15918, 11.29.2021 15:25:17.642
779, 15.7629, 88.553, 88.2668, 0.000976562, -0.000976562, 0, 9.87988, -0.0810547, -0.225586, 11.29.2021 15:25:17.650
780, 15.7629, 88.553, 88.2668, 0, -0.000976562, 0, 9.88672, -0.0498047, -0.236328, 11.29.2021 15:25:17.658
781, 15.8859, 88.7225, 88.263, 0, 0.000976562, 0, 9.88184, -0.0292969, -0.214844, 11.29.2021 15:25:17.666
782, 15.8859, 88.7225, 88.263, -0.000976562, 0, -0.00195312, 9.87988, -0.0537109, -0.189453, 11.29.2021 15:25:17.674
783, 15.8859, 88.7225, 88.263, -0.000976562, 0, -0.000976562, 9.88672, -0.046875, -0.241211, 11.29.2021 15:25:17.682
784, 15.8859, 88.7225, 88.263, -0.000976562, -0.000976562, 0, 9.88672, -0.0683594, -0.24707, 11.29.2021 15:25:17.690
785, 15.719, 88.8632, 88.0092, -0.000976562, 0, -0.00195312, 9.87695, -0.0683594, -0.249023, 11.29.2021 15:25:17.698
786, 15.719, 88.8632, 88.0092, -0.000976562, -0.000976562, -0.000976562, 9.87402, -0.0283203, -0.231445, 11.29.2021 15:25:17.706
787, 15.719, 88.8632, 88.0092, -0.000976562, -0.000976562, 0, 9.86523, -0.0683594, -0.199219, 11.29.2021 15:25:17.714
788, 15.719, 88.8632, 88.0092, -0.000976562, -0.000976562, -0.000976562, 9.88965, -0.0722656, -0.21875, 11.29.2021 15:25:17.722
789, 15.719, 88.8632, 88.0092, -0.000976562, -0.000976562, -0.000976562, 9.86328, -0.0673828, -0.210938, 11.29.2021 15:25:17.730
790, 15.719, 88.8632, 88.0092, -0.000976562, -0.00195312, -0.000976562, 9.86523, -0.0507812, -0.217773, 11.29.2021 15:25:17.738
791, 15.5957, 88.6757, 88.0135, -0.000976562, -0.000976562, -0.000976562, 9.8584, -0.0625, -0.208008, 11.29.2021 15:25:17.746
792, 15.719, 88.8632, 88.0092, 0.000976562, -0.000976562, 0, 9.86523, -0.09375, -0.216797, 11.29.2021 15:25:17.754
793, 15.719, 88.8632, 88.0092, 0.000976562, -0.000976562, 0, 9.85645, -0.0800781, -0.196289, 11.29.2021 15:25:17.762
794, 15.719, 88.8632, 88.0092, -0.000976562, -0.00195312, -0.000976562, 9.87305, -0.0625, -0.212891, 11.29.2021 15:25:17.770
795, 15.719, 88.8632, 88.0092, -0.000976562, -0.000976562, 0, 9.85742, -0.0576172, -0.231445, 11.29.2021 15:25:17.778
796, 15.9336, 88.6788, 88.3534, -0.00195312, -0.000976562, 0, 9.85352, -0.0498047, -0.229492, 11.29.2021 15:25:17.786
797, 15.9336, 88.6788, 88.3534, -0.00195312, -0.000976562, -0.000976562, 9.89355, -0.0371094, -0.262695, 11.29.2021 15:25:17.794
798, 15.9336, 88.6788, 88.3534, -0.000976562, -0.000976562, 0, 9.88184, -0.0595703, -0.217773, 11.29.2021 15:25:17.802
799, 15.719, 88.8632, 88.0092, -0.000976562, -0.000976562, -0.000976562, 9.8584, -0.0556641, -0.219727, 11.29.2021 15:25:17.810
800, 15.719, 88.8632, 88.0092, 0.000976562, -0.00195312, 0, 9.88867, -0.0664062, -0.237305, 11.29.2021 15:25:17.818
801, 15.5957, 88.6757, 88.0135, -0.000976562, -0.00195312, -0.000976562, 9.88184, -0.0576172, -0.224609, 11.29.2021 15:25:17.826
802, 15.5957, 88.6757, 88.0135, -0.000976562, -0.000976562, 0, 9.86035, -0.0849609, -0.261719, 11.29.2021 15:25:17.834
803, 15.5957, 88.6757, 88.0135, -0.000976562, -0.00195312, -0.000976562, 9.86816, -0.0585938, -0.201172, 11.29.2021 15:25:17.842
804, 15.5957, 88.6757, 88.0135, -0.00195312, -0.000976562, -0.000976562, 9.86523, -0.0576172, -0.231445, 11.29.2021 15:25:17.850
805, 15.5957, 88.6757, 88.0135, -0.000976562, 0, 0, 9.9082, -0.0283203, -0.226562, 11.29.2021 15:25:17.858
806, 15.5957, 88.6757, 88.0135, 0.000976562, -0.000976562, 0, 9.88574, -0.078125, -0.168945, 11.29.2021 15:25:17.866
807, 15.5957, 88.6757, 88.0135, -0.000976562, -0.000976562, -0.000976562, 9.88477, -0.0556641, -0.212891, 11.29.2021 15:25:17.874
808, 15.5957, 88.6757, 88.0135, -0.000976562, -0.000976562, -0.000976562, 9.88672, -0.0830078, -0.251953, 11.29.2021 15:25:17.882
809, 15.5957, 88.6757, 88.0135, -0.000976562, 0, -0.000976562, 9.87207, -0.0908203, -0.228516, 11.29.2021 15:25:17.890
810, 15.5957, 88.6757, 88.0135, -0.000976562, -0.000976562, -0.000976562, 9.87305, -0.0605469, -0.210938, 11.29.2021 15:25:17.898
811, 15.5957, 88.6757, 88.0135, -0.00195312, 0, 0, 9.87207, -0.0566406, -0.234375, 11.29.2021 15:25:17.906
812, 15.6909, 88.8068, 88.0195, -0.00195312, 0, -0.000976562, 9.85059, -0.0527344, -0.236328, 11.29.2021 15:25:17.914
813, 15.8571, 88.6719, 88.272, -0.000976562, -0.000976562, 0, 9.88184, -0.0605469, -0.263672, 11.29.2021 15:25:17.922
814, 15.8571, 88.6719, 88.272, 0.000976562, -0.000976562, -0.000976562, 9.875, -0.0566406, -0.244141, 11.29.2021 15:25:17.930
815, 15.8571, 88.6719, 88.272, -0.000976562, 0.000976562, -0.000976562, 9.87695, -0.0830078, -0.233398, 11.29.2021 15:25:17.938
816, 15.8571, 88.6719, 88.272, -0.000976562, 0.000976562, -0.00195312, 9.87988, -0.0419922, -0.171875, 11.29.2021 15:25:17.946
817, 15.7345, 88.5083, 88.2757, -0.000976562, 0, -0.00195312, 9.86523, -0.0283203, -0.235352, 11.29.2021 15:25:17.954
818, 15.5231, 88.6688, 87.9357, 0, -0.000976562, 0, 9.85742, -0.0400391, -0.248047, 11.29.2021 15:25:17.962
819, 15.5231, 88.6688, 87.9357, 0, -0.00195312, 0, 9.87695, -0.0585938, -0.258789, 11.29.2021 15:25:17.970
820, 15.5231, 88.6688, 87.9357, -0.000976562, -0.00195312, -0.000976562, 9.9082, -0.0761719, -0.240234, 11.29.2021 15:25:17.978
821, 15.5231, 88.6688, 87.9357, 0, -0.000976562, 0, 9.89844, -0.0595703, -0.217773, 11.29.2021 15:25:17.986
822, 15.401, 88.5055, 87.9401, 0, 0.000976562, 0, 9.85352, -0.0449219, -0.228516, 11.29.2021 15:25:17.994
823, 15.401, 88.5055, 87.9401, -0.000976562, -0.000976562, -0.000976562, 9.87012, -0.0556641, -0.209961, 11.29.2021 15:25:18.002
824, 15.401, 88.5055, 87.9401, -0.000976562, -0.000976562, -0.000976562, 9.87695, -0.0791016, -0.21875, 11.29.2021 15:25:18.010
825, 15.1923, 88.6657, 87.6025, -0.000976562, -0.000976562, -0.000976562, 9.86719, -0.0644531, -0.224609, 11.29.2021 15:25:18.018
826, 15.1923, 88.6657, 87.6025, -0.00195312, -0.000976562, -0.000976562, 9.8584, -0.0732422, -0.194336, 11.29.2021 15:25:18.026
827, 15.1923, 88.6657, 87.6025, -0.000976562, -0.000976562, -0.000976562, 9.8457, -0.0439453, -0.214844, 11.29.2021 15:25:18.034
828, 15.1923, 88.6657, 87.6025, 0.000976562, -0.00195312, 0, 9.88672, -0.0595703, -0.239258, 11.29.2021 15:25:18.042
829, 15.1923, 88.6657, 87.6025, -0.000976562, -0.000976562, -0.000976562, 9.91309, -0.0673828, -0.202148, 11.29.2021 15:25:18.050
830, 15.1923, 88.6657, 87.6025, -0.000976562, -0.00195312, -0.000976562, 9.88672, -0.0625, -0.222656, 11.29.2021 15:25:18.058
831, 15.1923, 88.6657, 87.6025, 0, 0.000976562, 0, 9.85547, -0.0498047, -0.233398, 11.29.2021 15:25:18.066
832, 15.1923, 88.6657, 87.6025, 0, -0.000976562, 0, 9.90137, -0.0712891, -0.228516, 11.29.2021 15:25:18.074
833, 15.401, 88.5055, 87.9401, -0.00195312, 0.000976562, 0, 9.875, -0.0566406, -0.236328, 11.29.2021 15:25:18.082
834, 15.401, 88.5055, 87.9401, 0.000976562, 0.000976562, -0.000976562, 9.88184, -0.0585938, -0.253906, 11.29.2021 15:25:18.090
835, 15.1923, 88.6657, 87.6025, 0, -0.00195312, 0, 9.875, -0.0634766, -0.196289, 11.29.2021 15:25:18.098
836, 15.1923, 88.6657, 87.6025, -0.000976562, -0.000976562, -0.000976562, 9.86035, -0.0625, -0.214844, 11.29.2021 15:25:18.106
837, 15.1923, 88.6657, 87.6025, -0.000976562, -0.00195312, -0.000976562, 9.84375, -0.0566406, -0.248047, 11.29.2021 15:25:18.114
838, 15.1923, 88.6657, 87.6025, 0, -0.00195312, -0.000976562, 9.875, -0.0585938, -0.179688, 11.29.2021 15:25:18.122
839, 15.1923, 88.6657, 87.6025, 0.000976562, -0.00195312, -0.000976562, 9.87207, -0.0595703, -0.236328, 11.29.2021 15:25:18.130
840, 15.1923, 88.6657, 87.6025, 0, -0.000976562, 0, 9.88672, -0.0615234, -0.239258, 11.29.2021 15:25:18.138
841, 15.1923, 88.6657, 87.6025, -0.000976562, -0.00195312, -0.000976562, 9.88184, -0.0410156, -0.216797, 11.29.2021 15:25:18.146
842, 15.1923, 88.6657, 87.6025, -0.000976562, -0.000976562, -0.000976562, 9.87695, -0.046875, -0.257812, 11.29.2021 15:25:18.154
843, 15.1923, 88.6657, 87.6025, 0, -0.000976562, 0, 9.85742, -0.0693359, -0.241211, 11.29.2021 15:25:18.162
844, 15.0705, 88.5028, 87.6077, -0.00195312, -0.000976562, -0.000976562, 9.86523, -0.0507812, -0.208008, 11.29.2021 15:25:18.170
845, 15.0705, 88.5028, 87.6077, -0.00195312, -0.00195312, -0.000976562, 9.88867, -0.0498047, -0.222656, 11.29.2021 15:25:18.178
846, 14.9051, 88.6209, 87.3562, -0.00195312, 0, -0.000976562, 9.87988, -0.0507812, -0.206055, 11.29.2021 15:25:18.186
847, 14.9051, 88.6209, 87.3562, -0.00195312, 0.000976562, 0, 9.86035, -0.0605469, -0.208008, 11.29.2021 15:25:18.194
848, 14.9051, 88.6209, 87.3562, 0, -0.000976562, 0, 9.87988, -0.0527344, -0.212891, 11.29.2021 15:25:18.202
849, 14.9051, 88.6209, 87.3562, 0, 0, 0, 9.89355, -0.0595703, -0.239258, 11.29.2021 15:25:18.210
850, 14.9051, 88.6209, 87.3562, 0, 0.000976562, 0, 9.87988, -0.0566406, -0.237305, 11.29.2021 15:25:18.218
851, 14.9051, 88.6209, 87.3562, 0, 0.000976562, -0.000976562, 9.85254, -0.0449219, -0.243164, 11.29.2021 15:25:18.226
852, 14.9051, 88.6209, 87.3562, 0, 0.000976562, -0.000976562, 9.88379, -0.0712891, -0.240234, 11.29.2021 15:25:18.234
853, 14.9051, 88.6209, 87.3562, 0.000976562, 0, 0, 9.85352, -0.0605469, -0.219727, 11.29.2021 15:25:18.242
854, 14.9051, 88.6209, 87.3562, 0.000976562, 0, -0.000976562, 9.84375, -0.0644531, -0.243164, 11.29.2021 15:25:18.250
855, 14.9051, 88.6209, 87.3562, 0, -0.000976562, 0, 9.86523, -0.0908203, -0.237305, 11.29.2021 15:25:18.256
856, 14.9051, 88.6209, 87.3562, 0, -0.00292969, 0, 9.85742, -0.0615234, -0.250977, 11.29.2021 15:25:18.264
857, 15.0022, 88.7462, 87.3641, 0, -0.000976562, -0.000976562, 9.8457, -0.0644531, -0.239258, 11.29.2021 15:25:18.272
858, 14.9612, 88.7921, 87.2805, 0, -0.000976562, 0, 9.88965, -0.0830078, -0.233398, 11.29.2021 15:25:18.280
859, 14.9612, 88.7921, 87.2805, 0, 0, -0.000976562, 9.8623, -0.0478516, -0.224609, 11.29.2021 15:25:18.288
860, 14.8404, 88.6142, 87.2862, 0.000976562, 0, -0.000976562, 9.87891, -0.0869141, -0.256836, 11.29.2021 15:25:18.296
861, 14.8404, 88.6142, 87.2862, 0, 0, -0.00195312, 9.86328, -0.0517578, -0.188477, 11.29.2021 15:25:18.304
862, 14.8404, 88.6142, 87.2862, -0.00195312, 0, -0.00195312, 9.85254, -0.046875, -0.25293, 11.29.2021 15:25:18.312
863, 14.8404, 88.6142, 87.2862, -0.00195312, 0, -0.000976562, 9.85645, -0.0332031, -0.178711, 11.29.2021 15:25:18.320
864, 14.8404, 88.6142, 87.2862, 0, 0, 0, 9.85742, -0.0693359, -0.241211, 11.29.2021 15:25:18.328
865, 14.8404, 88.6142, 87.2862, 0, 0.000976562, -0.000976562, 9.86523, -0.0664062, -0.241211, 11.29.2021 15:25:18.336
866, 14.8404, 88.6142, 87.2862, 0.000976562, 0.00195312, -0.000976562, 9.875, -0.0820312, -0.194336, 11.29.2021 15:25:18.344
867, 14.8404, 88.6142, 87.2862, 0, 0.000976562, 0, 9.88672, -0.0576172, -0.210938, 11.29.2021 15:25:18.352
868, 14.8404, 88.6142, 87.2862, 0, 0, 0, 9.85254, -0.0615234, -0.246094, 11.29.2021 15:25:18.360
869, 14.8404, 88.6142, 87.2862, 0, -0.000976562, -0.000976562, 9.8623, -0.0566406, -0.262695, 11.29.2021 15:25:18.368
870, 14.8404, 88.6142, 87.2862, 0, 0.000976562, 0, 9.8457, -0.0546875, -0.236328, 11.29.2021 15:25:18.376
871, 14.9369, 88.7387, 87.2942, 0, 0, -0.000976562, 9.86523, -0.0742188, -0.232422, 11.29.2021 15:25:18.384
872, 14.9369, 88.7387, 87.2942, 0, 0, -0.000976562, 9.87012, -0.0761719, -0.222656, 11.29.2021 15:25:18.392
873, 15.0998, 88.6104, 87.5426, -0.00195312, 0, 0, 9.87207, -0.0742188, -0.230469, 11.29.2021 15:25:18.400
874, 15.0998, 88.6104, 87.5426, 0, 0, -0.000976562, 9.87695, -0.0732422, -0.240234, 11.29.2021 15:25:18.408
875, 15.0998, 88.6104, 87.5426, 0, 0.000976562, 0, 9.86523, -0.0693359, -0.21582, 11.29.2021 15:25:18.416
876, 15.305, 88.4559, 87.8749, 0, 0, 0.000976562, 9.88867, -0.0498047, -0.244141, 11.29.2021 15:25:18.424
877, 15.305, 88.4559, 87.8749, 0.000976562, 0.000976562, 0, 9.88965, -0.0673828, -0.213867, 11.29.2021 15:25:18.432
878, 15.305, 88.4559, 87.8749, 0.000976562, -0.000976562, -0.000976562, 9.89062, -0.0634766, -0.263672, 11.29.2021 15:25:18.440
879, 15.1944, 88.7345, 87.5498, -0.000976562, 0, 0, 9.87207, -0.0556641, -0.272461, 11.29.2021 15:25:18.448
880, 15.1944, 88.7345, 87.5498, -0.000976562, -0.000976562, 0, 9.86328, -0.0712891, -0.227539, 11.29.2021 15:25:18.456
881, 15.3562, 88.6066, 87.796, 0.000976562, -0.000976562, -0.000976562, 9.87012, -0.0517578, -0.188477, 11.29.2021 15:25:18.464
882, 15.3562, 88.6066, 87.796, 0.000976562, -0.00195312, 0, 9.88672, -0.0439453, -0.201172, 11.29.2021 15:25:18.472
883, 15.3562, 88.6066, 87.796, -0.000976562, -0.000976562, -0.000976562, 9.84863, -0.0820312, -0.208984, 11.29.2021 15:25:18.480
884, 15.3562, 88.6066, 87.796, -0.00195312, -0.000976562, -0.000976562, 9.88672, -0.0722656, -0.206055, 11.29.2021 15:25:18.488
885, 15.5616, 88.4525, 88.1271, -0.000976562, 0, 0.000976562, 9.85547, -0.0429688, -0.228516, 11.29.2021 15:25:18.496
886, 15.6812, 88.6096, 88.1231, -0.000976562, -0.000976562, 0, 9.87207, -0.0595703, -0.232422, 11.29.2021 15:25:18.504
887, 15.6812, 88.6096, 88.1231, -0.000976562, -0.000976562, 0, 9.86816, -0.0742188, -0.220703, 11.29.2021 15:25:18.512
888, 15.6812, 88.6096, 88.1231, -0.000976562, 0, -0.000976562, 9.8418, -0.0839844, -0.220703, 11.29.2021 15:25:18.520
889, 15.5189, 88.7378, 87.8767, -0.00195312, -0.000976562, -0.00195312, 9.86523, -0.0683594, -0.194336, 11.29.2021 15:25:18.528
890, 15.5189, 88.7378, 87.8767, -0.000976562, -0.00195312, 0, 9.88867, -0.046875, -0.257812, 11.29.2021 15:25:18.536
891, 15.5189, 88.7378, 87.8767, -0.00195312, -0.000976562, 0, 9.86523, -0.0585938, -0.196289, 11.29.2021 15:25:18.544
892, 15.5189, 88.7378, 87.8767, -0.000976562, -0.000976562, 0, 9.86719, -0.046875, -0.25293, 11.29.2021 15:25:18.552
893, 15.5189, 88.7378, 87.8767, -0.000976562, -0.000976562, 0, 9.86816, -0.0722656, -0.208984, 11.29.2021 15:25:18.560
894, 15.5189, 88.7378, 87.8767, -0.000976562, -0.000976562, 0, 9.86719, -0.078125, -0.251953, 11.29.2021 15:25:18.568
895, 15.5189, 88.7378, 87.8767, -0.000976562, -0.000976562, -0.000976562, 9.88379, -0.0703125, -0.251953, 11.29.2021 15:25:18.576
896, 15.5189, 88.7378, 87.8767, -0.00195312, -0.000976562, 0, 9.875, -0.0458984, -0.209961, 11.29.2021 15:25:18.584
897, 15.7261, 88.5695, 88.2103, -0.00195312, -0.000976562, 0, 9.8623, -0.0527344, -0.231445, 11.29.2021 15:25:18.592
898, 15.7261, 88.5695, 88.2103, -0.000976562, -0.000976562, 0, 9.84082, -0.0429688, -0.22168, 11.29.2021 15:25:18.600
899, 15.7261, 88.5695, 88.2103, -0.00195312, -0.000976562, -0.000976562, 9.89648, -0.0664062, -0.230469, 11.29.2021 15:25:18.608
900, 15.5189, 88.7378, 87.8767, -0.000976562, -0.000976562, -0.000976562, 9.8916, -0.0585938, -0.244141, 11.29.2021 15:25:18.616
901, 15.5189, 88.7378, 87.8767, -0.000976562, -0.00195312, -0.000976562, 9.88965, -0.078125, -0.182617, 11.29.2021 15:25:18.624
902, 15.7261, 88.5695, 88.2103, -0.000976562, -0.000976562, 0, 9.86523, -0.0556641, -0.196289, 11.29.2021 15:25:18.632
903, 15.7261, 88.5695, 88.2103, -0.000976562, -0.000976562, -0.000976562, 9.88477, -0.0507812, -0.196289, 11.29.2021 15:25:18.640
904, 15.7261, 88.5695, 88.2103, -0.000976562, -0.000976562, 0, 9.87695, -0.0566406, -0.255859, 11.29.2021 15:25:18.648
905, 15.7261, 88.5695, 88.2103, -0.000976562, -0.000976562, 0, 9.87891, -0.0302734, -0.25, 11.29.2021 15:25:18.656
906, 15.5629, 88.6937, 87.9628, -0.000976562, -0.00195312, 0, 9.875, -0.0410156, -0.205078, 11.29.2021 15:25:18.664
907, 15.5629, 88.6937, 87.9628, 0.000976562, -0.000976562, -0.000976562, 9.85352, -0.0615234, -0.176758, 11.29.2021 15:25:18.672
908, 15.4691, 88.5732, 87.9567, -0.000976562, -0.00195312, -0.000976562, 9.88965, -0.0810547, -0.235352, 11.29.2021 15:25:18.680
909, 15.4691, 88.5732, 87.9567, 0.000976562, -0.000976562, 0, 9.88281, -0.0673828, -0.199219, 11.29.2021 15:25:18.688
910, 15.4691, 88.5732, 87.9567, 0, -0.000976562, -0.000976562, 9.86523, -0.0664062, -0.241211, 11.29.2021 15:25:18.696
911, 15.4691, 88.5732, 87.9567, 0, 0, -0.00195312, 9.87305, -0.0625, -0.212891, 11.29.2021 15:25:18.704
912, 15.4691, 88.5732, 87.9567, 0, -0.000976562, -0.000976562, 9.85938, -0.0351562, -0.259766, 11.29.2021 15:25:18.712
913, 15.4691, 88.5732, 87.9567, 0, 0, 0, 9.86523, -0.0517578, -0.239258, 11.29.2021 15:25:18.720
914, 15.4691, 88.5732, 87.9567, 0, 0, 0, 9.87012, -0.0566406, -0.239258, 11.29.2021 15:25:18.728
915, 15.3048, 88.6978, 87.7071, 0.000976562, 0, -0.000976562, 9.87793, -0.0800781, -0.199219, 11.29.2021 15:25:18.736
916, 15.3048, 88.6978, 87.7071, 0.000976562, 0.00195312, -0.000976562, 9.87988, -0.0498047, -0.224609, 11.29.2021 15:25:18.744
917, 15.2091, 88.5769, 87.7003, 0.000976562, 0.000976562, 0, 9.8418, -0.0585938, -0.198242, 11.29.2021 15:25:18.752
918, 15.2091, 88.5769, 87.7003, 0, 0, 0, 9.87402, -0.0302734, -0.240234, 11.29.2021 15:25:18.760
919, 15.2091, 88.5769, 87.7003, 0, 0, -0.000976562, 9.89844, -0.0410156, -0.222656, 11.29.2021 15:25:18.768
920, 15.2091, 88.5769, 87.7003, 0, 0.000976562, -0.000976562, 9.87207, -0.0546875, -0.244141, 11.29.2021 15:25:18.776
921, 15.2091, 88.5769, 87.7003, -0.00195312, 0.000976562, 0, 9.89941, -0.0869141, -0.195312, 11.29.2021 15:25:18.784
922, 15.2091, 88.5769, 87.7003, 0, 0.000976562, -0.000976562, 9.87207, -0.0722656, -0.222656, 11.29.2021 15:25:18.792
923, 15.2091, 88.5769, 87.7003, 0, 0.000976562, -0.000976562, 9.87891, -0.0917969, -0.268555, 11.29.2021 15:25:18.800
924, 15.2091, 88.5769, 87.7003, 0, 0, -0.000976562, 9.86328, -0.0703125, -0.208008, 11.29.2021 15:25:18.808
925, 15.2091, 88.5769, 87.7003, -0.00195312, 0, -0.000976562, 9.86035, -0.0791016, -0.217773, 11.29.2021 15:25:18.816
926, 15.2091, 88.5769, 87.7003, -0.00195312, 0, -0.000976562, 9.86719, -0.0556641, -0.219727, 11.29.2021 15:25:18.824
927, 15.0437, 88.7019, 87.4482, -0.00195312, 0.000976562, -0.000976562, 9.89355, -0.0341797, -0.212891, 11.29.2021 15:25:18.832
928, 15.0437, 88.7019, 87.4482, 0, 0, 0, 9.87793, -0.0839844, -0.21582, 11.29.2021 15:25:18.840
929, 15.0437, 88.7019, 87.4482, 0, 0, -0.000976562, 9.86523, -0.0644531, -0.227539, 11.29.2021 15:25:18.848
930, 15.0437, 88.7019, 87.4482, 0, -0.000976562, -0.000976562, 9.86328, -0.0791016, -0.227539, 11.29.2021 15:25:18.856
931, 15.2091, 88.5769, 87.7003, 0, -0.000976562, -0.000976562, 9.88281, -0.0966797, -0.207031, 11.29.2021 15:25:18.864
932, 15.5406, 88.5798, 88.034, -0.00195312, 0, 0, 9.87988, -0.0400391, -0.229492, 11.29.2021 15:25:18.872
933, 15.5406, 88.5798, 88.034, -0.000976562, 0, 0.000976562, 9.88379, -0.0332031, -0.228516, 11.29.2021 15:25:18.880
934, 15.5406, 88.5798, 88.034, -0.00195312, 0, 0, 9.86719, -0.0419922, -0.257812, 11.29.2021 15:25:18.888
935, 15.5406, 88.5798, 88.034, 0, 0, -0.000976562, 9.89453, -0.0722656, -0.21875, 11.29.2021 15:25:18.896
936, 15.3747, 88.7049, 87.782, -0.00195312, -0.000976562, -0.000976562, 9.88477, -0.0683594, -0.189453, 11.29.2021 15:25:18.904
937, 15.3482, 88.6552, 87.7934, -0.00195312, 0, 0, 9.87695, -0.0761719, -0.237305, 11.29.2021 15:25:18.912
938, 15.5134, 88.5342, 88.044, 0, 0, 0, 9.87402, -0.0488281, -0.25293, 11.29.2021 15:25:18.920
939, 15.5134, 88.5342, 88.044, 0, 0, 0, 9.86035, -0.03125, -0.226562, 11.29.2021 15:25:18.928
940, 15.5134, 88.5342, 88.044, 0, -0.00195312, 0, 9.84375, -0.0458984, -0.226562, 11.29.2021 15:25:18.936
941, 15.5134, 88.5342, 88.044, 0, 0, 0, 9.88965, -0.0625, -0.225586, 11.29.2021 15:25:18.944
942, 15.3482, 88.6552, 87.7934, -0.000976562, -0.000976562, -0.000976562, 9.87793, -0.0585938, -0.177734, 11.29.2021 15:25:18.952
943, 15.3482, 88.6552, 87.7934, -0.000976562, -0.00195312, -0.000976562, 9.87988, -0.0800781, -0.185547, 11.29.2021 15:25:18.960
944, 15.3482, 88.6552, 87.7934, 0, -0.000976562, -0.000976562, 9.87305, -0.0605469, -0.212891, 11.29.2021 15:25:18.968
945, 15.2522, 88.5377, 87.7867, 0, -0.000976562, -0.00195312, 9.87012, -0.0556641, -0.208008, 11.29.2021 15:25:18.976
946, 15.2522, 88.5377, 87.7867, 0, -0.000976562, -0.00195312, 9.86035, -0.0859375, -0.240234, 11.29.2021 15:25:18.984
947, 15.3747, 88.7049, 87.782, 0.000976562, -0.000976562, 0, 9.90137, -0.0527344, -0.217773, 11.29.2021 15:25:18.992
948, 15.3747, 88.7049, 87.782, 0, -0.00195312, 0, 9.86035, -0.0546875, -0.222656, 11.29.2021 15:25:19.000
949, 15.3747, 88.7049, 87.782, 0, -0.00195312, 0, 9.89453, -0.0771484, -0.213867, 11.29.2021 15:25:19.008
950, 15.3747, 88.7049, 87.782, 0, -0.000976562, -0.000976562, 9.87402, -0.0585938, -0.246094, 11.29.2021 15:25:19.016
951, 15.3747, 88.7049, 87.782, 0, -0.000976562, -0.000976562, 9.8584, -0.0673828, -0.210938, 11.29.2021 15:25:19.024
952, 15.3747, 88.7049, 87.782, 0.000976562, -0.000976562, -0.000976562, 9.88281, -0.0839844, -0.207031, 11.29.2021 15:25:19.032
953, 15.3747, 88.7049, 87.782, 0, -0.000976562, -0.000976562, 9.85547, -0.0722656, -0.21582, 11.29.2021 15:25:19.040
954, 15.5858, 88.5406, 88.1222, 0, -0.000976562, -0.000976562, 9.88672, -0.0771484, -0.21582, 11.29.2021 15:25:19.048
955, 15.5858, 88.5406, 88.1222, 0, -0.000976562, 0, 9.87988, -0.0556641, -0.201172, 11.29.2021 15:25:19.056
956, 15.7088, 88.7082, 88.1182, 0.000976562, -0.000976562, -0.000976562, 9.88965, -0.0527344, -0.219727, 11.29.2021 15:25:19.064
957, 15.7088, 88.7082, 88.1182, 0.000976562, -0.000976562, 0, 9.90332, -0.0253906, -0.25293, 11.29.2021 15:25:19.072
958, 15.7088, 88.7082, 88.1182, 0, 0, 0.000976562, 9.87207, -0.0625, -0.272461, 11.29.2021 15:25:19.080
959, 15.7088, 88.7082, 88.1182, 0, -0.000976562, -0.000976562, 9.87695, -0.0849609, -0.251953, 11.29.2021 15:25:19.088
960, 15.5858, 88.5406, 88.1222, 0, -0.000976562, 0.000976562, 9.87695, -0.0664062, -0.234375, 11.29.2021 15:25:19.096
961, 15.8464, 88.537, 88.3787, 0.000976562, 0, 0, 9.88477, -0.0859375, -0.228516, 11.29.2021 15:25:19.104
962, 15.8464, 88.537, 88.3787, 0, -0.000976562, -0.000976562, 9.87988, -0.0595703, -0.232422, 11.29.2021 15:25:19.112
963, 15.8464, 88.537, 88.3787, 0, -0.000976562, 0, 9.875, -0.0605469, -0.21582, 11.29.2021 15:25:19.120
964, 15.8464, 88.537, 88.3787, 0, -0.000976562, 0, 9.87207, -0.0576172, -0.232422, 11.29.2021 15:25:19.128
965, 15.8464, 88.537, 88.3787, 0, -0.000976562, 0, 9.8623, -0.0498047, -0.226562, 11.29.2021 15:25:19.136
966, 15.8464, 88.537, 88.3787, 0, -0.000976562, -0.000976562, 9.87793, -0.0605469, -0.199219, 11.29.2021 15:25:19.144
967, 15.6351, 88.701, 88.0398, 0, -0.00195312, 0, 9.89355, -0.0634766, -0.242188, 11.29.2021 15:25:19.152
968, 15.6351, 88.701, 88.0398, 0.000976562, -0.000976562, 0.000976562, 9.87305, -0.0849609, -0.202148, 11.29.2021 15:25:19.160
969, 15.6351, 88.701, 88.0398, 0, -0.000976562, 0, 9.8916, -0.0498047, -0.229492, 11.29.2021 15:25:19.168
970, 15.6351, 88.701, 88.0398, 0, -0.000976562, 0, 9.89844, -0.0507812, -0.212891, 11.29.2021 15:25:19.176
971, 15.6351, 88.701, 88.0398, 0, -0.000976562, -0.00195312, 9.88379, -0.0761719, -0.242188, 11.29.2021 15:25:19.184
972, 15.6351, 88.701, 88.0398, 0.000976562, -0.000976562, -0.000976562, 9.86328, -0.078125, -0.1875, 11.29.2021 15:25:19.192
973, 15.7999, 88.576, 88.2896, 0, -0.000976562, 0, 9.86035, -0.0878906, -0.245117, 11.29.2021 15:25:19.200
974, 16.0118, 88.425, 88.6282, 0, 0.000976562, 0, 9.86523, -0.0615234, -0.232422, 11.29.2021 15:25:19.208
975, 16.1039, 88.5334, 88.6323, -0.000976562, 0, 0, 9.87988, -0.078125, -0.245117, 11.29.2021 15:25:19.216
976, 16.1039, 88.5334, 88.6323, -0.000976562, 0, 0, 9.86816, -0.0820312, -0.21582, 11.29.2021 15:25:19.224
977, 16.1039, 88.5334, 88.6323, -0.000976562, 0, -0.000976562, 9.88965, -0.0673828, -0.21582, 11.29.2021 15:25:19.232
978, 16.2251, 88.7001, 88.6294, -0.000976562, 0.00195312, 0, 9.85059, -0.0605469, -0.214844, 11.29.2021 15:25:19.240
979, 16.2251, 88.7001, 88.6294, -0.000976562, 0, 0, 9.89648, -0.0576172, -0.220703, 11.29.2021 15:25:19.248
980, 16.2251, 88.7001, 88.6294, -0.000976562, 0, 0, 9.87305, -0.0625, -0.212891, 11.29.2021 15:25:19.256
981, 16.2251, 88.7001, 88.6294, -0.000976562, 0, 0, 9.86719, -0.0712891, -0.230469, 11.29.2021 15:25:19.264
982, 16.2251, 88.7001, 88.6294, -0.000976562, -0.000976562, 0.000976562, 9.86816, -0.0556641, -0.208008, 11.29.2021 15:25:19.272
983, 16.2251, 88.7001, 88.6294, -0.000976562, 0, -0.000976562, 9.875, -0.0791016, -0.210938, 11.29.2021 15:25:19.280
984, 16.2251, 88.7001, 88.6294, -0.000976562, 0, 0, 9.86816, -0.0791016, -0.21875, 11.29.2021 15:25:19.288
985, 16.4391, 88.5362, 88.9695, -0.000976562, 0.000976562, 0, 9.86523, -0.0732422, -0.249023, 11.29.2021 15:25:19.296
986, 16.5289, 88.6535, 88.9726, 0, 0, 0, 9.87012, -0.0830078, -0.240234, 11.29.2021 15:25:19.304
987, 16.6927, 88.5326, 89.2193, 0, 0, 0, 9.87305, -0.0839844, -0.223633, 11.29.2021 15:25:19.312
988, 16.6927, 88.5326, 89.2193, 0, 0.000976562, 0, 9.87305, -0.0654297, -0.208008, 11.29.2021 15:25:19.320
989, 16.8134, 88.6991, 89.2176, -0.000976562, 0.000976562, 0, 9.88184, -0.0722656, -0.21582, 11.29.2021 15:25:19.328
990, 16.8134, 88.6991, 89.2176, -0.000976562, 0, -0.000976562, 9.8623, -0.0664062, -0.232422, 11.29.2021 15:25:19.336
991, 16.8134, 88.6991, 89.2176, -0.000976562, 0, -0.000976562, 9.89648, -0.0761719, -0.235352, 11.29.2021 15:25:19.344
992, 16.8134, 88.6991, 89.2176, -0.00195312, 0.000976562, 0.000976562, 9.85547, -0.0644531, -0.217773, 11.29.2021 15:25:19.352
993, 16.8134, 88.6991, 89.2176, -0.000976562, 0.000976562, -0.000976562, 9.87988, -0.078125, -0.240234, 11.29.2021 15:25:19.360
994, 16.8134, 88.6991, 89.2176, -0.000976562, 0.000976562, -0.000976562, 9.8584, -0.0771484, -0.201172, 11.29.2021 15:25:19.368
995, 17.0301, 88.5353, 89.5587, 0, 0.000976562, -0.000976562, 9.86719, -0.0595703, -0.222656, 11.29.2021 15:25:19.376
996, 17.0301, 88.5353, 89.5587, 0, -0.00195312, -0.000976562, 9.88965, -0.0791016, -0.204102, 11.29.2021 15:25:19.384
997, 17.0301, 88.5353, 89.5587, -0.000976562, 0, -0.00195312, 9.89258, -0.0898438, -0.183594, 11.29.2021 15:25:19.390
998, 17.0301, 88.5353, 89.5587, -0.000976562, 0, -0.000976562, 9.88184, -0.0546875, -0.224609, 11.29.2021 15:25:19.398
999, 17.1168, 88.6525, 89.56, -0.00195312, 0, -0.000976562, 9.86035, -0.0429688, -0.233398, 11.29.2021 15:25:19.406
1000, 17.1168, 88.6525, 89.56, -0.000976562, 0, 0, 9.86523, -0.0996094, -0.240234, 11.29.2021 15:25:19.414
1001, 17.2371, 88.836, 89.559, -0.000976562, 0, -0.000976562, 9.87695, -0.0566406, -0.239258, 11.29.2021 15:25:19.422
1002, 17.1168, 88.6525, 89.56, -0.000976562, 0.00195312, -0.00195312, 9.87207, -0.0683594, -0.258789, 11.29.2021 15:25:19.430
1003, 17.1168, 88.6525, 89.56, -0.00195312, 0, -0.000976562, 9.88477, -0.0556641, -0.21582, 11.29.2021 15:25:19.438
1004, 17.1168, 88.6525, 89.56, -0.000976562, 0, -0.000976562, 9.91016, -0.0498047, -0.232422, 11.29.2021 15:25:19.446
1005, 17.1168, 88.6525, 89.56, -0.000976562, 0.000976562, 0, 9.86914, -0.0234375, -0.24707, 11.29.2021 15:25:19.454
1006, 17.1168, 88.6525, 89.56, -0.000976562, -0.000976562, 0, 9.88867, -0.0498047, -0.244141, 11.29.2021 15:25:19.462
1007, 17.1168, 88.6525, 89.56, -0.000976562, -0.000976562, -0.000976562, 9.86523, -0.0263672, -0.21875, 11.29.2021 15:25:19.470
1008, 16.9007, 88.8327, 89.22, -0.000976562, -0.000976562, -0.000976562, 9.88184, -0.0673828, -0.217773, 11.29.2021 15:25:19.478
1009, 16.7807, 88.6495, 89.2216, 0.000976562, -0.000976562, 0, 9.87695, -0.0566406, -0.234375, 11.29.2021 15:25:19.486
1010, 16.7807, 88.6495, 89.2216, -0.000976562, -0.000976562, 0, 9.86523, -0.0703125, -0.201172, 11.29.2021 15:25:19.494
1011, 16.6927, 88.5326, 89.2193, -0.000976562, -0.00195312, 0, 9.8584, -0.0595703, -0.224609, 11.29.2021 15:25:19.502
1012, 16.6927, 88.5326, 89.2193, 0.000976562, -0.000976562, -0.000976562, 9.87891, -0.0615234, -0.249023, 11.29.2021 15:25:19.510
1013, 16.6927, 88.5326, 89.2193, 0.000976562, -0.000976562, 0, 9.89648, -0.0585938, -0.249023, 11.29.2021 15:25:19.518
1014, 16.3583, 88.5298, 88.8829, 0.000976562, -0.000976562, -0.000976562, 9.8623, -0.015625, -0.24707, 11.29.2021 15:25:19.526
1015, 16.1949, 88.6504, 88.6364, -0.000976562, -0.000976562, -0.000976562, 9.86816, -0.0703125, -0.210938, 11.29.2021 15:25:19.534
1016, 16.1949, 88.6504, 88.6364, 0.000976562, -0.000976562, -0.000976562, 9.90039, -0.0556641, -0.260742, 11.29.2021 15:25:19.542
1017, 16.1949, 88.6504, 88.6364, -0.000976562, -0.000976562, 0, 9.89648, -0.0703125, -0.202148, 11.29.2021 15:25:19.550
1018, 15.9841, 88.8301, 88.2998, 0.000976562, 0, 0, 9.8623, -0.0664062, -0.239258, 11.29.2021 15:25:19.558
1019, 15.8639, 88.6474, 88.3034, -0.000976562, 0, 0, 9.87695, -0.0546875, -0.241211, 11.29.2021 15:25:19.566
1020, 15.8639, 88.6474, 88.3034, -0.00195312, 0, 0, 9.89355, -0.046875, -0.25293, 11.29.2021 15:25:19.574
1021, 15.8639, 88.6474, 88.3034, -0.00195312, -0.000976562, -0.000976562, 9.91113, -0.0585938, -0.192383, 11.29.2021 15:25:19.582
1022, 15.8639, 88.6474, 88.3034, 0.000976562, -0.000976562, -0.000976562, 9.89453, -0.0771484, -0.213867, 11.29.2021 15:25:19.590
1023, 15.8639, 88.6474, 88.3034, -0.000976562, -0.000976562, 0, 9.88477, -0.0898438, -0.243164, 11.29.2021 15:25:19.598
1024, 15.8639, 88.6474, 88.3034, -0.000976562, -0.00195312, 0, 9.90137, -0.0683594, -0.24707, 11.29.2021 15:25:19.606
1025, 15.5359, 88.6442, 87.9731, -0.000976562, -0.00195312, 0, 9.88867, -0.0849609, -0.245117, 11.29.2021 15:25:19.614
1026, 15.5359, 88.6442, 87.9731, -0.000976562, -0.000976562, -0.000976562, 9.87695, -0.0693359, -0.220703, 11.29.2021 15:25:19.622
1027, 15.5359, 88.6442, 87.9731, -0.000976562, -0.00195312, 0, 9.875, -0.0644531, -0.234375, 11.29.2021 15:25:19.630
1028, 15.7901, 88.6403, 88.2245, 0.000976562, -0.00195312, -0.000976562, 9.86719, -0.0576172, -0.229492, 11.29.2021 15:25:19.638
1029, 15.7901, 88.6403, 88.2245, -0.000976562, -0.00195312, -0.000976562, 9.86035, -0.0771484, -0.210938, 11.29.2021 15:25:19.646
1030, 15.7901, 88.6403, 88.2245, 0.000976562, -0.000976562, 0, 9.86523, -0.0527344, -0.229492, 11.29.2021 15:25:19.654
1031, 15.7901, 88.6403, 88.2245, 0.000976562, 0, 0, 9.88184, -0.0527344, -0.232422, 11.29.2021 15:25:19.662
1032, 15.7901, 88.6403, 88.2245, 0.000976562, -0.000976562, 0, 9.87109, -0.0615234, -0.179688, 11.29.2021 15:25:19.670
1033, 15.7901, 88.6403, 88.2245, -0.000976562, -0.000976562, 0, 9.84375, -0.0429688, -0.22168, 11.29.2021 15:25:19.678
1034, 15.7901, 88.6403, 88.2245, -0.000976562, -0.000976562, 0, 9.84863, -0.0634766, -0.198242, 11.29.2021 15:25:19.686
1035, 15.6985, 88.5241, 88.2193, -0.000976562, -0.000976562, 0, 9.85547, -0.0742188, -0.21582, 11.29.2021 15:25:19.694
