Seq, Rot x, Rot y, Rot z, Vel x, Vel y, Vel z, Acc x, Acc y, Acc z, Time(m.d.y h:m:s.ms)
0, 1.979, 0.845309, 160.948, -0.000976562, 0, 0, -0.146484, 0.338867, -9.81641, 12.8.2021 17:12:6.664
1, 1.979, 0.845309, 160.948, -0.000976562, 0, 0, -0.120117, 0.322266, -9.82227, 12.8.2021 17:12:6.672
2, 1.979, 0.845309, 160.948, -0.00195312, 0.000976562, 0, -0.12793, 0.332031, -9.84766, 12.8.2021 17:12:6.680
3, 1.979, 0.845309, 160.948, -0.00195312, 0, 0, -0.154297, 0.325195, -9.83984, 12.8.2021 17:12:6.688
4, 1.98589, 0.844152, 160.948, -0.00195312, 0, 0, -0.078125, 0.291016, -9.83496, 12.8.2021 17:12:6.696
5, 1.98589, 0.844152, 160.948, -0.000976562, 0, 0, -0.114258, 0.323242, -9.85742, 12.8.2021 17:12:6.704
6, 1.98589, 0.844152, 160.948, -0.00195312, 0, 0, -0.121094, 0.351562, -9.85449, 12.8.2021 17:12:6.712
7, 1.98589, 0.844152, 160.948, -0.000976562, 0, 0, -0.0517578, 0.330078, -9.86328, 12.8.2021 17:12:6.720
8, 1.98589, 0.844152, 160.948, -0.00195312, 0.000976562, 0, -0.12793, 0.353516, -9.8418, 12.8.2021 17:12:6.728
9, 1.98589, 0.844152, 160.948, -0.00195312, 0.000976562, 0, -0.0820312, 0.348633, -9.8291, 12.8.2021 17:12:6.736
10, 1.98589, 0.844152, 160.948, -0.000976562, 0.000976562, 0, -0.0644531, 0.306641, -9.87793, 12.8.2021 17:12:6.744
11, 1.98589, 0.844152, 160.948, -0.000976562, 0, 0, -0.177734, 0.333984, -9.80859, 12.8.2021 17:12:6.752
12, 1.98589, 0.844152, 160.948, 0, 0, 0, -0.118164, 0.310547, -9.84082, 12.8.2021 17:12:6.760
13, 1.98589, 0.844152, 160.948, -0.000976562, 0, 0, -0.118164, 0.3125, -9.83398, 12.8.2021 17:12:6.768
14, 1.98474, 0.837255, 160.948, -0.00195312, 0, -0.000976562, -0.15332, 0.329102, -9.80664, 12.8.2021 17:12:6.776
15, 1.98474, 0.837255, 160.948, -0.000976562, 0, 0, -0.0527344, 0.291992, -9.79785, 12.8.2021 17:12:6.784
16, 1.98474, 0.837255, 160.948, -0.000976562, 0, 0, -0.103516, 0.302734, -9.8252, 12.8.2021 17:12:6.792
17, 1.98474, 0.837255, 160.948, -0.00195312, 0, 0, -0.134766, 0.34082, -9.82129, 12.8.2021 17:12:6.800
18, 1.98474, 0.837255, 160.948, -0.00195312, -0.000976562, 0, -0.0585938, 0.302734, -9.82812, 12.8.2021 17:12:6.808
19, 1.98474, 0.837255, 160.948, -0.000976562, -0.000976562, 0, -0.136719, 0.319336, -9.81738, 12.8.2021 17:12:6.816
20, 1.98474, 0.837255, 160.948, -0.00195312, 0, 0, -0.0996094, 0.325195, -9.85254, 12.8.2021 17:12:6.824
21, 1.99163, 0.836099, 160.948, -0.00292969, 0, 0, -0.0566406, 0.314453, -9.83301, 12.8.2021 17:12:6.832
22, 1.99163, 0.836099, 160.948, -0.000976562, -0.00195312, 0, -0.121094, 0.34375, -9.84766, 12.8.2021 17:12:6.840
23, 1.99163, 0.836099, 160.948, -0.000976562, -0.000976562, 0, -0.0800781, 0.31543, -9.83496, 12.8.2021 17:12:6.848
24, 1.99162, 0.835987, 160.941, 0, 0, 0, -0.0986328, 0.329102, -9.82227, 12.8.2021 17:12:6.856
25, 1.99162, 0.835987, 160.941, -0.000976562, 0.000976562, 0, -0.136719, 0.352539, -9.81348, 12.8.2021 17:12:6.864
26, 1.99162, 0.835987, 160.941, -0.000976562, 0, 0, -0.0732422, 0.310547, -9.8418, 12.8.2021 17:12:6.872
27, 1.99162, 0.835987, 160.941, -0.00195312, 0, -0.000976562, -0.12793, 0.320312, -9.83398, 12.8.2021 17:12:6.880
28, 1.99162, 0.835987, 160.941, -0.000976562, 0, 0, -0.108398, 0.34375, -9.82129, 12.8.2021 17:12:6.888
29, 1.99162, 0.835987, 160.941, -0.000976562, 0, 0, -0.0644531, 0.296875, -9.78125, 12.8.2021 17:12:6.896
30, 1.99162, 0.835987, 160.941, -0.000976562, 0, 0, -0.158203, 0.341797, -9.83301, 12.8.2021 17:12:6.904
31, 1.92019, 0.663608, 160.945, -0.000976562, -0.00195312, 0, -0.0986328, 0.347656, -9.81641, 12.8.2021 17:12:6.912
32, 1.90062, 0.631438, 160.946, -0.000976562, 0, -0.000976562, -0.0771484, 0.30957, -9.82812, 12.8.2021 17:12:6.920
33, 1.89946, 0.624541, 160.946, -0.000976562, 0.00195312, 0, -0.15332, 0.370117, -9.8252, 12.8.2021 17:12:6.928
34, 1.89946, 0.624541, 160.946, 0, -0.000976562, 0, -0.0732422, 0.34082, -9.83398, 12.8.2021 17:12:6.936
35, 1.90636, 0.623384, 160.946, -0.000976562, 0, 0, -0.115234, 0.342773, -9.80762, 12.8.2021 17:12:6.944
36, 1.90636, 0.623384, 160.946, 0, 0.000976562, 0, -0.137695, 0.358398, -9.83984, 12.8.2021 17:12:6.952
37, 1.90636, 0.623384, 160.946, 0, 0.000976562, 0, -0.0566406, 0.31543, -9.86133, 12.8.2021 17:12:6.960
38, 1.90636, 0.623384, 160.946, 0, 0, -0.000976562, -0.125977, 0.320312, -9.85938, 12.8.2021 17:12:6.968
39, 1.90636, 0.623384, 160.946, -0.000976562, 0, 0, -0.106445, 0.327148, -9.83887, 12.8.2021 17:12:6.976
40, 1.9121, 0.615331, 160.946, -0.000976562, 0.000976562, 0, -0.0488281, 0.333984, -9.83887, 12.8.2021 17:12:6.984
41, 1.9121, 0.615331, 160.946, 0, 0.000976562, 0, -0.124023, 0.337891, -9.87109, 12.8.2021 17:12:6.992
42, 1.9121, 0.615331, 160.946, -0.000976562, 0, 0, -0.0683594, 0.327148, -9.83691, 12.8.2021 17:12:7.000
43, 1.9121, 0.615331, 160.946, 0, -0.000976562, 0, -0.0820312, 0.332031, -9.83398, 12.8.2021 17:12:7.008
44, 1.9121, 0.615331, 160.946, 0, 0.000976562, 0, -0.148438, 0.337891, -9.81152, 12.8.2021 17:12:7.016
45, 1.91094, 0.608434, 160.946, -0.000976562, 0, 0, -0.0771484, 0.324219, -9.82227, 12.8.2021 17:12:7.024
46, 1.91783, 0.607277, 160.946, -0.000976562, 0, 0, -0.105469, 0.304688, -9.81055, 12.8.2021 17:12:7.032
47, 1.91783, 0.607277, 160.946, 0, -0.00195312, 0, -0.123047, 0.339844, -9.85449, 12.8.2021 17:12:7.040
48, 1.91783, 0.607277, 160.946, -0.000976562, -0.000976562, 0.000976562, -0.0712891, 0.291992, -9.85156, 12.8.2021 17:12:7.048
49, 1.91783, 0.607277, 160.946, -0.000976562, 0, 0, -0.146484, 0.320312, -9.84082, 12.8.2021 17:12:7.056
50, 1.91783, 0.607277, 160.946, -0.000976562, -0.000976562, 0, -0.123047, 0.320312, -9.8457, 12.8.2021 17:12:7.064
51, 1.91783, 0.607277, 160.946, -0.000976562, 0.000976562, 0, -0.0722656, 0.327148, -9.82715, 12.8.2021 17:12:7.072
52, 1.91783, 0.607277, 160.946, 0, -0.000976562, 0, -0.144531, 0.363281, -9.8418, 12.8.2021 17:12:7.080
53, 1.91783, 0.607277, 160.946, -0.000976562, 0, 0, -0.0732422, 0.329102, -9.83887, 12.8.2021 17:12:7.088
54, 1.91781, 0.607168, 160.939, -0.000976562, 0.000976562, 0, -0.0966797, 0.336914, -9.8623, 12.8.2021 17:12:7.094
55, 1.91781, 0.607168, 160.939, 0, -0.000976562, 0, -0.132812, 0.348633, -9.84473, 12.8.2021 17:12:7.102
56, 1.91781, 0.607168, 160.939, 0, -0.000976562, 0, -0.0517578, 0.320312, -9.8418, 12.8.2021 17:12:7.110
57, 1.91781, 0.607168, 160.939, 0, -0.000976562, 0, -0.109375, 0.332031, -9.85059, 12.8.2021 17:12:7.118
58, 1.91666, 0.600271, 160.939, 0.000976562, -0.000976562, 0, -0.132812, 0.3125, -9.83105, 12.8.2021 17:12:7.126
59, 1.91666, 0.600271, 160.939, 0, 0.000976562, 0, -0.0869141, 0.306641, -9.80664, 12.8.2021 17:12:7.134
60, 1.91666, 0.600271, 160.939, -0.000976562, 0.000976562, 0.000976562, -0.151367, 0.314453, -9.81934, 12.8.2021 17:12:7.142
61, 1.91666, 0.600271, 160.939, -0.000976562, 0.000976562, -0.000976562, -0.121094, 0.317383, -9.84766, 12.8.2021 17:12:7.150
62, 1.91666, 0.600271, 160.939, -0.000976562, 0, -0.000976562, -0.0771484, 0.311523, -9.79688, 12.8.2021 17:12:7.158
63, 1.91668, 0.60038, 160.946, 0, 0, 0, -0.148438, 0.345703, -9.81836, 12.8.2021 17:12:7.166
64, 1.91781, 0.607168, 160.939, 0, -0.000976562, 0.000976562, -0.111328, 0.348633, -9.82812, 12.8.2021 17:12:7.174
65, 1.91781, 0.607168, 160.939, -0.000976562, -0.000976562, 0.000976562, -0.0898438, 0.34668, -9.8457, 12.8.2021 17:12:7.182
66, 1.91781, 0.607168, 160.939, -0.000976562, 0, 0.000976562, -0.120117, 0.352539, -9.81445, 12.8.2021 17:12:7.190
67, 1.91781, 0.607168, 160.939, -0.000976562, 0, 0.000976562, -0.0820312, 0.310547, -9.83496, 12.8.2021 17:12:7.198
68, 1.91781, 0.607168, 160.939, -0.000976562, 0, 0.000976562, -0.0986328, 0.305664, -9.82715, 12.8.2021 17:12:7.206
69, 1.91781, 0.607168, 160.939, 0, 0, 0, -0.106445, 0.338867, -9.84766, 12.8.2021 17:12:7.214
70, 1.91781, 0.607168, 160.939, 0, -0.000976562, 0, -0.0634766, 0.319336, -9.81543, 12.8.2021 17:12:7.222
71, 1.91781, 0.607168, 160.939, 0, 0, 0, -0.161133, 0.310547, -9.83301, 12.8.2021 17:12:7.230
72, 1.91781, 0.607168, 160.939, -0.000976562, -0.000976562, 0, -0.0849609, 0.329102, -9.8291, 12.8.2021 17:12:7.238
73, 1.91781, 0.607168, 160.939, -0.000976562, -0.000976562, 0, -0.0849609, 0.34082, -9.82227, 12.8.2021 17:12:7.246
74, 1.91781, 0.607168, 160.939, 0, -0.000976562, 0, -0.150391, 0.342773, -9.87988, 12.8.2021 17:12:7.254
75, 1.91781, 0.607168, 160.939, -0.000976562, -0.000976562, 0, -0.0732422, 0.31543, -9.83496, 12.8.2021 17:12:7.262
76, 1.91781, 0.607168, 160.939, -0.000976562, -0.000976562, 0, -0.0927734, 0.308594, -9.85547, 12.8.2021 17:12:7.270
77, 1.91781, 0.607168, 160.939, -0.000976562, -0.000976562, 0, -0.141602, 0.335938, -9.81152, 12.8.2021 17:12:7.278
78, 1.91781, 0.607168, 160.939, 0, -0.000976562, 0, -0.0371094, 0.293945, -9.85742, 12.8.2021 17:12:7.286
79, 1.91781, 0.607168, 160.939, -0.000976562, -0.000976562, 0.000976562, -0.121094, 0.34668, -9.84961, 12.8.2021 17:12:7.294
80, 1.91781, 0.607168, 160.939, -0.000976562, -0.000976562, 0, -0.106445, 0.322266, -9.8457, 12.8.2021 17:12:7.302
81, 1.91666, 0.600271, 160.939, -0.000976562, -0.00195312, 0, -0.0654297, 0.305664, -9.83984, 12.8.2021 17:12:7.310
82, 1.90976, 0.601428, 160.939, -0.000976562, -0.00195312, -0.00195312, -0.158203, 0.329102, -9.82812, 12.8.2021 17:12:7.318
83, 1.91092, 0.608325, 160.939, -0.000976562, -0.000976562, 0, -0.120117, 0.333984, -9.81738, 12.8.2021 17:12:7.326
84, 1.91092, 0.608325, 160.939, -0.000976562, -0.000976562, 0, -0.104492, 0.318359, -9.8623, 12.8.2021 17:12:7.334
85, 1.91092, 0.608325, 160.939, 0, -0.000976562, 0, -0.142578, 0.322266, -9.84961, 12.8.2021 17:12:7.342
86, 1.91092, 0.608325, 160.939, 0, -0.000976562, 0, -0.0898438, 0.334961, -9.85254, 12.8.2021 17:12:7.350
87, 1.91092, 0.608325, 160.939, 0, -0.000976562, 0, -0.0917969, 0.322266, -9.84863, 12.8.2021 17:12:7.358
88, 1.91092, 0.608325, 160.939, 0, -0.000976562, 0, -0.139648, 0.331055, -9.82129, 12.8.2021 17:12:7.366
89, 1.91092, 0.608325, 160.939, 0, 0, 0, -0.0634766, 0.305664, -9.84668, 12.8.2021 17:12:7.374
90, 1.91092, 0.608325, 160.939, 0, 0, 0, -0.108398, 0.326172, -9.80078, 12.8.2021 17:12:7.382
91, 1.90402, 0.609482, 160.939, 0, -0.000976562, 0, -0.120117, 0.331055, -9.80078, 12.8.2021 17:12:7.390
92, 1.90402, 0.609482, 160.939, -0.000976562, -0.000976562, 0, -0.0830078, 0.289062, -9.85156, 12.8.2021 17:12:7.398
93, 1.90402, 0.609482, 160.939, -0.000976562, -0.00195312, 0, -0.12793, 0.341797, -9.83594, 12.8.2021 17:12:7.406
94, 1.90402, 0.609482, 160.939, -0.000976562, -0.00195312, -0.00195312, -0.0986328, 0.338867, -9.82227, 12.8.2021 17:12:7.414
95, 1.90402, 0.609482, 160.939, -0.000976562, -0.000976562, -0.000976562, -0.0917969, 0.310547, -9.8418, 12.8.2021 17:12:7.422
96, 1.90402, 0.609482, 160.939, -0.00195312, -0.000976562, -0.000976562, -0.129883, 0.34375, -9.84473, 12.8.2021 17:12:7.430
97, 1.90402, 0.609482, 160.939, -0.000976562, -0.000976562, -0.000976562, -0.0507812, 0.297852, -9.81934, 12.8.2021 17:12:7.438
98, 1.90402, 0.609482, 160.939, 0, -0.000976562, -0.000976562, -0.0800781, 0.34668, -9.84766, 12.8.2021 17:12:7.446
99, 1.90402, 0.609482, 160.939, -0.000976562, 0, -0.000976562, -0.124023, 0.337891, -9.87793, 12.8.2021 17:12:7.454
100, 1.90402, 0.609482, 160.939, -0.000976562, 0, -0.000976562, -0.0566406, 0.3125, -9.83496, 12.8.2021 17:12:7.462
101, 1.90402, 0.609482, 160.939, 0, 0.000976562, -0.00195312, -0.149414, 0.330078, -9.84277, 12.8.2021 17:12:7.470
102, 1.90402, 0.609482, 160.939, 0, 0.000976562, -0.00292969, -0.104492, 0.344727, -9.85449, 12.8.2021 17:12:7.478
103, 1.90402, 0.609482, 160.939, -0.000976562, 0.000976562, -0.00195312, -0.0751953, 0.302734, -9.82129, 12.8.2021 17:12:7.486
104, 1.90402, 0.609482, 160.939, 0, -0.000976562, -0.000976562, -0.126953, 0.321289, -9.80957, 12.8.2021 17:12:7.494
105, 1.90402, 0.609482, 160.939, 0, -0.000976562, 0, -0.0712891, 0.341797, -9.85547, 12.8.2021 17:12:7.502
106, 1.90402, 0.609482, 160.939, -0.000976562, -0.000976562, -0.000976562, -0.115234, 0.305664, -9.77539, 12.8.2021 17:12:7.510
107, 1.90402, 0.609482, 160.939, 0, 0, -0.000976562, -0.146484, 0.331055, -9.81641, 12.8.2021 17:12:7.518
108, 1.90287, 0.602586, 160.939, 0, -0.000976562, -0.000976562, -0.0224609, 0.311523, -9.81445, 12.8.2021 17:12:7.526
109, 1.90287, 0.602586, 160.939, -0.00195312, -0.000976562, -0.000976562, -0.09375, 0.324219, -9.8291, 12.8.2021 17:12:7.534
110, 1.90287, 0.602586, 160.939, -0.000976562, -0.000976562, 0, -0.111328, 0.363281, -9.86133, 12.8.2021 17:12:7.542
111, 1.90287, 0.602586, 160.939, -0.000976562, -0.000976562, -0.000976562, -0.0654297, 0.317383, -9.82812, 12.8.2021 17:12:7.550
112, 1.90287, 0.602586, 160.939, -0.000976562, -0.000976562, -0.00195312, -0.15332, 0.359375, -9.80371, 12.8.2021 17:12:7.558
113, 1.90289, 0.602694, 160.946, 0, -0.000976562, -0.00195312, -0.108398, 0.335938, -9.81934, 12.8.2021 17:12:7.566
114, 1.90289, 0.602694, 160.946, 0, -0.000976562, -0.00195312, -0.0771484, 0.321289, -9.80859, 12.8.2021 17:12:7.574
115, 1.90289, 0.602694, 160.946, 0, -0.000976562, -0.00195312, -0.138672, 0.345703, -9.80469, 12.8.2021 17:12:7.582
116, 1.90289, 0.602694, 160.946, -0.000976562, 0, 0.000976562, -0.0849609, 0.327148, -9.84375, 12.8.2021 17:12:7.590
117, 1.90289, 0.602694, 160.946, -0.000976562, 0, -0.000976562, -0.111328, 0.329102, -9.83594, 12.8.2021 17:12:7.598
118, 1.90289, 0.602694, 160.946, 0, -0.000976562, 0, -0.131836, 0.355469, -9.82129, 12.8.2021 17:12:7.606
119, 1.90289, 0.602694, 160.946, 0, 0, -0.000976562, -0.0703125, 0.310547, -9.84473, 12.8.2021 17:12:7.614
120, 1.90289, 0.602694, 160.946, 0, 0, -0.000976562, -0.134766, 0.338867, -9.83105, 12.8.2021 17:12:7.622
121, 1.90289, 0.602694, 160.946, -0.000976562, -0.000976562, -0.000976562, -0.101562, 0.330078, -9.85547, 12.8.2021 17:12:7.630
122, 1.90289, 0.602694, 160.946, 0, -0.000976562, 0, -0.0634766, 0.303711, -9.84473, 12.8.2021 17:12:7.638
123, 1.90289, 0.602694, 160.946, 0, -0.000976562, -0.000976562, -0.161133, 0.336914, -9.84961, 12.8.2021 17:12:7.646
124, 1.90289, 0.602694, 160.946, 0, -0.000976562, -0.000976562, -0.106445, 0.336914, -9.83594, 12.8.2021 17:12:7.654
125, 1.90289, 0.602694, 160.946, 0, -0.000976562, -0.000976562, -0.078125, 0.330078, -9.86035, 12.8.2021 17:12:7.662
126, 1.90289, 0.602694, 160.946, -0.000976562, -0.000976562, -0.000976562, -0.164062, 0.334961, -9.84473, 12.8.2021 17:12:7.670
127, 1.90289, 0.602694, 160.946, -0.000976562, -0.000976562, -0.000976562, -0.0683594, 0.305664, -9.83008, 12.8.2021 17:12:7.678
128, 1.90289, 0.602694, 160.946, -0.000976562, -0.000976562, -0.000976562, -0.0947266, 0.293945, -9.83496, 12.8.2021 17:12:7.686
129, 1.90289, 0.602694, 160.946, -0.00195312, -0.000976562, 0, -0.125977, 0.327148, -9.8457, 12.8.2021 17:12:7.694
130, 1.91552, 0.593484, 160.946, -0.000976562, -0.000976562, 0, -0.0625, 0.328125, -9.79004, 12.8.2021 17:12:7.702
131, 1.91552, 0.593484, 160.946, 0, 0, 0, -0.111328, 0.332031, -9.8291, 12.8.2021 17:12:7.710
132, 1.91552, 0.593484, 160.946, 0, 0, 0, -0.134766, 0.357422, -9.81836, 12.8.2021 17:12:7.718
133, 1.91552, 0.593484, 160.946, 0, -0.000976562, 0, -0.0898438, 0.31543, -9.8623, 12.8.2021 17:12:7.726
134, 1.91552, 0.593484, 160.946, 0, 0, 0, -0.148438, 0.329102, -9.81641, 12.8.2021 17:12:7.734
135, 1.91552, 0.593484, 160.946, 0, -0.000976562, 0, -0.0888672, 0.333008, -9.81055, 12.8.2021 17:12:7.742
136, 1.91668, 0.60038, 160.946, 0, -0.000976562, 0, -0.104492, 0.308594, -9.85547, 12.8.2021 17:12:7.750
137, 1.91668, 0.60038, 160.946, -0.00195312, -0.000976562, 0, -0.132812, 0.341797, -9.84961, 12.8.2021 17:12:7.758
138, 1.91668, 0.60038, 160.946, -0.000976562, -0.000976562, 0, -0.0654297, 0.327148, -9.83203, 12.8.2021 17:12:7.766
139, 1.91668, 0.60038, 160.946, -0.000976562, -0.000976562, 0, -0.120117, 0.314453, -9.82715, 12.8.2021 17:12:7.774
140, 1.91668, 0.60038, 160.946, -0.000976562, -0.00195312, 0, -0.125, 0.338867, -9.81641, 12.8.2021 17:12:7.782
141, 1.91666, 0.600271, 160.939, -0.000976562, -0.000976562, 0, -0.0273438, 0.294922, -9.82227, 12.8.2021 17:12:7.790
142, 1.91666, 0.600271, 160.939, 0, -0.000976562, 0, -0.129883, 0.322266, -9.8457, 12.8.2021 17:12:7.798
143, 1.91666, 0.600271, 160.939, 0, -0.000976562, 0, -0.0869141, 0.358398, -9.83105, 12.8.2021 17:12:7.806
144, 1.91666, 0.600271, 160.939, 0, -0.000976562, 0, -0.0722656, 0.34082, -9.81934, 12.8.2021 17:12:7.814
145, 1.91666, 0.600271, 160.939, -0.000976562, -0.000976562, 0, -0.182617, 0.341797, -9.84863, 12.8.2021 17:12:7.822
146, 1.91666, 0.600271, 160.939, -0.000976562, -0.000976562, 0, -0.101562, 0.335938, -9.82227, 12.8.2021 17:12:7.830
147, 1.91666, 0.600271, 160.939, 0, -0.000976562, 0, -0.0820312, 0.328125, -9.79883, 12.8.2021 17:12:7.838
148, 1.91666, 0.600271, 160.939, -0.000976562, -0.000976562, 0, -0.131836, 0.348633, -9.82324, 12.8.2021 17:12:7.846
149, 1.91666, 0.600271, 160.939, 0, -0.000976562, 0, -0.0654297, 0.302734, -9.83496, 12.8.2021 17:12:7.854
150, 1.91666, 0.600271, 160.939, -0.000976562, -0.00195312, 0, -0.101562, 0.3125, -9.82715, 12.8.2021 17:12:7.862
151, 1.92355, 0.599114, 160.939, -0.000976562, 0, 0, -0.111328, 0.336914, -9.8457, 12.8.2021 17:12:7.870
152, 1.92355, 0.599114, 160.939, 0, -0.000976562, 0.000976562, -0.0390625, 0.319336, -9.8252, 12.8.2021 17:12:7.878
153, 1.92355, 0.599114, 160.939, -0.000976562, -0.000976562, 0, -0.164062, 0.352539, -9.875, 12.8.2021 17:12:7.886
154, 1.92355, 0.599114, 160.939, -0.00195312, 0, -0.000976562, -0.0996094, 0.305664, -9.85352, 12.8.2021 17:12:7.894
155, 1.92355, 0.599114, 160.939, -0.000976562, -0.000976562, 0, -0.0917969, 0.311523, -9.80859, 12.8.2021 17:12:7.902
156, 1.92355, 0.599114, 160.939, -0.00195312, -0.000976562, 0, -0.149414, 0.324219, -9.83301, 12.8.2021 17:12:7.910
157, 1.92355, 0.599114, 160.939, -0.000976562, -0.000976562, -0.00195312, -0.0654297, 0.342773, -9.82031, 12.8.2021 17:12:7.918
158, 1.92357, 0.599223, 160.946, 0, -0.000976562, -0.00195312, -0.0986328, 0.330078, -9.78418, 12.8.2021 17:12:7.926
159, 1.92357, 0.599223, 160.946, 0, -0.000976562, 0, -0.155273, 0.337891, -9.79004, 12.8.2021 17:12:7.934
160, 1.92357, 0.599223, 160.946, 0, -0.00195312, -0.00195312, -0.0634766, 0.324219, -9.82715, 12.8.2021 17:12:7.942
161, 1.92357, 0.599223, 160.946, -0.000976562, -0.000976562, 0, -0.110352, 0.328125, -9.80566, 12.8.2021 17:12:7.950
162, 1.92357, 0.599223, 160.946, -0.000976562, 0, 0, -0.103516, 0.333008, -9.79785, 12.8.2021 17:12:7.958
163, 1.92357, 0.599223, 160.946, -0.000976562, 0, 0.000976562, -0.0683594, 0.3125, -9.83496, 12.8.2021 17:12:7.966
164, 1.92357, 0.599223, 160.946, 0, 0, 0, -0.160156, 0.331055, -9.80469, 12.8.2021 17:12:7.974
165, 1.92357, 0.599223, 160.946, 0, 0, 0, -0.115234, 0.335938, -9.81934, 12.8.2021 17:12:7.982
166, 1.92357, 0.599223, 160.946, 0, 0, 0, -0.0566406, 0.319336, -9.83496, 12.8.2021 17:12:7.990
167, 1.92357, 0.599223, 160.946, 0, 0, 0, -0.139648, 0.325195, -9.84473, 12.8.2021 17:12:7.998
168, 1.91668, 0.60038, 160.946, -0.000976562, -0.000976562, 0, -0.0566406, 0.307617, -9.83301, 12.8.2021 17:12:8.006
169, 1.91666, 0.600271, 160.939, -0.000976562, -0.000976562, 0.000976562, -0.09375, 0.338867, -9.8291, 12.8.2021 17:12:8.014
170, 1.91666, 0.600271, 160.939, -0.000976562, -0.000976562, 0, -0.136719, 0.345703, -9.81348, 12.8.2021 17:12:8.022
171, 1.91666, 0.600271, 160.939, 0, -0.000976562, 0, -0.0439453, 0.294922, -9.7959, 12.8.2021 17:12:8.030
172, 1.9155, 0.593374, 160.939, -0.000976562, -0.000976562, 0, -0.115234, 0.329102, -9.81934, 12.8.2021 17:12:8.038
173, 1.9155, 0.593374, 160.939, 0, -0.000976562, 0, -0.132812, 0.333008, -9.86133, 12.8.2021 17:12:8.044
174, 1.9155, 0.593374, 160.939, 0, 0, 0, -0.0830078, 0.323242, -9.86719, 12.8.2021 17:12:8.052
175, 1.9155, 0.593374, 160.939, 0, -0.000976562, 0, -0.149414, 0.344727, -9.86523, 12.8.2021 17:12:8.060
176, 1.9155, 0.593374, 160.939, 0, 0, 0, -0.0947266, 0.313477, -9.85059, 12.8.2021 17:12:8.068
177, 1.9155, 0.593374, 160.939, 0, -0.00195312, 0, -0.0917969, 0.330078, -9.85254, 12.8.2021 17:12:8.076
178, 1.9155, 0.593374, 160.939, -0.000976562, -0.000976562, 0, -0.15918, 0.327148, -9.83789, 12.8.2021 17:12:8.084
179, 1.9155, 0.593374, 160.939, -0.000976562, 0, 0, -0.0703125, 0.319336, -9.81348, 12.8.2021 17:12:8.092
180, 1.9155, 0.593374, 160.939, 0, 0, 0.000976562, -0.101562, 0.327148, -9.85254, 12.8.2021 17:12:8.100
181, 1.9155, 0.593374, 160.939, 0, 0, 0, -0.131836, 0.345703, -9.81641, 12.8.2021 17:12:8.108
182, 1.9155, 0.593374, 160.939, -0.000976562, 0.000976562, -0.000976562, -0.0488281, 0.337891, -9.80859, 12.8.2021 17:12:8.116
183, 1.9155, 0.593374, 160.939, -0.00195312, -0.000976562, -0.000976562, -0.111328, 0.302734, -9.82715, 12.8.2021 17:12:8.124
184, 1.9155, 0.593374, 160.939, -0.000976562, -0.000976562, -0.000976562, -0.104492, 0.339844, -9.8623, 12.8.2021 17:12:8.132
185, 1.9155, 0.593374, 160.939, -0.000976562, -0.000976562, 0, -0.0683594, 0.310547, -9.8418, 12.8.2021 17:12:8.140
186, 1.9155, 0.593374, 160.939, -0.000976562, -0.000976562, 0, -0.120117, 0.349609, -9.80273, 12.8.2021 17:12:8.148
187, 1.9155, 0.593374, 160.939, -0.000976562, -0.000976562, 0, -0.106445, 0.333008, -9.86719, 12.8.2021 17:12:8.156
188, 1.9155, 0.593374, 160.939, 0, -0.000976562, -0.00195312, -0.0898438, 0.3125, -9.8418, 12.8.2021 17:12:8.164
189, 1.91552, 0.593484, 160.946, 0, -0.000976562, 0, -0.146484, 0.331055, -9.80957, 12.8.2021 17:12:8.172
190, 1.9155, 0.593374, 160.939, 0, -0.000976562, 0, -0.0576172, 0.337891, -9.78906, 12.8.2021 17:12:8.180
191, 1.91552, 0.593484, 160.946, -0.000976562, -0.000976562, -0.000976562, -0.0869141, 0.327148, -9.83203, 12.8.2021 17:12:8.188
192, 1.91552, 0.593484, 160.946, -0.000976562, 0, 0, -0.0917969, 0.333984, -9.83105, 12.8.2021 17:12:8.196
193, 1.91436, 0.586587, 160.947, 0, 0, 0, -0.0449219, 0.323242, -9.8584, 12.8.2021 17:12:8.204
194, 1.91436, 0.586587, 160.947, 0, 0, 0, -0.12793, 0.335938, -9.82422, 12.8.2021 17:12:8.212
195, 1.91436, 0.586587, 160.947, 0.000976562, -0.000976562, -0.00195312, -0.105469, 0.328125, -9.80762, 12.8.2021 17:12:8.220
196, 1.91436, 0.586587, 160.947, 0.000976562, -0.00195312, 0.000976562, -0.0722656, 0.304688, -9.80664, 12.8.2021 17:12:8.228
197, 1.91436, 0.586587, 160.947, 0, -0.00195312, -0.00195312, -0.155273, 0.352539, -9.79004, 12.8.2021 17:12:8.236
198, 1.91436, 0.586587, 160.947, 0, -0.000976562, -0.00195312, -0.111328, 0.330078, -9.8457, 12.8.2021 17:12:8.244
199, 1.91436, 0.586587, 160.947, 0, -0.000976562, 0, -0.111328, 0.306641, -9.87402, 12.8.2021 17:12:8.252
200, 1.91436, 0.586587, 160.947, 0, -0.000976562, 0, -0.152344, 0.359375, -9.86719, 12.8.2021 17:12:8.260
201, 1.91436, 0.586587, 160.947, 0, -0.000976562, 0.000976562, -0.0898438, 0.31543, -9.84863, 12.8.2021 17:12:8.268
202, 1.91436, 0.586587, 160.947, 0, -0.000976562, 0, -0.108398, 0.3125, -9.82031, 12.8.2021 17:12:8.276
203, 1.91552, 0.593484, 160.946, 0, -0.000976562, 0, -0.136719, 0.348633, -9.82812, 12.8.2021 17:12:8.284
204, 1.91552, 0.593484, 160.946, 0, -0.000976562, 0.000976562, -0.0605469, 0.301758, -9.80469, 12.8.2021 17:12:8.292
205, 1.9155, 0.593374, 160.939, 0, -0.000976562, 0, -0.139648, 0.327148, -9.85254, 12.8.2021 17:12:8.300
206, 1.9155, 0.593374, 160.939, -0.000976562, -0.000976562, 0.000976562, -0.0966797, 0.34082, -9.82227, 12.8.2021 17:12:8.308
207, 1.9155, 0.593374, 160.939, 0, -0.000976562, 0, -0.0820312, 0.317383, -9.83008, 12.8.2021 17:12:8.316
208, 1.9155, 0.593374, 160.939, -0.000976562, 0, 0, -0.146484, 0.329102, -9.81934, 12.8.2021 17:12:8.324
209, 1.9155, 0.593374, 160.939, -0.000976562, -0.000976562, 0.000976562, -0.0800781, 0.34375, -9.82422, 12.8.2021 17:12:8.332
210, 1.9155, 0.593374, 160.939, 0, -0.000976562, 0, -0.0898438, 0.322266, -9.83398, 12.8.2021 17:12:8.340
211, 1.91666, 0.600271, 160.939, 0, -0.000976562, -0.00195312, -0.125, 0.348633, -9.83789, 12.8.2021 17:12:8.348
212, 1.91666, 0.600271, 160.939, -0.000976562, 0, -0.000976562, -0.0537109, 0.310547, -9.85449, 12.8.2021 17:12:8.356
213, 1.91552, 0.593484, 160.946, 0, 0, -0.00195312, -0.116211, 0.324219, -9.83398, 12.8.2021 17:12:8.364
214, 1.91552, 0.593484, 160.946, 0, 0, 0, -0.112305, 0.333008, -9.7959, 12.8.2021 17:12:8.372
215, 1.91552, 0.593484, 160.946, -0.000976562, 0, -0.000976562, -0.0761719, 0.289062, -9.85645, 12.8.2021 17:12:8.380
216, 1.91552, 0.593484, 160.946, -0.000976562, -0.000976562, 0.000976562, -0.139648, 0.333984, -9.83789, 12.8.2021 17:12:8.388
217, 1.9155, 0.593374, 160.939, 0, -0.000976562, 0.000976562, -0.101562, 0.34375, -9.84961, 12.8.2021 17:12:8.396
218, 1.9155, 0.593374, 160.939, 0, -0.000976562, 0, -0.0634766, 0.317383, -9.83496, 12.8.2021 17:12:8.404
219, 1.9086, 0.594532, 160.939, 0, -0.000976562, -0.00195312, -0.174805, 0.333984, -9.81836, 12.8.2021 17:12:8.412
220, 1.90978, 0.601537, 160.946, -0.000976562, -0.000976562, 0, -0.0898438, 0.334961, -9.86719, 12.8.2021 17:12:8.420
221, 1.90978, 0.601537, 160.946, 0, -0.000976562, 0, -0.103516, 0.316406, -9.80859, 12.8.2021 17:12:8.428
222, 1.90978, 0.601537, 160.946, 0.000976562, 0, 0, -0.12793, 0.345703, -9.83496, 12.8.2021 17:12:8.436
223, 1.90976, 0.601428, 160.939, 0, -0.00195312, 0.000976562, -0.0517578, 0.318359, -9.86133, 12.8.2021 17:12:8.444
224, 1.90976, 0.601428, 160.939, -0.000976562, -0.00195312, 0, -0.12793, 0.320312, -9.84766, 12.8.2021 17:12:8.452
225, 1.90976, 0.601428, 160.939, 0, -0.000976562, 0, -0.118164, 0.3125, -9.81738, 12.8.2021 17:12:8.460
226, 1.90976, 0.601428, 160.939, -0.000976562, -0.000976562, 0, -0.0517578, 0.320312, -9.84473, 12.8.2021 17:12:8.468
227, 1.90976, 0.601428, 160.939, -0.000976562, -0.00195312, -0.000976562, -0.142578, 0.34668, -9.84473, 12.8.2021 17:12:8.476
228, 1.90976, 0.601428, 160.939, -0.000976562, -0.000976562, 0, -0.0888672, 0.323242, -9.79688, 12.8.2021 17:12:8.484
229, 1.90976, 0.601428, 160.939, -0.000976562, -0.000976562, 0, -0.0898438, 0.329102, -9.83594, 12.8.2021 17:12:8.492
230, 1.90976, 0.601428, 160.939, -0.000976562, 0.000976562, 0, -0.161133, 0.334961, -9.86133, 12.8.2021 17:12:8.500
231, 1.90976, 0.601428, 160.939, 0, -0.000976562, -0.000976562, -0.0439453, 0.302734, -9.81152, 12.8.2021 17:12:8.508
232, 1.90976, 0.601428, 160.939, -0.000976562, 0.000976562, -0.00195312, -0.0986328, 0.314453, -9.80371, 12.8.2021 17:12:8.516
233, 1.90978, 0.601537, 160.946, -0.00195312, 0.000976562, 0, -0.139648, 0.34668, -9.83789, 12.8.2021 17:12:8.524
234, 1.90978, 0.601537, 160.946, 0, -0.000976562, -0.00195312, -0.0498047, 0.313477, -9.86328, 12.8.2021 17:12:8.532
235, 1.90978, 0.601537, 160.946, 0, -0.000976562, -0.000976562, -0.125, 0.332031, -9.83301, 12.8.2021 17:12:8.540
236, 1.90863, 0.594641, 160.946, 0, -0.000976562, -0.000976562, -0.109375, 0.333008, -9.87891, 12.8.2021 17:12:8.548
237, 1.90863, 0.594641, 160.946, 0, -0.000976562, -0.000976562, -0.0615234, 0.290039, -9.88086, 12.8.2021 17:12:8.556
238, 1.90863, 0.594641, 160.946, -0.000976562, -0.000976562, 0, -0.149414, 0.322266, -9.84082, 12.8.2021 17:12:8.564
239, 1.90863, 0.594641, 160.946, -0.000976562, -0.00195312, 0.000976562, -0.078125, 0.375, -9.85938, 12.8.2021 17:12:8.572
240, 1.9086, 0.594532, 160.939, -0.000976562, -0.00195312, -0.000976562, -0.0869141, 0.324219, -9.82715, 12.8.2021 17:12:8.580
241, 1.9086, 0.594532, 160.939, -0.000976562, -0.00195312, 0.000976562, -0.137695, 0.341797, -9.85938, 12.8.2021 17:12:8.588
242, 1.9086, 0.594532, 160.939, 0, -0.000976562, -0.000976562, -0.0654297, 0.3125, -9.83691, 12.8.2021 17:12:8.596
243, 1.9086, 0.594532, 160.939, 0, -0.000976562, -0.000976562, -0.0947266, 0.360352, -9.83594, 12.8.2021 17:12:8.604
244, 1.9155, 0.593374, 160.939, 0, 0.000976562, 0, -0.101562, 0.336914, -9.83398, 12.8.2021 17:12:8.612
245, 1.9155, 0.593374, 160.939, 0, 0.000976562, 0, -0.0664062, 0.293945, -9.85645, 12.8.2021 17:12:8.620
246, 1.9155, 0.593374, 160.939, 0.000976562, 0.000976562, 0, -0.120117, 0.332031, -9.8291, 12.8.2021 17:12:8.628
247, 1.91434, 0.586478, 160.939, 0, -0.000976562, -0.000976562, -0.115234, 0.328125, -9.80566, 12.8.2021 17:12:8.636
248, 1.91434, 0.586478, 160.939, 0, -0.000976562, -0.000976562, -0.0898438, 0.333984, -9.8457, 12.8.2021 17:12:8.644
249, 1.91434, 0.586478, 160.939, -0.000976562, -0.000976562, 0, -0.132812, 0.338867, -9.83301, 12.8.2021 17:12:8.652
250, 1.91434, 0.586478, 160.939, -0.00195312, -0.000976562, 0, -0.0683594, 0.351562, -9.85547, 12.8.2021 17:12:8.660
251, 1.91434, 0.586478, 160.939, -0.000976562, 0.000976562, 0, -0.103516, 0.331055, -9.81055, 12.8.2021 17:12:8.668
252, 1.91434, 0.586478, 160.939, 0, 0.000976562, 0, -0.15625, 0.356445, -9.8418, 12.8.2021 17:12:8.676
253, 1.92124, 0.58532, 160.939, 0, -0.000976562, -0.000976562, -0.0888672, 0.342773, -9.80957, 12.8.2021 17:12:8.684
254, 1.92124, 0.58532, 160.939, -0.000976562, -0.000976562, 0, -0.138672, 0.333008, -9.79297, 12.8.2021 17:12:8.692
255, 1.92239, 0.592217, 160.939, 0.000976562, -0.000976562, 0.000976562, -0.134766, 0.333984, -9.83105, 12.8.2021 17:12:8.700
256, 1.92239, 0.592217, 160.939, 0, -0.000976562, -0.000976562, -0.0703125, 0.288086, -9.7998, 12.8.2021 17:12:8.708
257, 1.92239, 0.592217, 160.939, 0, -0.00195312, -0.000976562, -0.129883, 0.327148, -9.84961, 12.8.2021 17:12:8.716
258, 1.92239, 0.592217, 160.939, -0.000976562, -0.000976562, -0.000976562, -0.108398, 0.324219, -9.80762, 12.8.2021 17:12:8.724
259, 1.92239, 0.592217, 160.939, -0.000976562, 0, 0, -0.0517578, 0.320312, -9.8418, 12.8.2021 17:12:8.732
260, 1.92239, 0.592217, 160.939, 0, 0, 0.000976562, -0.167969, 0.326172, -9.81641, 12.8.2021 17:12:8.740
261, 1.92239, 0.592217, 160.939, 0, -0.000976562, -0.000976562, -0.0703125, 0.291016, -9.83984, 12.8.2021 17:12:8.748
262, 1.92239, 0.592217, 160.939, 0, -0.00195312, -0.000976562, -0.0751953, 0.31543, -9.85547, 12.8.2021 17:12:8.756
263, 1.92239, 0.592217, 160.939, -0.000976562, -0.000976562, -0.000976562, -0.141602, 0.345703, -9.8252, 12.8.2021 17:12:8.764
264, 1.92239, 0.592217, 160.939, 0, -0.000976562, -0.000976562, -0.0566406, 0.324219, -9.8418, 12.8.2021 17:12:8.772
265, 1.9155, 0.593374, 160.939, 0, -0.000976562, -0.000976562, -0.125, 0.332031, -9.83105, 12.8.2021 17:12:8.780
266, 1.9155, 0.593374, 160.939, 0, -0.000976562, -0.000976562, -0.123047, 0.360352, -9.83496, 12.8.2021 17:12:8.788
267, 1.9155, 0.593374, 160.939, -0.000976562, -0.000976562, 0.000976562, -0.0703125, 0.319336, -9.81543, 12.8.2021 17:12:8.796
268, 1.91666, 0.600271, 160.939, 0, -0.000976562, -0.000976562, -0.146484, 0.333984, -9.83984, 12.8.2021 17:12:8.804
269, 1.91666, 0.600271, 160.939, -0.000976562, 0, 0, -0.108398, 0.333984, -9.81934, 12.8.2021 17:12:8.812
270, 1.92355, 0.599114, 160.939, -0.000976562, 0.000976562, -0.00195312, -0.0800781, 0.338867, -9.82422, 12.8.2021 17:12:8.820
271, 1.92355, 0.599114, 160.939, -0.000976562, -0.000976562, -0.000976562, -0.151367, 0.365234, -9.83398, 12.8.2021 17:12:8.828
272, 1.92355, 0.599114, 160.939, -0.000976562, -0.000976562, -0.000976562, -0.0654297, 0.319336, -9.81348, 12.8.2021 17:12:8.836
273, 1.92355, 0.599114, 160.939, -0.000976562, -0.000976562, -0.000976562, -0.112305, 0.321289, -9.79883, 12.8.2021 17:12:8.844
274, 1.92355, 0.599114, 160.939, 0, -0.000976562, -0.00195312, -0.146484, 0.326172, -9.80469, 12.8.2021 17:12:8.852
275, 1.92355, 0.599114, 160.939, -0.000976562, 0, 0, -0.0576172, 0.301758, -9.7998, 12.8.2021 17:12:8.860
276, 1.92355, 0.599114, 160.939, -0.000976562, 0, 0, -0.115234, 0.333984, -9.8291, 12.8.2021 17:12:8.868
277, 1.92355, 0.599114, 160.939, -0.00195312, -0.000976562, -0.000976562, -0.120117, 0.342773, -9.80957, 12.8.2021 17:12:8.876
278, 1.92355, 0.599114, 160.939, -0.000976562, 0, 0, -0.0898438, 0.317383, -9.85059, 12.8.2021 17:12:8.884
279, 1.92355, 0.599114, 160.939, 0, 0, -0.000976562, -0.149414, 0.348633, -9.8418, 12.8.2021 17:12:8.892
280, 1.92355, 0.599114, 160.939, -0.000976562, 0, 0, -0.0693359, 0.341797, -9.78418, 12.8.2021 17:12:8.900
281, 1.92355, 0.599114, 160.939, -0.000976562, -0.000976562, -0.000976562, -0.101562, 0.313477, -9.85742, 12.8.2021 17:12:8.908
282, 1.92355, 0.599114, 160.939, 0, 0, -0.000976562, -0.12793, 0.334961, -9.85938, 12.8.2021 17:12:8.916
283, 1.92355, 0.599114, 160.939, 0, 0, -0.000976562, -0.0634766, 0.302734, -9.83984, 12.8.2021 17:12:8.924
284, 1.92355, 0.599114, 160.939, -0.000976562, 0, 0, -0.0966797, 0.300781, -9.83691, 12.8.2021 17:12:8.932
285, 1.92355, 0.599114, 160.939, -0.000976562, 0, 0, -0.139648, 0.322266, -9.82422, 12.8.2021 17:12:8.940
286, 1.92355, 0.599114, 160.939, -0.000976562, -0.000976562, -0.00195312, -0.0488281, 0.310547, -9.84277, 12.8.2021 17:12:8.948
287, 1.92357, 0.599223, 160.946, -0.000976562, -0.00195312, -0.00195312, -0.151367, 0.329102, -9.81445, 12.8.2021 17:12:8.956
288, 1.92357, 0.599223, 160.946, -0.000976562, -0.000976562, -0.000976562, -0.134766, 0.34668, -9.84473, 12.8.2021 17:12:8.964
289, 1.92357, 0.599223, 160.946, 0, -0.000976562, -0.000976562, -0.0732422, 0.322266, -9.83887, 12.8.2021 17:12:8.972
290, 1.92357, 0.599223, 160.946, -0.000976562, -0.000976562, 0, -0.15332, 0.326172, -9.81934, 12.8.2021 17:12:8.980
291, 1.92357, 0.599223, 160.946, -0.000976562, -0.000976562, -0.00195312, -0.0820312, 0.352539, -9.82617, 12.8.2021 17:12:8.988
292, 1.92473, 0.60612, 160.946, -0.000976562, -0.000976562, 0, -0.105469, 0.306641, -9.80859, 12.8.2021 17:12:8.996
293, 1.92473, 0.60612, 160.946, 0, -0.000976562, 0, -0.161133, 0.358398, -9.84668, 12.8.2021 17:12:9.004
294, 1.91783, 0.607277, 160.946, 0, 0, 0, -0.0507812, 0.304688, -9.80664, 12.8.2021 17:12:9.010
295, 1.91783, 0.607277, 160.946, -0.000976562, 0, -0.000976562, -0.0986328, 0.317383, -9.83203, 12.8.2021 17:12:9.018
296, 1.91783, 0.607277, 160.946, -0.000976562, -0.000976562, -0.00195312, -0.143555, 0.320312, -9.78418, 12.8.2021 17:12:9.026
297, 1.91783, 0.607277, 160.946, 0, -0.000976562, 0, -0.0585938, 0.314453, -9.83008, 12.8.2021 17:12:9.034
298, 1.91783, 0.607277, 160.946, 0, -0.000976562, 0, -0.146484, 0.338867, -9.84473, 12.8.2021 17:12:9.042
299, 1.91783, 0.607277, 160.946, 0, 0, 0, -0.134766, 0.358398, -9.8418, 12.8.2021 17:12:9.050
300, 1.91783, 0.607277, 160.946, 0.000976562, -0.000976562, -0.00195312, -0.0751953, 0.300781, -9.83984, 12.8.2021 17:12:9.058
301, 1.91783, 0.607277, 160.946, 0, 0, 0, -0.149414, 0.325195, -9.84473, 12.8.2021 17:12:9.066
302, 1.91783, 0.607277, 160.946, -0.000976562, -0.000976562, 0, -0.0625, 0.335938, -9.80078, 12.8.2021 17:12:9.074
303, 1.91783, 0.607277, 160.946, -0.000976562, 0, 0, -0.0849609, 0.322266, -9.82715, 12.8.2021 17:12:9.082
304, 1.91783, 0.607277, 160.946, 0, -0.000976562, 0, -0.129883, 0.329102, -9.80762, 12.8.2021 17:12:9.090
305, 1.91094, 0.608434, 160.946, 0, -0.000976562, 0, -0.0585938, 0.3125, -9.81836, 12.8.2021 17:12:9.098
306, 1.91094, 0.608434, 160.946, 0, 0, 0, -0.113281, 0.319336, -9.81543, 12.8.2021 17:12:9.106
307, 1.91094, 0.608434, 160.946, 0, -0.00195312, 0, -0.121094, 0.323242, -9.85742, 12.8.2021 17:12:9.114
308, 1.91094, 0.608434, 160.946, -0.000976562, -0.000976562, 0, -0.0498047, 0.316406, -9.875, 12.8.2021 17:12:9.122
309, 1.91094, 0.608434, 160.946, -0.000976562, -0.000976562, 0, -0.135742, 0.334961, -9.86426, 12.8.2021 17:12:9.130
310, 1.91094, 0.608434, 160.946, -0.00195312, 0, 0.000976562, -0.102539, 0.325195, -9.86914, 12.8.2021 17:12:9.138
311, 1.91094, 0.608434, 160.946, -0.000976562, -0.000976562, 0, -0.101562, 0.303711, -9.8584, 12.8.2021 17:12:9.146
312, 1.91094, 0.608434, 160.946, 0, 0, 0, -0.15332, 0.332031, -9.82617, 12.8.2021 17:12:9.154
313, 1.91094, 0.608434, 160.946, -0.000976562, 0, 0, -0.0751953, 0.341797, -9.86035, 12.8.2021 17:12:9.162
314, 1.91094, 0.608434, 160.946, -0.000976562, -0.000976562, 0, -0.116211, 0.325195, -9.84766, 12.8.2021 17:12:9.170
315, 1.91094, 0.608434, 160.946, -0.000976562, -0.000976562, 0, -0.108398, 0.338867, -9.83301, 12.8.2021 17:12:9.178
316, 1.91094, 0.608434, 160.946, -0.000976562, -0.000976562, 0, -0.0488281, 0.313477, -9.79688, 12.8.2021 17:12:9.186
317, 1.91094, 0.608434, 160.946, -0.000976562, -0.000976562, -0.00195312, -0.108398, 0.335938, -9.80273, 12.8.2021 17:12:9.194
318, 1.91094, 0.608434, 160.946, 0, -0.000976562, 0, -0.118164, 0.348633, -9.83496, 12.8.2021 17:12:9.202
319, 1.90978, 0.601537, 160.946, 0, -0.00195312, 0, -0.0683594, 0.3125, -9.83203, 12.8.2021 17:12:9.210
320, 1.90978, 0.601537, 160.946, 0, -0.000976562, 0, -0.143555, 0.342773, -9.7998, 12.8.2021 17:12:9.218
321, 1.90978, 0.601537, 160.946, -0.000976562, 0, -0.000976562, -0.108398, 0.329102, -9.83594, 12.8.2021 17:12:9.226
322, 1.90978, 0.601537, 160.946, -0.000976562, -0.000976562, 0, -0.0751953, 0.332031, -9.83691, 12.8.2021 17:12:9.234
323, 1.90978, 0.601537, 160.946, 0, -0.000976562, -0.000976562, -0.172852, 0.341797, -9.83008, 12.8.2021 17:12:9.242
324, 1.90978, 0.601537, 160.946, 0, 0, -0.000976562, -0.0527344, 0.323242, -9.78516, 12.8.2021 17:12:9.250
325, 1.90978, 0.601537, 160.946, 0, -0.000976562, -0.000976562, -0.09375, 0.314453, -9.82715, 12.8.2021 17:12:9.258
326, 1.90978, 0.601537, 160.946, -0.000976562, -0.000976562, 0, -0.131836, 0.347656, -9.81152, 12.8.2021 17:12:9.266
327, 1.90978, 0.601537, 160.946, -0.00195312, 0, 0, -0.0615234, 0.31543, -9.84668, 12.8.2021 17:12:9.274
328, 1.90978, 0.601537, 160.946, -0.000976562, -0.000976562, -0.000976562, -0.104492, 0.31543, -9.85547, 12.8.2021 17:12:9.282
329, 1.90978, 0.601537, 160.946, 0, -0.000976562, -0.000976562, -0.109375, 0.330078, -9.85742, 12.8.2021 17:12:9.290
330, 1.90978, 0.601537, 160.946, 0, 0, 0, -0.0634766, 0.332031, -9.83398, 12.8.2021 17:12:9.298
331, 1.91668, 0.60038, 160.946, 0, -0.000976562, 0.000976562, -0.143555, 0.342773, -9.80469, 12.8.2021 17:12:9.306
332, 1.91668, 0.60038, 160.946, 0, 0, 0, -0.118164, 0.358398, -9.83008, 12.8.2021 17:12:9.314
333, 1.91668, 0.60038, 160.946, 0, -0.000976562, 0, -0.0947266, 0.302734, -9.83008, 12.8.2021 17:12:9.322
334, 1.91668, 0.60038, 160.946, 0, -0.000976562, 0, -0.144531, 0.325195, -9.86426, 12.8.2021 17:12:9.330
335, 1.91668, 0.60038, 160.946, 0, 0, 0.000976562, -0.0576172, 0.334961, -9.79688, 12.8.2021 17:12:9.338
336, 1.91668, 0.60038, 160.946, 0, -0.000976562, 0, -0.0957031, 0.323242, -9.7959, 12.8.2021 17:12:9.346
337, 1.91668, 0.60038, 160.946, 0, -0.000976562, 0.000976562, -0.110352, 0.326172, -9.79102, 12.8.2021 17:12:9.354
338, 1.91552, 0.593484, 160.946, -0.000976562, -0.000976562, 0.000976562, -0.0439453, 0.314453, -9.80469, 12.8.2021 17:12:9.362
339, 1.91552, 0.593484, 160.946, -0.000976562, -0.000976562, 0, -0.132812, 0.302734, -9.83203, 12.8.2021 17:12:9.370
340, 1.91552, 0.593484, 160.946, 0, 0, -0.000976562, -0.106445, 0.321289, -9.87207, 12.8.2021 17:12:9.378
341, 1.91552, 0.593484, 160.946, 0, -0.000976562, -0.000976562, -0.0800781, 0.324219, -9.81348, 12.8.2021 17:12:9.386
342, 1.91552, 0.593484, 160.946, 0, -0.000976562, -0.000976562, -0.166016, 0.352539, -9.82031, 12.8.2021 17:12:9.394
343, 1.91552, 0.593484, 160.946, 0, -0.000976562, 0, -0.0800781, 0.342773, -9.81738, 12.8.2021 17:12:9.402
344, 1.91552, 0.593484, 160.946, 0, 0, 0, -0.0898438, 0.323242, -9.86719, 12.8.2021 17:12:9.410
345, 1.91552, 0.593484, 160.946, -0.000976562, 0, 0, -0.113281, 0.347656, -9.81445, 12.8.2021 17:12:9.418
346, 1.91552, 0.593484, 160.946, -0.000976562, -0.00195312, 0, -0.0605469, 0.335938, -9.8252, 12.8.2021 17:12:9.426
347, 1.91552, 0.593484, 160.946, 0, -0.00195312, 0, -0.112305, 0.342773, -9.78809, 12.8.2021 17:12:9.434
348, 1.91552, 0.593484, 160.946, 0, -0.000976562, 0, -0.132812, 0.356445, -9.85156, 12.8.2021 17:12:9.442
349, 1.91552, 0.593484, 160.946, 0, -0.000976562, 0, -0.0371094, 0.316406, -9.80664, 12.8.2021 17:12:9.450
350, 1.91552, 0.593484, 160.946, 0, 0, -0.000976562, -0.137695, 0.351562, -9.8418, 12.8.2021 17:12:9.458
351, 1.92242, 0.592327, 160.946, 0, -0.000976562, 0, -0.118164, 0.34668, -9.84766, 12.8.2021 17:12:9.466
352, 1.92242, 0.592327, 160.946, 0, 0, 0, -0.0605469, 0.3125, -9.82129, 12.8.2021 17:12:9.474
353, 1.92242, 0.592327, 160.946, -0.000976562, -0.000976562, 0, -0.146484, 0.357422, -9.80176, 12.8.2021 17:12:9.482
354, 1.92242, 0.592327, 160.946, 0, 0, -0.000976562, -0.0800781, 0.319336, -9.8252, 12.8.2021 17:12:9.490
355, 1.92126, 0.58543, 160.947, 0, -0.000976562, -0.000976562, -0.0820312, 0.304688, -9.82324, 12.8.2021 17:12:9.498
356, 1.92126, 0.58543, 160.947, 0, 0, 0, -0.123047, 0.319336, -9.81445, 12.8.2021 17:12:9.506
357, 1.92126, 0.58543, 160.947, -0.000976562, -0.000976562, 0, -0.0585938, 0.347656, -9.82227, 12.8.2021 17:12:9.514
358, 1.92815, 0.584273, 160.946, 0, -0.000976562, 0, -0.108398, 0.355469, -9.82324, 12.8.2021 17:12:9.522
359, 1.92815, 0.584273, 160.946, 0, 0, 0, -0.106445, 0.339844, -9.85254, 12.8.2021 17:12:9.530
360, 1.92815, 0.584273, 160.946, 0, 0, 0, -0.0517578, 0.324219, -9.83691, 12.8.2021 17:12:9.538
361, 1.92815, 0.584273, 160.946, -0.000976562, -0.00195312, 0, -0.149414, 0.332031, -9.84961, 12.8.2021 17:12:9.546
362, 1.92815, 0.584273, 160.946, 0, -0.000976562, 0, -0.0986328, 0.321289, -9.81543, 12.8.2021 17:12:9.554
363, 1.92815, 0.584273, 160.946, 0, 0, -0.000976562, -0.0771484, 0.345703, -9.82422, 12.8.2021 17:12:9.562
364, 1.92815, 0.584273, 160.946, 0, -0.000976562, 0, -0.132812, 0.34668, -9.86328, 12.8.2021 17:12:9.570
365, 1.93505, 0.583116, 160.946, -0.000976562, -0.000976562, 0, -0.0625, 0.342773, -9.81543, 12.8.2021 17:12:9.578
366, 1.93505, 0.583116, 160.946, 0, -0.00195312, 0, -0.106445, 0.313477, -9.85742, 12.8.2021 17:12:9.586
367, 1.93505, 0.583116, 160.946, 0.000976562, -0.000976562, 0, -0.129883, 0.295898, -9.82715, 12.8.2021 17:12:9.594
368, 1.93389, 0.576219, 160.947, 0, 0, 0, -0.0253906, 0.291016, -9.83594, 12.8.2021 17:12:9.602
369, 1.927, 0.577376, 160.947, 0, 0, 0.000976562, -0.105469, 0.296875, -9.79883, 12.8.2021 17:12:9.610
370, 1.927, 0.577376, 160.947, 0, 0, 0.000976562, -0.134766, 0.329102, -9.81934, 12.8.2021 17:12:9.618
371, 1.927, 0.577376, 160.947, 0, -0.00195312, 0, -0.0556641, 0.323242, -9.79688, 12.8.2021 17:12:9.626
372, 1.927, 0.577376, 160.947, -0.000976562, -0.000976562, 0, -0.115234, 0.307617, -9.81543, 12.8.2021 17:12:9.634
373, 1.927, 0.577376, 160.947, 0, -0.000976562, 0, -0.09375, 0.329102, -9.8291, 12.8.2021 17:12:9.642
374, 1.92584, 0.57048, 160.947, -0.000976562, -0.000976562, 0.000976562, -0.0537109, 0.297852, -9.83594, 12.8.2021 17:12:9.650
375, 1.91895, 0.571637, 160.947, 0, -0.000976562, -0.000976562, -0.163086, 0.322266, -9.83496, 12.8.2021 17:12:9.658
376, 1.91895, 0.571637, 160.947, 0, 0, -0.000976562, -0.078125, 0.322266, -9.85059, 12.8.2021 17:12:9.666
377, 1.91895, 0.571637, 160.947, -0.000976562, -0.000976562, -0.000976562, -0.0820312, 0.314453, -9.83203, 12.8.2021 17:12:9.674
378, 1.91895, 0.571637, 160.947, -0.000976562, -0.000976562, -0.000976562, -0.132812, 0.341797, -9.84277, 12.8.2021 17:12:9.682
379, 1.91205, 0.572793, 160.947, -0.000976562, -0.000976562, 0.000976562, -0.0634766, 0.28418, -9.85938, 12.8.2021 17:12:9.690
380, 1.91205, 0.572793, 160.947, -0.000976562, -0.000976562, 0, -0.137695, 0.305664, -9.83887, 12.8.2021 17:12:9.698
381, 1.91205, 0.572793, 160.947, 0, -0.000976562, 0, -0.12793, 0.325195, -9.85449, 12.8.2021 17:12:9.706
382, 1.91205, 0.572793, 160.947, 0, 0, 0, -0.0634766, 0.307617, -9.81836, 12.8.2021 17:12:9.714
383, 1.90516, 0.57395, 160.947, -0.000976562, -0.000976562, 0, -0.157227, 0.337891, -9.86133, 12.8.2021 17:12:9.722
384, 1.90516, 0.57395, 160.947, -0.000976562, 0, 0, -0.108398, 0.348633, -9.84766, 12.8.2021 17:12:9.730
385, 1.90516, 0.57395, 160.947, -0.000976562, -0.000976562, 0.000976562, -0.103516, 0.338867, -9.84277, 12.8.2021 17:12:9.738
386, 1.90513, 0.573842, 160.94, -0.000976562, -0.000976562, 0, -0.161133, 0.322266, -9.83984, 12.8.2021 17:12:9.746
387, 1.90631, 0.580847, 160.947, 0, -0.000976562, -0.00195312, -0.0751953, 0.299805, -9.81641, 12.8.2021 17:12:9.754
388, 1.90631, 0.580847, 160.947, 0, -0.000976562, 0, -0.101562, 0.34668, -9.84961, 12.8.2021 17:12:9.762
389, 1.90631, 0.580847, 160.947, -0.000976562, 0, 0, -0.137695, 0.34668, -9.83984, 12.8.2021 17:12:9.770
390, 1.89942, 0.582004, 160.947, -0.000976562, 0, -0.00195312, -0.0732422, 0.314453, -9.82715, 12.8.2021 17:12:9.778
391, 1.89942, 0.582004, 160.947, -0.000976562, -0.000976562, -0.00195312, -0.130859, 0.311523, -9.87598, 12.8.2021 17:12:9.786
392, 1.89942, 0.582004, 160.947, -0.000976562, 0, 0, -0.101562, 0.349609, -9.86133, 12.8.2021 17:12:9.794
393, 1.89942, 0.582004, 160.947, -0.00195312, -0.000976562, 0, -0.046875, 0.317383, -9.8418, 12.8.2021 17:12:9.802
394, 1.90747, 0.587744, 160.947, -0.00195312, 0, 0, -0.142578, 0.330078, -9.85449, 12.8.2021 17:12:9.810
395, 1.90747, 0.587744, 160.947, -0.000976562, 0, 0, -0.09375, 0.357422, -9.82617, 12.8.2021 17:12:9.818
396, 1.90747, 0.587744, 160.947, 0, -0.000976562, -0.00195312, -0.0771484, 0.333984, -9.83203, 12.8.2021 17:12:9.826
397, 1.90747, 0.587744, 160.947, 0, -0.000976562, 0, -0.136719, 0.326172, -9.80273, 12.8.2021 17:12:9.834
398, 1.90747, 0.587744, 160.947, -0.000976562, -0.00195312, -0.000976562, -0.0732422, 0.30957, -9.83008, 12.8.2021 17:12:9.842
399, 1.90747, 0.587744, 160.947, -0.000976562, -0.00195312, -0.000976562, -0.125, 0.314453, -9.82715, 12.8.2021 17:12:9.850
400, 1.90747, 0.587744, 160.947, 0, -0.000976562, 0, -0.106445, 0.363281, -9.83301, 12.8.2021 17:12:9.858
401, 1.90747, 0.587744, 160.947, 0.000976562, -0.000976562, 0, -0.0566406, 0.325195, -9.86523, 12.8.2021 17:12:9.866
402, 1.90747, 0.587744, 160.947, 0, -0.000976562, 0, -0.124023, 0.319336, -9.88574, 12.8.2021 17:12:9.874
403, 1.90747, 0.587744, 160.947, -0.000976562, -0.000976562, 0, -0.121094, 0.306641, -9.8623, 12.8.2021 17:12:9.882
404, 1.90747, 0.587744, 160.947, -0.000976562, 0, 0, -0.0751953, 0.307617, -9.83008, 12.8.2021 17:12:9.890
405, 1.90747, 0.587744, 160.947, -0.000976562, -0.000976562, -0.00195312, -0.158203, 0.333984, -9.81152, 12.8.2021 17:12:9.898
406, 1.90747, 0.587744, 160.947, 0, 0.000976562, -0.000976562, -0.0820312, 0.324219, -9.81738, 12.8.2021 17:12:9.906
407, 1.90747, 0.587744, 160.947, 0, -0.000976562, 0, -0.0966797, 0.320312, -9.86035, 12.8.2021 17:12:9.914
408, 1.90747, 0.587744, 160.947, 0.000976562, -0.000976562, 0, -0.137695, 0.351562, -9.8418, 12.8.2021 17:12:9.922
409, 1.90747, 0.587744, 160.947, 0.000976562, -0.000976562, 0, -0.0742188, 0.292969, -9.8916, 12.8.2021 17:12:9.930
410, 1.90173, 0.595797, 160.947, 0, -0.00195312, -0.00195312, -0.115234, 0.3125, -9.81543, 12.8.2021 17:12:9.938
411, 1.90173, 0.595797, 160.947, 0, -0.000976562, -0.00195312, -0.108398, 0.329102, -9.82227, 12.8.2021 17:12:9.946
412, 1.90173, 0.595797, 160.947, 0, 0, 0, -0.078125, 0.308594, -9.85156, 12.8.2021 17:12:9.952
413, 1.90173, 0.595797, 160.947, 0, 0, 0, -0.135742, 0.342773, -9.86621, 12.8.2021 17:12:9.960
414, 1.90173, 0.595797, 160.947, 0, 0, -0.00195312, -0.117188, 0.337891, -9.79785, 12.8.2021 17:12:9.968
415, 1.90173, 0.595797, 160.947, -0.000976562, -0.000976562, -0.00195312, -0.0771484, 0.314453, -9.8252, 12.8.2021 17:12:9.976
416, 1.90173, 0.595797, 160.947, 0, 0, -0.00195312, -0.158203, 0.329102, -9.80957, 12.8.2021 17:12:9.984
417, 1.90173, 0.595797, 160.947, -0.000976562, 0.000976562, 0, -0.0771484, 0.329102, -9.8252, 12.8.2021 17:12:9.992
418, 1.90173, 0.595797, 160.947, -0.000976562, 0, 0, -0.0839844, 0.297852, -9.81152, 12.8.2021 17:12:10.000
419, 1.90173, 0.595797, 160.947, -0.000976562, 0, 0, -0.132812, 0.320312, -9.85059, 12.8.2021 17:12:10.008
420, 1.90173, 0.595797, 160.947, 0, -0.000976562, 0, -0.0615234, 0.298828, -9.84668, 12.8.2021 17:12:10.016
421, 1.89484, 0.596954, 160.947, 0, -0.00195312, 0, -0.106445, 0.336914, -9.85449, 12.8.2021 17:12:10.024
422, 1.89484, 0.596954, 160.947, 0, -0.000976562, -0.000976562, -0.151367, 0.322266, -9.83789, 12.8.2021 17:12:10.032
423, 1.89484, 0.596954, 160.947, 0, -0.00195312, 0, -0.0439453, 0.319336, -9.80859, 12.8.2021 17:12:10.040
424, 1.89484, 0.596954, 160.947, 0, -0.000976562, -0.000976562, -0.151367, 0.328125, -9.7998, 12.8.2021 17:12:10.048
425, 1.89484, 0.596954, 160.947, 0, -0.000976562, 0.000976562, -0.111328, 0.348633, -9.84961, 12.8.2021 17:12:10.056
426, 1.89484, 0.596954, 160.947, 0, -0.000976562, 0.00195312, -0.0771484, 0.339844, -9.79883, 12.8.2021 17:12:10.064
427, 1.89484, 0.596954, 160.947, -0.000976562, -0.000976562, 0.000976562, -0.15332, 0.331055, -9.81641, 12.8.2021 17:12:10.072
428, 1.89599, 0.603851, 160.946, 0, -0.000976562, 0, -0.0654297, 0.324219, -9.83887, 12.8.2021 17:12:10.080
429, 1.89599, 0.603851, 160.946, -0.000976562, -0.000976562, -0.000976562, -0.078125, 0.3125, -9.84375, 12.8.2021 17:12:10.088
430, 1.89599, 0.603851, 160.946, -0.000976562, -0.000976562, -0.000976562, -0.161133, 0.341797, -9.83984, 12.8.2021 17:12:10.096
431, 1.89599, 0.603851, 160.946, -0.000976562, -0.000976562, 0, -0.046875, 0.333984, -9.83887, 12.8.2021 17:12:10.104
432, 1.89599, 0.603851, 160.946, -0.000976562, -0.000976562, -0.000976562, -0.140625, 0.325195, -9.86914, 12.8.2021 17:12:10.112
433, 1.89599, 0.603851, 160.946, 0, -0.000976562, -0.000976562, -0.130859, 0.333008, -9.85938, 12.8.2021 17:12:10.120
434, 1.89599, 0.603851, 160.946, -0.000976562, 0, 0, -0.0673828, 0.301758, -9.80176, 12.8.2021 17:12:10.128
435, 1.89599, 0.603851, 160.946, -0.000976562, -0.000976562, -0.000976562, -0.12793, 0.310547, -9.86035, 12.8.2021 17:12:10.136
436, 1.89599, 0.603851, 160.946, 0, 0, 0, -0.0898438, 0.317383, -9.8252, 12.8.2021 17:12:10.144
437, 1.89599, 0.603851, 160.946, -0.000976562, -0.000976562, 0, -0.0888672, 0.24707, -9.8125, 12.8.2021 17:12:10.152
438, 1.89599, 0.603851, 160.946, 0, 0, 0, -0.165039, 0.304688, -9.79102, 12.8.2021 17:12:10.160
439, 1.89599, 0.603851, 160.946, 0, -0.000976562, 0, -0.0703125, 0.336914, -9.83691, 12.8.2021 17:12:10.168
440, 1.8891, 0.605008, 160.947, 0, -0.000976562, 0, -0.0966797, 0.347656, -9.81934, 12.8.2021 17:12:10.176
441, 1.8891, 0.605008, 160.947, 0, -0.000976562, 0, -0.128906, 0.339844, -9.78613, 12.8.2021 17:12:10.184
442, 1.8891, 0.605008, 160.947, -0.000976562, 0, 0.000976562, -0.0625, 0.323242, -9.80371, 12.8.2021 17:12:10.192
443, 1.8891, 0.605008, 160.947, -0.000976562, -0.000976562, 0, -0.134766, 0.338867, -9.82324, 12.8.2021 17:12:10.200
444, 1.8891, 0.605008, 160.947, 0, -0.000976562, -0.000976562, -0.114258, 0.325195, -9.77246, 12.8.2021 17:12:10.208
445, 1.8891, 0.605008, 160.947, 0, -0.000976562, 0, -0.0839844, 0.290039, -9.81152, 12.8.2021 17:12:10.216
446, 1.8891, 0.605008, 160.947, -0.000976562, 0, 0, -0.141602, 0.341797, -9.83301, 12.8.2021 17:12:10.224
447, 1.8891, 0.605008, 160.947, -0.000976562, -0.000976562, 0, -0.125, 0.333984, -9.83789, 12.8.2021 17:12:10.232
448, 1.8891, 0.605008, 160.947, 0, -0.00195312, -0.000976562, -0.106445, 0.328125, -9.86426, 12.8.2021 17:12:10.240
449, 1.89026, 0.611905, 160.946, 0, 0, 0, -0.145508, 0.34668, -9.7666, 12.8.2021 17:12:10.248
450, 1.89026, 0.611905, 160.946, 0, -0.000976562, -0.000976562, -0.0605469, 0.328125, -9.80664, 12.8.2021 17:12:10.256
451, 1.89026, 0.611905, 160.946, -0.000976562, -0.000976562, -0.000976562, -0.0751953, 0.345703, -9.81934, 12.8.2021 17:12:10.264
452, 1.89715, 0.610748, 160.946, 0, -0.000976562, -0.000976562, -0.113281, 0.34082, -9.80762, 12.8.2021 17:12:10.272
453, 1.89715, 0.610748, 160.946, -0.000976562, -0.00195312, 0, -0.0673828, 0.304688, -9.81152, 12.8.2021 17:12:10.280
454, 1.89715, 0.610748, 160.946, 0, -0.000976562, 0, -0.149414, 0.322266, -9.84766, 12.8.2021 17:12:10.288
455, 1.89715, 0.610748, 160.946, 0, -0.000976562, 0, -0.113281, 0.333984, -9.82617, 12.8.2021 17:12:10.296
456, 1.89715, 0.610748, 160.946, 0.000976562, -0.000976562, 0, -0.078125, 0.317383, -9.83496, 12.8.2021 17:12:10.304
457, 1.89715, 0.610748, 160.946, 0, -0.000976562, 0, -0.141602, 0.355469, -9.81836, 12.8.2021 17:12:10.312
458, 1.89715, 0.610748, 160.946, 0, -0.00195312, 0, -0.116211, 0.330078, -9.85742, 12.8.2021 17:12:10.320
459, 1.89715, 0.610748, 160.946, -0.000976562, -0.000976562, -0.000976562, -0.116211, 0.317383, -9.83887, 12.8.2021 17:12:10.328
460, 1.89831, 0.617645, 160.946, 0, -0.000976562, 0, -0.137695, 0.349609, -9.87012, 12.8.2021 17:12:10.336
461, 1.89831, 0.617645, 160.946, -0.000976562, -0.000976562, 0, -0.046875, 0.3125, -9.82617, 12.8.2021 17:12:10.344
462, 1.89831, 0.617645, 160.946, 0, -0.000976562, 0.000976562, -0.117188, 0.318359, -9.78906, 12.8.2021 17:12:10.352
463, 1.9052, 0.616488, 160.946, 0, -0.00195312, 0, -0.144531, 0.339844, -9.85645, 12.8.2021 17:12:10.360
464, 1.9052, 0.616488, 160.946, 0, -0.000976562, 0, -0.0400391, 0.295898, -9.85449, 12.8.2021 17:12:10.368
465, 1.9052, 0.616488, 160.946, 0, -0.000976562, 0, -0.134766, 0.34375, -9.83789, 12.8.2021 17:12:10.376
466, 1.9052, 0.616488, 160.946, 0, -0.000976562, -0.000976562, -0.0869141, 0.324219, -9.82031, 12.8.2021 17:12:10.384
467, 1.9052, 0.616488, 160.946, 0, -0.000976562, 0, -0.0322266, 0.307617, -9.83105, 12.8.2021 17:12:10.392
468, 1.9052, 0.616488, 160.946, 0.000976562, -0.00195312, 0, -0.167969, 0.34668, -9.84863, 12.8.2021 17:12:10.400
469, 1.90405, 0.609591, 160.946, 0, -0.000976562, 0, -0.0761719, 0.344727, -9.87402, 12.8.2021 17:12:10.408
470, 1.90405, 0.609591, 160.946, 0, -0.000976562, 0, -0.0703125, 0.319336, -9.83691, 12.8.2021 17:12:10.416
471, 1.90405, 0.609591, 160.946, -0.00195312, -0.00195312, 0.000976562, -0.132812, 0.337891, -9.88281, 12.8.2021 17:12:10.424
472, 1.90405, 0.609591, 160.946, 0, -0.000976562, 0, -0.0566406, 0.313477, -9.85156, 12.8.2021 17:12:10.432
473, 1.90405, 0.609591, 160.946, 0.000976562, -0.000976562, 0, -0.108398, 0.329102, -9.83887, 12.8.2021 17:12:10.440
474, 1.90405, 0.609591, 160.946, 0, -0.000976562, 0, -0.137695, 0.324219, -9.83301, 12.8.2021 17:12:10.448
475, 1.90405, 0.609591, 160.946, 0, -0.00195312, 0, -0.0517578, 0.329102, -9.83008, 12.8.2021 17:12:10.456
476, 1.90289, 0.602694, 160.946, 0, -0.00195312, 0, -0.125, 0.333984, -9.83301, 12.8.2021 17:12:10.464
477, 1.90289, 0.602694, 160.946, 0, -0.00195312, 0, -0.123047, 0.341797, -9.85254, 12.8.2021 17:12:10.472
478, 1.90289, 0.602694, 160.946, 0, -0.000976562, 0, -0.0800781, 0.320312, -9.84863, 12.8.2021 17:12:10.480
479, 1.90289, 0.602694, 160.946, -0.000976562, -0.000976562, -0.000976562, -0.151367, 0.333984, -9.82812, 12.8.2021 17:12:10.488
480, 1.90289, 0.602694, 160.946, 0, -0.000976562, 0, -0.0654297, 0.320312, -9.83984, 12.8.2021 17:12:10.496
481, 1.90978, 0.601537, 160.946, -0.000976562, -0.000976562, 0, -0.0898438, 0.333984, -9.84375, 12.8.2021 17:12:10.504
482, 1.90978, 0.601537, 160.946, -0.00195312, -0.000976562, 0, -0.139648, 0.360352, -9.81543, 12.8.2021 17:12:10.512
483, 1.90978, 0.601537, 160.946, 0, 0, 0, -0.0390625, 0.324219, -9.81348, 12.8.2021 17:12:10.520
484, 1.90978, 0.601537, 160.946, -0.000976562, 0, 0, -0.115234, 0.332031, -9.83105, 12.8.2021 17:12:10.528
485, 1.90978, 0.601537, 160.946, 0, 0, 0, -0.12793, 0.370117, -9.84668, 12.8.2021 17:12:10.536
486, 1.91668, 0.60038, 160.946, 0, 0, 0, -0.0585938, 0.319336, -9.80859, 12.8.2021 17:12:10.544
487, 1.91668, 0.60038, 160.946, 0, 0, 0, -0.151367, 0.345703, -9.82324, 12.8.2021 17:12:10.552
488, 1.91668, 0.60038, 160.946, 0, 0, 0, -0.0966797, 0.358398, -9.83105, 12.8.2021 17:12:10.560
489, 1.91668, 0.60038, 160.946, 0, 0, 0, -0.0888672, 0.326172, -9.80566, 12.8.2021 17:12:10.568
490, 1.92357, 0.599223, 160.946, 0, 0, -0.000976562, -0.151367, 0.358398, -9.84375, 12.8.2021 17:12:10.576
491, 1.92357, 0.599223, 160.946, 0, 0, -0.000976562, -0.0917969, 0.329102, -9.81738, 12.8.2021 17:12:10.584
492, 1.92357, 0.599223, 160.946, -0.000976562, 0, 0, -0.0966797, 0.311523, -9.80371, 12.8.2021 17:12:10.592
493, 1.93047, 0.598067, 160.946, -0.000976562, 0.000976562, 0, -0.143555, 0.364258, -9.80176, 12.8.2021 17:12:10.600
494, 1.93047, 0.598067, 160.946, -0.000976562, 0, 0, -0.0517578, 0.3125, -9.84473, 12.8.2021 17:12:10.608
495, 1.93047, 0.598067, 160.946, 0, 0, -0.000976562, -0.142578, 0.318359, -9.8623, 12.8.2021 17:12:10.616
496, 1.93047, 0.598067, 160.946, 0, 0, 0, -0.132812, 0.333984, -9.83984, 12.8.2021 17:12:10.624
497, 1.93047, 0.598067, 160.946, 0, 0, 0, -0.0703125, 0.292969, -9.81641, 12.8.2021 17:12:10.632
498, 1.93047, 0.598067, 160.946, -0.000976562, 0.000976562, 0, -0.147461, 0.330078, -9.85645, 12.8.2021 17:12:10.640
499, 1.93047, 0.598067, 160.946, 0, 0.000976562, 0.000976562, -0.0966797, 0.34375, -9.84961, 12.8.2021 17:12:10.648
500, 1.93047, 0.598067, 160.946, 0, -0.000976562, 0, -0.0771484, 0.318359, -9.78516, 12.8.2021 17:12:10.656
501, 1.93047, 0.598067, 160.946, -0.000976562, 0, 0, -0.133789, 0.334961, -9.78613, 12.8.2021 17:12:10.664
502, 1.93047, 0.598067, 160.946, -0.000976562, 0, 0, -0.0654297, 0.330078, -9.79395, 12.8.2021 17:12:10.672
503, 1.93047, 0.598067, 160.946, -0.000976562, 0, 0.000976562, -0.0869141, 0.34375, -9.8457, 12.8.2021 17:12:10.680
504, 1.93047, 0.598067, 160.946, -0.000976562, 0, 0, -0.155273, 0.328125, -9.80273, 12.8.2021 17:12:10.688
505, 1.93736, 0.59691, 160.946, 0, 0, 0, -0.0537109, 0.331055, -9.82715, 12.8.2021 17:12:10.696
506, 1.93736, 0.59691, 160.946, 0, 0, 0, -0.144531, 0.329102, -9.81934, 12.8.2021 17:12:10.704
507, 1.93736, 0.59691, 160.946, 0, 0, -0.000976562, -0.120117, 0.337891, -9.8125, 12.8.2021 17:12:10.712
508, 1.93736, 0.59691, 160.946, 0.000976562, 0, -0.00195312, -0.0605469, 0.331055, -9.81348, 12.8.2021 17:12:10.720
509, 1.93736, 0.59691, 160.946, 0, 0, 0, -0.144531, 0.326172, -9.81641, 12.8.2021 17:12:10.728
510, 1.93736, 0.59691, 160.946, 0, 0, 0.000976562, -0.0820312, 0.331055, -9.8125, 12.8.2021 17:12:10.736
511, 1.93736, 0.59691, 160.946, 0, 0, 0, -0.0986328, 0.317383, -9.83398, 12.8.2021 17:12:10.744
512, 1.93736, 0.59691, 160.946, 0, 0, 0, -0.129883, 0.358398, -9.82812, 12.8.2021 17:12:10.752
513, 1.93736, 0.59691, 160.946, -0.000976562, -0.000976562, 0, -0.0585938, 0.307617, -9.84473, 12.8.2021 17:12:10.760
514, 1.93736, 0.59691, 160.946, -0.00195312, -0.000976562, 0, -0.123047, 0.327148, -9.83398, 12.8.2021 17:12:10.768
515, 1.93736, 0.59691, 160.946, -0.000976562, -0.000976562, 0, -0.111328, 0.332031, -9.85254, 12.8.2021 17:12:10.776
516, 1.93736, 0.59691, 160.946, 0.000976562, -0.000976562, 0, -0.0615234, 0.305664, -9.84473, 12.8.2021 17:12:10.784
517, 1.93047, 0.598067, 160.946, 0, 0.000976562, -0.000976562, -0.125977, 0.31543, -9.8457, 12.8.2021 17:12:10.792
518, 1.93047, 0.598067, 160.946, 0, 0.000976562, -0.000976562, -0.110352, 0.328125, -9.80762, 12.8.2021 17:12:10.800
519, 1.93047, 0.598067, 160.946, 0, -0.000976562, -0.00195312, -0.0585938, 0.332031, -9.8584, 12.8.2021 17:12:10.808
520, 1.93047, 0.598067, 160.946, 0, -0.000976562, 0, -0.15332, 0.34082, -9.82812, 12.8.2021 17:12:10.816
521, 1.93047, 0.598067, 160.946, 0, 0.000976562, 0.000976562, -0.0800781, 0.331055, -9.81738, 12.8.2021 17:12:10.824
522, 1.93047, 0.598067, 160.946, -0.000976562, -0.000976562, 0.000976562, -0.078125, 0.301758, -9.86133, 12.8.2021 17:12:10.832
523, 1.93047, 0.598067, 160.946, -0.000976562, -0.000976562, 0, -0.12793, 0.355469, -9.8252, 12.8.2021 17:12:10.840
524, 1.92931, 0.59117, 160.946, -0.000976562, -0.000976562, 0, -0.0703125, 0.329102, -9.8418, 12.8.2021 17:12:10.848
525, 1.92931, 0.59117, 160.946, -0.00195312, -0.000976562, 0, -0.0878906, 0.333008, -9.86426, 12.8.2021 17:12:10.856
526, 1.92931, 0.59117, 160.946, -0.000976562, -0.000976562, 0, -0.110352, 0.331055, -9.80957, 12.8.2021 17:12:10.864
527, 1.92931, 0.59117, 160.946, 0, -0.000976562, -0.00195312, -0.0439453, 0.317383, -9.83789, 12.8.2021 17:12:10.872
528, 1.92931, 0.59117, 160.946, 0, -0.000976562, 0, -0.123047, 0.349609, -9.86133, 12.8.2021 17:12:10.880
529, 1.92931, 0.59117, 160.946, 0.000976562, -0.000976562, 0, -0.113281, 0.333984, -9.84082, 12.8.2021 17:12:10.888
530, 1.92815, 0.584273, 160.946, 0, -0.000976562, 0, -0.0664062, 0.291992, -9.86426, 12.8.2021 17:12:10.894
531, 1.92815, 0.584273, 160.946, -0.000976562, -0.000976562, 0, -0.132812, 0.341797, -9.83789, 12.8.2021 17:12:10.902
532, 1.92815, 0.584273, 160.946, -0.000976562, -0.000976562, 0, -0.0751953, 0.331055, -9.80566, 12.8.2021 17:12:10.910
533, 1.92815, 0.584273, 160.946, -0.000976562, 0.000976562, -0.000976562, -0.09375, 0.326172, -9.82227, 12.8.2021 17:12:10.918
534, 1.92815, 0.584273, 160.946, -0.000976562, -0.000976562, 0, -0.128906, 0.359375, -9.78516, 12.8.2021 17:12:10.926
535, 1.92815, 0.584273, 160.946, -0.000976562, -0.000976562, 0, -0.0371094, 0.329102, -9.83984, 12.8.2021 17:12:10.934
536, 1.927, 0.577376, 160.947, -0.000976562, 0.000976562, 0, -0.111328, 0.3125, -9.83691, 12.8.2021 17:12:10.942
537, 1.927, 0.577376, 160.947, -0.000976562, -0.000976562, 0.000976562, -0.108398, 0.341797, -9.84473, 12.8.2021 17:12:10.950
538, 1.927, 0.577376, 160.947, 0, -0.000976562, 0.000976562, -0.046875, 0.303711, -9.84961, 12.8.2021 17:12:10.958
539, 1.927, 0.577376, 160.947, -0.000976562, 0.000976562, -0.000976562, -0.144531, 0.303711, -9.86719, 12.8.2021 17:12:10.966
540, 1.927, 0.577376, 160.947, 0, -0.000976562, 0, -0.120117, 0.337891, -9.80762, 12.8.2021 17:12:10.974
541, 1.92584, 0.57048, 160.947, 0, -0.000976562, -0.00195312, -0.0556641, 0.314453, -9.82129, 12.8.2021 17:12:10.982
542, 1.92584, 0.57048, 160.947, 0.000976562, 0.000976562, 0, -0.144531, 0.323242, -9.85449, 12.8.2021 17:12:10.990
543, 1.92584, 0.57048, 160.947, 0, -0.00195312, 0, -0.0654297, 0.31543, -9.8418, 12.8.2021 17:12:10.998
544, 1.92584, 0.57048, 160.947, 0, -0.000976562, 0, -0.0751953, 0.30957, -9.82812, 12.8.2021 17:12:11.006
545, 1.91895, 0.571637, 160.947, 0, -0.00195312, 0, -0.144531, 0.338867, -9.81641, 12.8.2021 17:12:11.014
546, 1.91895, 0.571637, 160.947, -0.000976562, 0, 0, -0.0556641, 0.324219, -9.81152, 12.8.2021 17:12:11.022
547, 1.91895, 0.571637, 160.947, -0.000976562, -0.000976562, -0.000976562, -0.0771484, 0.311523, -9.81152, 12.8.2021 17:12:11.030
548, 1.91779, 0.56474, 160.947, -0.000976562, 0, -0.000976562, -0.0966797, 0.353516, -9.85254, 12.8.2021 17:12:11.038
549, 1.91779, 0.56474, 160.947, -0.000976562, -0.000976562, 0, -0.0371094, 0.328125, -9.81152, 12.8.2021 17:12:11.046
550, 1.91779, 0.56474, 160.947, -0.000976562, 0, 0, -0.131836, 0.355469, -9.82812, 12.8.2021 17:12:11.054
551, 1.91779, 0.56474, 160.947, -0.000976562, 0, 0, -0.113281, 0.34082, -9.81934, 12.8.2021 17:12:11.062
552, 1.91663, 0.557843, 160.947, 0, -0.000976562, -0.00195312, -0.0888672, 0.321289, -9.78906, 12.8.2021 17:12:11.070
553, 1.91663, 0.557843, 160.947, -0.000976562, -0.000976562, 0, -0.141602, 0.335938, -9.80469, 12.8.2021 17:12:11.078
554, 1.92353, 0.556686, 160.947, 0, -0.000976562, 0, -0.0869141, 0.355469, -9.83789, 12.8.2021 17:12:11.086
555, 1.92353, 0.556686, 160.947, 0, -0.000976562, 0, -0.0820312, 0.310547, -9.83691, 12.8.2021 17:12:11.094
556, 1.92353, 0.556686, 160.947, -0.000976562, -0.00195312, 0, -0.110352, 0.345703, -9.81934, 12.8.2021 17:12:11.102
557, 1.92353, 0.556686, 160.947, -0.000976562, -0.000976562, 0, -0.0507812, 0.299805, -9.82324, 12.8.2021 17:12:11.110
558, 1.92353, 0.556686, 160.947, -0.000976562, -0.000976562, 0, -0.139648, 0.324219, -9.8291, 12.8.2021 17:12:11.118
559, 1.92353, 0.556686, 160.947, 0, -0.000976562, -0.00195312, -0.110352, 0.344727, -9.79297, 12.8.2021 17:12:11.126
560, 1.92353, 0.556686, 160.947, -0.000976562, -0.000976562, -0.000976562, -0.0546875, 0.294922, -9.87305, 12.8.2021 17:12:11.134
561, 1.92353, 0.556686, 160.947, 0, -0.000976562, 0, -0.125977, 0.336914, -9.86133, 12.8.2021 17:12:11.142
562, 1.92353, 0.556686, 160.947, -0.000976562, -0.000976562, 0, -0.108398, 0.353516, -9.82617, 12.8.2021 17:12:11.150
563, 1.92353, 0.556686, 160.947, -0.000976562, 0, 0, -0.0820312, 0.307617, -9.82324, 12.8.2021 17:12:11.158
564, 1.92353, 0.556686, 160.947, -0.000976562, -0.00195312, -0.00195312, -0.142578, 0.330078, -9.85254, 12.8.2021 17:12:11.166
565, 1.92468, 0.563583, 160.947, -0.000976562, -0.000976562, 0, -0.0751953, 0.34082, -9.81055, 12.8.2021 17:12:11.174
566, 1.92468, 0.563583, 160.947, 0, -0.000976562, -0.00195312, -0.103516, 0.314453, -9.8252, 12.8.2021 17:12:11.182
567, 1.92468, 0.563583, 160.947, 0, -0.000976562, 0, -0.136719, 0.335938, -9.80273, 12.8.2021 17:12:11.190
568, 1.92468, 0.563583, 160.947, 0.000976562, -0.000976562, 0, -0.0605469, 0.302734, -9.83789, 12.8.2021 17:12:11.198
569, 1.92468, 0.563583, 160.947, 0, -0.00195312, 0, -0.109375, 0.347656, -9.87109, 12.8.2021 17:12:11.206
570, 1.92468, 0.563583, 160.947, 0, -0.000976562, 0, -0.0917969, 0.365234, -9.83105, 12.8.2021 17:12:11.214
571, 1.92468, 0.563583, 160.947, -0.000976562, -0.000976562, 0, -0.0634766, 0.300781, -9.85156, 12.8.2021 17:12:11.222
572, 1.92468, 0.563583, 160.947, 0, -0.00195312, -0.00195312, -0.170898, 0.334961, -9.85352, 12.8.2021 17:12:11.230
573, 1.92468, 0.563583, 160.947, 0, -0.000976562, 0, -0.078125, 0.333008, -9.86523, 12.8.2021 17:12:11.238
574, 1.92468, 0.563583, 160.947, 0, -0.000976562, -0.00195312, -0.0947266, 0.320312, -9.85059, 12.8.2021 17:12:11.246
575, 1.92584, 0.57048, 160.947, -0.000976562, -0.00195312, -0.00195312, -0.148438, 0.364258, -9.80176, 12.8.2021 17:12:11.254
576, 1.92584, 0.57048, 160.947, -0.000976562, -0.000976562, 0, -0.0703125, 0.310547, -9.83496, 12.8.2021 17:12:11.262
577, 1.92584, 0.57048, 160.947, -0.000976562, -0.00195312, 0, -0.112305, 0.318359, -9.7959, 12.8.2021 17:12:11.270
578, 1.92584, 0.57048, 160.947, -0.000976562, 0, 0, -0.169922, 0.326172, -9.80664, 12.8.2021 17:12:11.278
579, 1.91895, 0.571637, 160.947, 0, 0.000976562, 0, -0.0625, 0.297852, -9.80957, 12.8.2021 17:12:11.286
580, 1.9201, 0.578533, 160.947, 0.000976562, 0, 0, -0.144531, 0.332031, -9.83301, 12.8.2021 17:12:11.294
581, 1.9201, 0.578533, 160.947, 0.000976562, -0.00195312, 0, -0.15332, 0.335938, -9.82617, 12.8.2021 17:12:11.302
582, 1.9201, 0.578533, 160.947, 0, 0, -0.000976562, -0.0537109, 0.31543, -9.85156, 12.8.2021 17:12:11.310
583, 1.92126, 0.58543, 160.947, 0, 0, 0, -0.151367, 0.350586, -9.83203, 12.8.2021 17:12:11.318
584, 1.92126, 0.58543, 160.947, -0.000976562, -0.00195312, 0, -0.0917969, 0.31543, -9.83887, 12.8.2021 17:12:11.326
585, 1.92126, 0.58543, 160.947, -0.000976562, 0, 0, -0.0654297, 0.323242, -9.79199, 12.8.2021 17:12:11.334
586, 1.92126, 0.58543, 160.947, 0, 0, 0, -0.147461, 0.330078, -9.85645, 12.8.2021 17:12:11.342
587, 1.91436, 0.586587, 160.947, -0.000976562, 0, 0, -0.0771484, 0.3125, -9.82324, 12.8.2021 17:12:11.350
588, 1.91552, 0.593484, 160.946, 0, 0, 0, -0.106445, 0.30957, -9.82227, 12.8.2021 17:12:11.358
589, 1.91552, 0.593484, 160.946, 0, 0, 0, -0.123047, 0.349609, -9.85938, 12.8.2021 17:12:11.366
590, 1.91552, 0.593484, 160.946, 0, 0, 0, -0.0507812, 0.311523, -9.79297, 12.8.2021 17:12:11.374
591, 1.91552, 0.593484, 160.946, 0, -0.00195312, 0, -0.129883, 0.347656, -9.81641, 12.8.2021 17:12:11.382
592, 1.91552, 0.593484, 160.946, 0.000976562, 0, 0, -0.108398, 0.34375, -9.84766, 12.8.2021 17:12:11.390
593, 1.91552, 0.593484, 160.946, -0.00195312, 0, 0, -0.0683594, 0.304688, -9.8252, 12.8.2021 17:12:11.398
594, 1.91552, 0.593484, 160.946, -0.000976562, 0.000976562, 0.000976562, -0.149414, 0.333984, -9.83789, 12.8.2021 17:12:11.406
595, 1.91552, 0.593484, 160.946, 0, 0, 0, -0.0537109, 0.326172, -9.82324, 12.8.2021 17:12:11.414
596, 1.91552, 0.593484, 160.946, 0, 0, 0, -0.0849609, 0.327148, -9.85059, 12.8.2021 17:12:11.422
597, 1.91552, 0.593484, 160.946, 0, 0.000976562, 0, -0.131836, 0.350586, -9.82812, 12.8.2021 17:12:11.430
598, 1.91552, 0.593484, 160.946, -0.000976562, 0, 0, -0.0703125, 0.325195, -9.8418, 12.8.2021 17:12:11.438
599, 1.91552, 0.593484, 160.946, -0.000976562, 0.000976562, 0, -0.109375, 0.327148, -9.85059, 12.8.2021 17:12:11.446
600, 1.91552, 0.593484, 160.946, -0.000976562, 0, 0, -0.101562, 0.355469, -9.81641, 12.8.2021 17:12:11.454
601, 1.91436, 0.586587, 160.947, -0.000976562, 0.000976562, 0, -0.0585938, 0.320312, -9.84473, 12.8.2021 17:12:11.462
602, 1.91436, 0.586587, 160.947, 0, 0, 0, -0.12793, 0.349609, -9.86816, 12.8.2021 17:12:11.470
603, 1.91436, 0.586587, 160.947, -0.000976562, -0.00195312, 0, -0.101562, 0.324219, -9.83594, 12.8.2021 17:12:11.478
604, 1.92126, 0.58543, 160.947, -0.000976562, -0.00195312, 0, -0.0634766, 0.314453, -9.82031, 12.8.2021 17:12:11.486
605, 1.92126, 0.58543, 160.947, 0, 0, 0.000976562, -0.15332, 0.331055, -9.81445, 12.8.2021 17:12:11.494
606, 1.92126, 0.58543, 160.947, -0.000976562, 0, 0, -0.0800781, 0.324219, -9.81055, 12.8.2021 17:12:11.502
607, 1.92124, 0.58532, 160.939, 0, 0, 0, -0.123047, 0.333984, -9.83105, 12.8.2021 17:12:11.510
608, 1.92124, 0.58532, 160.939, -0.000976562, 0, 0, -0.136719, 0.345703, -9.81836, 12.8.2021 17:12:11.518
609, 1.92124, 0.58532, 160.939, 0.000976562, 0, 0.000976562, -0.0683594, 0.317383, -9.82812, 12.8.2021 17:12:11.526
610, 1.92124, 0.58532, 160.939, 0, -0.000976562, -0.000976562, -0.114258, 0.323242, -9.85742, 12.8.2021 17:12:11.534
611, 1.92124, 0.58532, 160.939, -0.000976562, 0, -0.00195312, -0.120117, 0.31543, -9.83203, 12.8.2021 17:12:11.542
612, 1.92124, 0.58532, 160.939, 0, 0, -0.000976562, -0.0654297, 0.314453, -9.81641, 12.8.2021 17:12:11.550
613, 1.92124, 0.58532, 160.939, 0, -0.000976562, 0.000976562, -0.158203, 0.331055, -9.80176, 12.8.2021 17:12:11.558
614, 1.92124, 0.58532, 160.939, -0.000976562, 0, -0.000976562, -0.0947266, 0.320312, -9.84375, 12.8.2021 17:12:11.566
615, 1.92239, 0.592217, 160.939, -0.000976562, -0.00195312, -0.000976562, -0.0722656, 0.311523, -9.81543, 12.8.2021 17:12:11.574
616, 1.92239, 0.592217, 160.939, -0.000976562, 0, -0.000976562, -0.141602, 0.335938, -9.81836, 12.8.2021 17:12:11.582
617, 1.9155, 0.593374, 160.939, 0, -0.00195312, -0.00195312, -0.0771484, 0.318359, -9.79395, 12.8.2021 17:12:11.590
618, 1.91552, 0.593484, 160.946, 0, 0, -0.00195312, -0.123047, 0.333984, -9.82129, 12.8.2021 17:12:11.598
619, 1.91552, 0.593484, 160.946, 0, 0.000976562, -0.00195312, -0.125, 0.332031, -9.83594, 12.8.2021 17:12:11.606
620, 1.91552, 0.593484, 160.946, 0.000976562, -0.000976562, -0.000976562, -0.0605469, 0.30957, -9.8252, 12.8.2021 17:12:11.614
621, 1.91552, 0.593484, 160.946, 0, 0.000976562, -0.000976562, -0.101562, 0.327148, -9.8457, 12.8.2021 17:12:11.622
622, 1.91552, 0.593484, 160.946, -0.000976562, 0.000976562, -0.000976562, -0.108398, 0.347656, -9.80762, 12.8.2021 17:12:11.630
623, 1.91552, 0.593484, 160.946, -0.000976562, 0, -0.00195312, -0.0654297, 0.311523, -9.81348, 12.8.2021 17:12:11.638
624, 1.91552, 0.593484, 160.946, -0.000976562, 0, -0.000976562, -0.173828, 0.333008, -9.87793, 12.8.2021 17:12:11.646
625, 1.91552, 0.593484, 160.946, 0, -0.000976562, -0.000976562, -0.0712891, 0.316406, -9.86816, 12.8.2021 17:12:11.654
626, 1.91552, 0.593484, 160.946, 0, 0.000976562, -0.00195312, -0.0898438, 0.325195, -9.86719, 12.8.2021 17:12:11.662
627, 1.91552, 0.593484, 160.946, 0, 0, -0.000976562, -0.142578, 0.363281, -9.85156, 12.8.2021 17:12:11.670
628, 1.91552, 0.593484, 160.946, -0.000976562, 0.000976562, -0.000976562, -0.0800781, 0.327148, -9.83203, 12.8.2021 17:12:11.678
629, 1.91552, 0.593484, 160.946, -0.000976562, 0, -0.000976562, -0.103516, 0.324219, -9.8291, 12.8.2021 17:12:11.686
630, 1.91552, 0.593484, 160.946, -0.000976562, -0.000976562, 0.000976562, -0.115234, 0.34375, -9.82129, 12.8.2021 17:12:11.694
631, 1.91552, 0.593484, 160.946, 0, 0, -0.000976562, -0.0371094, 0.311523, -9.81152, 12.8.2021 17:12:11.702
632, 1.91552, 0.593484, 160.946, 0, 0, -0.000976562, -0.129883, 0.295898, -9.83887, 12.8.2021 17:12:11.710
633, 1.91552, 0.593484, 160.946, 0, 0, -0.00195312, -0.123047, 0.333984, -9.8291, 12.8.2021 17:12:11.718
634, 1.91436, 0.586587, 160.947, 0, 0.000976562, 0.000976562, -0.0800781, 0.322266, -9.8418, 12.8.2021 17:12:11.726
635, 1.91436, 0.586587, 160.947, 0, -0.000976562, -0.000976562, -0.15918, 0.333008, -9.87109, 12.8.2021 17:12:11.734
636, 1.91552, 0.593484, 160.946, -0.000976562, -0.00195312, -0.000976562, -0.101562, 0.336914, -9.85938, 12.8.2021 17:12:11.742
637, 1.91552, 0.593484, 160.946, -0.000976562, 0, -0.00195312, -0.0771484, 0.304688, -9.8252, 12.8.2021 17:12:11.750
638, 1.91552, 0.593484, 160.946, -0.000976562, 0, -0.000976562, -0.165039, 0.350586, -9.80371, 12.8.2021 17:12:11.758
639, 1.91552, 0.593484, 160.946, -0.000976562, 0, -0.000976562, -0.0654297, 0.326172, -9.81055, 12.8.2021 17:12:11.766
640, 1.91552, 0.593484, 160.946, 0, -0.000976562, -0.000976562, -0.0966797, 0.320312, -9.86035, 12.8.2021 17:12:11.774
641, 1.91552, 0.593484, 160.946, 0.000976562, -0.000976562, -0.000976562, -0.123047, 0.319336, -9.83105, 12.8.2021 17:12:11.782
642, 1.91552, 0.593484, 160.946, 0.000976562, -0.000976562, 0, -0.0751953, 0.310547, -9.84375, 12.8.2021 17:12:11.790
643, 1.90863, 0.594641, 160.946, 0, -0.000976562, 0, -0.134766, 0.314453, -9.81934, 12.8.2021 17:12:11.798
644, 1.90863, 0.594641, 160.946, 0, -0.000976562, 0.000976562, -0.110352, 0.326172, -9.79102, 12.8.2021 17:12:11.806
645, 1.90863, 0.594641, 160.946, 0, -0.000976562, 0, -0.0869141, 0.294922, -9.81348, 12.8.2021 17:12:11.814
646, 1.90863, 0.594641, 160.946, -0.000976562, -0.000976562, 0, -0.151367, 0.368164, -9.8418, 12.8.2021 17:12:11.822
647, 1.90863, 0.594641, 160.946, 0, -0.000976562, 0, -0.0703125, 0.347656, -9.80273, 12.8.2021 17:12:11.830
648, 1.90863, 0.594641, 160.946, 0, -0.000976562, 0, -0.078125, 0.320312, -9.86719, 12.8.2021 17:12:11.838
649, 1.90978, 0.601537, 160.946, 0, 0, 0, -0.142578, 0.344727, -9.88281, 12.8.2021 17:12:11.846
650, 1.90863, 0.594641, 160.946, 0, -0.000976562, 0, -0.0458984, 0.321289, -9.80176, 12.8.2021 17:12:11.852
651, 1.90863, 0.594641, 160.946, -0.000976562, -0.000976562, 0, -0.101562, 0.321289, -9.81738, 12.8.2021 17:12:11.860
652, 1.90863, 0.594641, 160.946, 0, -0.000976562, 0, -0.121094, 0.34668, -9.84766, 12.8.2021 17:12:11.868
653, 1.90863, 0.594641, 160.946, 0, -0.000976562, 0, -0.078125, 0.338867, -9.83887, 12.8.2021 17:12:11.876
654, 1.90863, 0.594641, 160.946, -0.000976562, 0, 0, -0.164062, 0.349609, -9.86035, 12.8.2021 17:12:11.884
655, 1.90863, 0.594641, 160.946, -0.000976562, 0.000976562, -0.000976562, -0.108398, 0.30957, -9.8252, 12.8.2021 17:12:11.892
656, 1.91552, 0.593484, 160.946, -0.000976562, -0.000976562, 0, -0.0898438, 0.320312, -9.84375, 12.8.2021 17:12:11.900
657, 1.91668, 0.60038, 160.946, 0, 0, 0.000976562, -0.146484, 0.347656, -9.81641, 12.8.2021 17:12:11.908
658, 1.91668, 0.60038, 160.946, 0, 0, 0, -0.103516, 0.324219, -9.82227, 12.8.2021 17:12:11.916
659, 1.91668, 0.60038, 160.946, -0.000976562, 0, 0.000976562, -0.0888672, 0.334961, -9.7793, 12.8.2021 17:12:11.924
660, 1.91668, 0.60038, 160.946, 0, 0.000976562, -0.000976562, -0.129883, 0.355469, -9.83496, 12.8.2021 17:12:11.932
661, 1.91668, 0.60038, 160.946, -0.000976562, -0.000976562, -0.000976562, -0.0673828, 0.324219, -9.81348, 12.8.2021 17:12:11.940
662, 1.91668, 0.60038, 160.946, 0, -0.000976562, 0, -0.114258, 0.321289, -9.87598, 12.8.2021 17:12:11.948
663, 1.91668, 0.60038, 160.946, -0.000976562, -0.000976562, 0, -0.113281, 0.350586, -9.82812, 12.8.2021 17:12:11.956
664, 1.92357, 0.599223, 160.946, -0.000976562, -0.00195312, 0, -0.0625, 0.329102, -9.81348, 12.8.2021 17:12:11.964
665, 1.92357, 0.599223, 160.946, 0, -0.000976562, 0, -0.134766, 0.333984, -9.84277, 12.8.2021 17:12:11.972
666, 1.92357, 0.599223, 160.946, 0, -0.000976562, 0, -0.106445, 0.351562, -9.85254, 12.8.2021 17:12:11.980
667, 1.92357, 0.599223, 160.946, 0, -0.000976562, 0.000976562, -0.0820312, 0.3125, -9.83691, 12.8.2021 17:12:11.988
668, 1.92357, 0.599223, 160.946, 0, -0.000976562, 0, -0.139648, 0.341797, -9.84473, 12.8.2021 17:12:11.996
669, 1.92357, 0.599223, 160.946, -0.00195312, -0.000976562, 0, -0.0537109, 0.342773, -9.82031, 12.8.2021 17:12:12.004
670, 1.93047, 0.598067, 160.946, -0.00195312, -0.000976562, 0, -0.0820312, 0.345703, -9.81445, 12.8.2021 17:12:12.012
671, 1.93047, 0.598067, 160.946, -0.000976562, -0.000976562, -0.000976562, -0.134766, 0.375, -9.8252, 12.8.2021 17:12:12.020
672, 1.93047, 0.598067, 160.946, -0.000976562, -0.000976562, -0.000976562, -0.0634766, 0.329102, -9.82227, 12.8.2021 17:12:12.028
673, 1.93736, 0.59691, 160.946, -0.000976562, -0.000976562, -0.000976562, -0.108398, 0.319336, -9.80371, 12.8.2021 17:12:12.036
674, 1.93736, 0.59691, 160.946, -0.000976562, -0.000976562, 0.000976562, -0.120117, 0.327148, -9.83105, 12.8.2021 17:12:12.044
675, 1.93736, 0.59691, 160.946, 0, -0.000976562, 0, -0.0830078, 0.313477, -9.85352, 12.8.2021 17:12:12.052
676, 1.93736, 0.59691, 160.946, -0.000976562, -0.00195312, -0.000976562, -0.157227, 0.334961, -9.86621, 12.8.2021 17:12:12.060
677, 1.93736, 0.59691, 160.946, 0, -0.000976562, 0, -0.108398, 0.34082, -9.82129, 12.8.2021 17:12:12.068
678, 1.93736, 0.59691, 160.946, 0, -0.000976562, 0, -0.105469, 0.320312, -9.7793, 12.8.2021 17:12:12.076
679, 1.93852, 0.603806, 160.946, 0.000976562, -0.000976562, -0.00195312, -0.154297, 0.338867, -9.84473, 12.8.2021 17:12:12.084
680, 1.93852, 0.603806, 160.946, 0, -0.000976562, 0, -0.0820312, 0.318359, -9.79688, 12.8.2021 17:12:12.092
681, 1.93852, 0.603806, 160.946, 0, 0, 0, -0.0986328, 0.3125, -9.8252, 12.8.2021 17:12:12.100
682, 1.93852, 0.603806, 160.946, 0, 0, 0, -0.132812, 0.358398, -9.85645, 12.8.2021 17:12:12.108
683, 1.93852, 0.603806, 160.946, 0, -0.000976562, 0, -0.0273438, 0.326172, -9.8252, 12.8.2021 17:12:12.116
684, 1.93852, 0.603806, 160.946, -0.000976562, -0.00195312, -0.000976562, -0.0927734, 0.325195, -9.8623, 12.8.2021 17:12:12.124
685, 1.93852, 0.603806, 160.946, -0.000976562, -0.000976562, 0, -0.101562, 0.324219, -9.8291, 12.8.2021 17:12:12.132
686, 1.93736, 0.59691, 160.946, 0, -0.00195312, -0.000976562, -0.0615234, 0.313477, -9.85645, 12.8.2021 17:12:12.140
687, 1.93736, 0.59691, 160.946, -0.000976562, -0.000976562, 0, -0.139648, 0.320312, -9.83398, 12.8.2021 17:12:12.148
688, 1.93736, 0.59691, 160.946, 0, -0.000976562, 0, -0.0869141, 0.34082, -9.83398, 12.8.2021 17:12:12.156
689, 1.93736, 0.59691, 160.946, 0, 0, 0, -0.0751953, 0.31543, -9.83984, 12.8.2021 17:12:12.164
690, 1.93736, 0.59691, 160.946, -0.000976562, -0.000976562, 0, -0.170898, 0.332031, -9.83496, 12.8.2021 17:12:12.172
691, 1.93736, 0.59691, 160.946, -0.000976562, -0.00195312, -0.000976562, -0.0654297, 0.323242, -9.79199, 12.8.2021 17:12:12.180
692, 1.93736, 0.59691, 160.946, -0.000976562, -0.00195312, -0.000976562, -0.116211, 0.324219, -9.83105, 12.8.2021 17:12:12.188
693, 1.93736, 0.59691, 160.946, -0.000976562, -0.000976562, 0, -0.111328, 0.359375, -9.875, 12.8.2021 17:12:12.196
694, 1.93736, 0.59691, 160.946, -0.000976562, 0, 0, -0.0458984, 0.288086, -9.80957, 12.8.2021 17:12:12.204
695, 1.93047, 0.598067, 160.946, -0.000976562, 0, 0, -0.134766, 0.34082, -9.82129, 12.8.2021 17:12:12.212
696, 1.92931, 0.59117, 160.946, -0.000976562, 0, 0, -0.0917969, 0.325195, -9.8457, 12.8.2021 17:12:12.220
697, 1.92931, 0.59117, 160.946, 0, -0.000976562, -0.00195312, -0.0869141, 0.317383, -9.83203, 12.8.2021 17:12:12.228
698, 1.92931, 0.59117, 160.946, -0.000976562, 0, 0, -0.148438, 0.342773, -9.81348, 12.8.2021 17:12:12.236
699, 1.92931, 0.59117, 160.946, 0, 0, -0.00195312, -0.0966797, 0.345703, -9.81934, 12.8.2021 17:12:12.244
700, 1.92931, 0.59117, 160.946, -0.000976562, 0, 0, -0.0966797, 0.31543, -9.83398, 12.8.2021 17:12:12.252
701, 1.92931, 0.59117, 160.946, 0, -0.000976562, 0, -0.136719, 0.34082, -9.7998, 12.8.2021 17:12:12.260
702, 1.92931, 0.59117, 160.946, -0.000976562, 0, -0.00195312, -0.0634766, 0.317383, -9.82324, 12.8.2021 17:12:12.268
703, 1.92931, 0.59117, 160.946, -0.000976562, -0.000976562, -0.00195312, -0.117188, 0.299805, -9.79883, 12.8.2021 17:12:12.276
704, 1.92931, 0.59117, 160.946, 0, -0.000976562, 0, -0.121094, 0.348633, -9.85449, 12.8.2021 17:12:12.284
705, 1.92931, 0.59117, 160.946, 0, -0.000976562, 0, -0.0517578, 0.317383, -9.84668, 12.8.2021 17:12:12.292
706, 1.92931, 0.59117, 160.946, 0, -0.000976562, -0.000976562, -0.15918, 0.348633, -9.84375, 12.8.2021 17:12:12.300
707, 1.92931, 0.59117, 160.946, -0.000976562, -0.000976562, 0, -0.111328, 0.336914, -9.84766, 12.8.2021 17:12:12.308
708, 1.92931, 0.59117, 160.946, -0.000976562, -0.000976562, -0.000976562, -0.0654297, 0.317383, -9.83008, 12.8.2021 17:12:12.316
709, 1.92931, 0.59117, 160.946, -0.000976562, -0.000976562, -0.000976562, -0.146484, 0.345703, -9.81836, 12.8.2021 17:12:12.324
710, 1.92931, 0.59117, 160.946, 0, -0.000976562, 0, -0.0703125, 0.324219, -9.82031, 12.8.2021 17:12:12.332
711, 1.92931, 0.59117, 160.946, 0, -0.000976562, -0.000976562, -0.0986328, 0.292969, -9.80859, 12.8.2021 17:12:12.340
712, 1.92931, 0.59117, 160.946, -0.000976562, -0.00195312, -0.000976562, -0.158203, 0.350586, -9.81836, 12.8.2021 17:12:12.348
713, 1.92357, 0.599223, 160.946, 0, -0.00195312, -0.000976562, -0.0742188, 0.328125, -9.79883, 12.8.2021 17:12:12.356
714, 1.92357, 0.599223, 160.946, 0, 0, -0.000976562, -0.0917969, 0.324219, -9.81543, 12.8.2021 17:12:12.364
715, 1.92357, 0.599223, 160.946, -0.00195312, -0.000976562, 0, -0.134766, 0.332031, -9.82812, 12.8.2021 17:12:12.372
716, 1.92357, 0.599223, 160.946, -0.000976562, -0.000976562, 0, -0.0537109, 0.307617, -9.83008, 12.8.2021 17:12:12.380
717, 1.92357, 0.599223, 160.946, 0, -0.000976562, 0, -0.125, 0.333984, -9.8291, 12.8.2021 17:12:12.388
718, 1.92357, 0.599223, 160.946, -0.000976562, -0.000976562, 0, -0.118164, 0.34082, -9.80957, 12.8.2021 17:12:12.396
719, 1.92357, 0.599223, 160.946, -0.000976562, -0.000976562, -0.000976562, -0.0751953, 0.295898, -9.82617, 12.8.2021 17:12:12.404
720, 1.92357, 0.599223, 160.946, -0.000976562, -0.000976562, 0, -0.179688, 0.338867, -9.81152, 12.8.2021 17:12:12.412
721, 1.92357, 0.599223, 160.946, -0.000976562, -0.000976562, 0, -0.103516, 0.314453, -9.82031, 12.8.2021 17:12:12.420
722, 1.92357, 0.599223, 160.946, 0, -0.000976562, 0, -0.0917969, 0.319336, -9.8291, 12.8.2021 17:12:12.428
723, 1.92357, 0.599223, 160.946, 0, -0.000976562, 0.000976562, -0.134766, 0.353516, -9.82812, 12.8.2021 17:12:12.436
724, 1.92357, 0.599223, 160.946, 0.000976562, -0.000976562, 0, -0.0634766, 0.302734, -9.82812, 12.8.2021 17:12:12.444
725, 1.91668, 0.60038, 160.946, 0, -0.000976562, -0.000976562, -0.111328, 0.307617, -9.83691, 12.8.2021 17:12:12.452
726, 1.91668, 0.60038, 160.946, -0.000976562, 0, 0, -0.139648, 0.37207, -9.81348, 12.8.2021 17:12:12.460
727, 1.91668, 0.60038, 160.946, -0.000976562, 0, 0, -0.0947266, 0.300781, -9.82812, 12.8.2021 17:12:12.468
728, 1.91783, 0.607277, 160.946, -0.000976562, 0, -0.000976562, -0.139648, 0.331055, -9.82422, 12.8.2021 17:12:12.476
729, 1.91783, 0.607277, 160.946, -0.00195312, -0.000976562, -0.000976562, -0.125, 0.341797, -9.83789, 12.8.2021 17:12:12.484
730, 1.91783, 0.607277, 160.946, -0.00195312, -0.000976562, 0, -0.078125, 0.332031, -9.85742, 12.8.2021 17:12:12.492
731, 1.91783, 0.607277, 160.946, 0, 0, 0, -0.137695, 0.34668, -9.84668, 12.8.2021 17:12:12.500
732, 1.91783, 0.607277, 160.946, 0, -0.000976562, 0, -0.0585938, 0.325195, -9.84863, 12.8.2021 17:12:12.508
733, 1.91783, 0.607277, 160.946, -0.000976562, -0.000976562, 0, -0.104492, 0.310547, -9.8418, 12.8.2021 17:12:12.516
734, 1.91783, 0.607277, 160.946, -0.000976562, 0, -0.000976562, -0.144531, 0.334961, -9.84766, 12.8.2021 17:12:12.524
735, 1.91783, 0.607277, 160.946, -0.000976562, -0.000976562, -0.000976562, -0.0703125, 0.314453, -9.82324, 12.8.2021 17:12:12.532
736, 1.91783, 0.607277, 160.946, -0.000976562, -0.000976562, 0, -0.125977, 0.318359, -9.85547, 12.8.2021 17:12:12.540
737, 1.91899, 0.614174, 160.946, -0.00195312, 0, 0, -0.107422, 0.328125, -9.87598, 12.8.2021 17:12:12.548
738, 1.91783, 0.607277, 160.946, -0.000976562, 0, 0, -0.0654297, 0.321289, -9.80371, 12.8.2021 17:12:12.556
739, 1.91783, 0.607277, 160.946, 0, -0.000976562, 0, -0.132812, 0.322266, -9.84961, 12.8.2021 17:12:12.564
740, 1.91783, 0.607277, 160.946, 0, -0.000976562, 0, -0.0791016, 0.344727, -9.80078, 12.8.2021 17:12:12.572
741, 1.91783, 0.607277, 160.946, -0.000976562, -0.000976562, 0.000976562, -0.0517578, 0.325195, -9.86328, 12.8.2021 17:12:12.580
742, 1.91783, 0.607277, 160.946, 0, -0.00195312, 0, -0.121094, 0.34375, -9.84277, 12.8.2021 17:12:12.588
743, 1.91783, 0.607277, 160.946, 0.000976562, -0.000976562, 0, -0.0585938, 0.324219, -9.81836, 12.8.2021 17:12:12.596
744, 1.91783, 0.607277, 160.946, -0.000976562, 0, 0, -0.0849609, 0.327148, -9.8291, 12.8.2021 17:12:12.604
745, 1.91668, 0.60038, 160.946, -0.000976562, -0.000976562, 0, -0.116211, 0.324219, -9.83105, 12.8.2021 17:12:12.612
746, 1.91668, 0.60038, 160.946, 0, 0, -0.000976562, -0.0341797, 0.294922, -9.81934, 12.8.2021 17:12:12.620
747, 1.91552, 0.593484, 160.946, 0, -0.000976562, 0, -0.0849609, 0.330078, -9.85547, 12.8.2021 17:12:12.628
748, 1.91552, 0.593484, 160.946, 0, -0.000976562, 0.000976562, -0.100586, 0.342773, -9.79785, 12.8.2021 17:12:12.636
749, 1.91552, 0.593484, 160.946, 0, -0.000976562, 0.000976562, -0.0615234, 0.332031, -9.85059, 12.8.2021 17:12:12.644
750, 1.91436, 0.586587, 160.947, -0.000976562, -0.00195312, 0, -0.151367, 0.34668, -9.8418, 12.8.2021 17:12:12.652
751, 1.91436, 0.586587, 160.947, -0.000976562, -0.000976562, -0.000976562, -0.106445, 0.317383, -9.83203, 12.8.2021 17:12:12.660
752, 1.91436, 0.586587, 160.947, -0.000976562, -0.00195312, -0.000976562, -0.0605469, 0.307617, -9.82324, 12.8.2021 17:12:12.668
753, 1.91436, 0.586587, 160.947, -0.000976562, -0.000976562, 0, -0.123047, 0.332031, -9.83105, 12.8.2021 17:12:12.676
754, 1.91436, 0.586587, 160.947, 0, -0.000976562, 0, -0.0820312, 0.3125, -9.83203, 12.8.2021 17:12:12.684
755, 1.91321, 0.57969, 160.947, 0.000976562, -0.000976562, 0.000976562, -0.0917969, 0.335938, -9.82715, 12.8.2021 17:12:12.692
756, 1.91321, 0.57969, 160.947, -0.000976562, -0.000976562, 0.000976562, -0.101562, 0.338867, -9.83105, 12.8.2021 17:12:12.700
757, 1.91321, 0.57969, 160.947, -0.000976562, -0.000976562, 0, -0.0664062, 0.31543, -9.84863, 12.8.2021 17:12:12.708
758, 1.91321, 0.57969, 160.947, -0.000976562, 0, -0.000976562, -0.135742, 0.328125, -9.88086, 12.8.2021 17:12:12.716
759, 1.91205, 0.572793, 160.947, 0, -0.000976562, 0, -0.0917969, 0.335938, -9.81445, 12.8.2021 17:12:12.724
760, 1.91205, 0.572793, 160.947, -0.000976562, 0, 0, -0.0673828, 0.314453, -9.81836, 12.8.2021 17:12:12.732
761, 1.91205, 0.572793, 160.947, -0.000976562, 0, 0, -0.15918, 0.334961, -9.8418, 12.8.2021 17:12:12.740
762, 1.91205, 0.572793, 160.947, -0.000976562, 0, 0, -0.0898438, 0.327148, -9.83691, 12.8.2021 17:12:12.748
763, 1.91205, 0.572793, 160.947, -0.000976562, 0, 0, -0.0761719, 0.330078, -9.87207, 12.8.2021 17:12:12.756
764, 1.91205, 0.572793, 160.947, -0.000976562, 0, 0, -0.146484, 0.333984, -9.81445, 12.8.2021 17:12:12.764
765, 1.91205, 0.572793, 160.947, -0.000976562, 0, 0, -0.0634766, 0.292969, -9.82324, 12.8.2021 17:12:12.772
766, 1.9109, 0.565897, 160.947, -0.000976562, 0, 0, -0.0966797, 0.302734, -9.81152, 12.8.2021 17:12:12.780
767, 1.91087, 0.565787, 160.94, 0, -0.000976562, 0, -0.0996094, 0.34375, -9.8457, 12.8.2021 17:12:12.788
768, 1.91087, 0.565787, 160.94, -0.000976562, -0.00195312, 0, -0.0585938, 0.295898, -9.83105, 12.8.2021 17:12:12.796
769, 1.91087, 0.565787, 160.94, -0.000976562, -0.000976562, 0, -0.130859, 0.337891, -9.87305, 12.8.2021 17:12:12.802
770, 1.90398, 0.566945, 160.94, -0.000976562, 0, 0, -0.101562, 0.341797, -9.8623, 12.8.2021 17:12:12.812
771, 1.90398, 0.566945, 160.94, -0.000976562, -0.000976562, -0.000976562, -0.046875, 0.320312, -9.87012, 12.8.2021 17:12:12.818
772, 1.90398, 0.566945, 160.94, -0.000976562, -0.000976562, -0.000976562, -0.116211, 0.342773, -9.86914, 12.8.2021 17:12:12.826
773, 1.91087, 0.565787, 160.94, -0.000976562, -0.000976562, -0.000976562, -0.0703125, 0.322266, -9.84375, 12.8.2021 17:12:12.834
774, 1.90971, 0.558891, 160.94, 0, -0.000976562, -0.000976562, -0.0654297, 0.338867, -9.82715, 12.8.2021 17:12:12.842
775, 1.90971, 0.558891, 160.94, 0, -0.000976562, -0.000976562, -0.128906, 0.387695, -9.77734, 12.8.2021 17:12:12.850
776, 1.90971, 0.558891, 160.94, 0, -0.000976562, 0.000976562, -0.0683594, 0.3125, -9.83984, 12.8.2021 17:12:12.858
777, 1.90971, 0.558891, 160.94, -0.000976562, -0.000976562, -0.00195312, -0.118164, 0.305664, -9.8457, 12.8.2021 17:12:12.866
778, 1.90971, 0.558891, 160.94, -0.000976562, -0.000976562, -0.000976562, -0.129883, 0.331055, -9.80957, 12.8.2021 17:12:12.874
779, 1.90971, 0.558891, 160.94, 0, -0.000976562, -0.000976562, -0.0585938, 0.302734, -9.83789, 12.8.2021 17:12:12.882
780, 1.90971, 0.558891, 160.94, 0, -0.00195312, -0.000976562, -0.152344, 0.354492, -9.86816, 12.8.2021 17:12:12.890
781, 1.90971, 0.558891, 160.94, 0, -0.000976562, -0.000976562, -0.120117, 0.327148, -9.82422, 12.8.2021 17:12:12.898
782, 1.90971, 0.558891, 160.94, -0.000976562, 0, 0, -0.078125, 0.300781, -9.83496, 12.8.2021 17:12:12.906
783, 1.90971, 0.558891, 160.94, 0, -0.000976562, -0.000976562, -0.15332, 0.365234, -9.8252, 12.8.2021 17:12:12.914
784, 1.90971, 0.558891, 160.94, -0.000976562, -0.00195312, -0.000976562, -0.0878906, 0.344727, -9.87109, 12.8.2021 17:12:12.922
785, 1.91087, 0.565787, 160.94, -0.000976562, -0.000976562, -0.000976562, -0.078125, 0.325195, -9.84863, 12.8.2021 17:12:12.930
786, 1.91087, 0.565787, 160.94, 0, -0.000976562, -0.000976562, -0.142578, 0.334961, -9.85449, 12.8.2021 17:12:12.938
787, 1.91087, 0.565787, 160.94, -0.000976562, -0.000976562, -0.000976562, -0.0439453, 0.311523, -9.80176, 12.8.2021 17:12:12.946
788, 1.9109, 0.565897, 160.947, 0, -0.000976562, -0.00195312, -0.113281, 0.326172, -9.80273, 12.8.2021 17:12:12.954
789, 1.9109, 0.565897, 160.947, 0, -0.000976562, -0.00195312, -0.125977, 0.34668, -9.86816, 12.8.2021 17:12:12.962
790, 1.9109, 0.565897, 160.947, -0.000976562, -0.000976562, -0.000976562, -0.0732422, 0.325195, -9.84668, 12.8.2021 17:12:12.970
791, 1.91779, 0.56474, 160.947, -0.000976562, 0, 0.000976562, -0.125977, 0.334961, -9.85938, 12.8.2021 17:12:12.978
792, 1.91895, 0.571637, 160.947, -0.000976562, -0.00195312, 0.000976562, -0.106445, 0.328125, -9.8623, 12.8.2021 17:12:12.986
793, 1.91892, 0.571527, 160.94, -0.00195312, 0, 0, -0.0996094, 0.31543, -9.83691, 12.8.2021 17:12:12.994
794, 1.91895, 0.571637, 160.947, -0.000976562, -0.000976562, -0.00195312, -0.154297, 0.329102, -9.83301, 12.8.2021 17:12:13.002
795, 1.91895, 0.571637, 160.947, 0, -0.000976562, -0.000976562, -0.0654297, 0.335938, -9.82715, 12.8.2021 17:12:13.010
796, 1.91895, 0.571637, 160.947, 0, -0.000976562, -0.000976562, -0.0683594, 0.308594, -9.85645, 12.8.2021 17:12:13.018
797, 1.91895, 0.571637, 160.947, -0.000976562, -0.00195312, -0.000976562, -0.134766, 0.326172, -9.80762, 12.8.2021 17:12:13.026
798, 1.91895, 0.571637, 160.947, 0, -0.00195312, -0.000976562, -0.0585938, 0.333984, -9.84863, 12.8.2021 17:12:13.034
799, 1.91895, 0.571637, 160.947, -0.000976562, 0, 0, -0.113281, 0.324219, -9.81738, 12.8.2021 17:12:13.042
800, 1.91895, 0.571637, 160.947, -0.000976562, 0, 0.000976562, -0.146484, 0.34082, -9.82324, 12.8.2021 17:12:13.050
801, 1.9201, 0.578533, 160.947, 0, -0.000976562, -0.000976562, -0.0664062, 0.298828, -9.84668, 12.8.2021 17:12:13.058
802, 1.9201, 0.578533, 160.947, 0, -0.000976562, -0.000976562, -0.151367, 0.353516, -9.83203, 12.8.2021 17:12:13.066
803, 1.9201, 0.578533, 160.947, 0, -0.000976562, -0.000976562, -0.0917969, 0.34082, -9.80273, 12.8.2021 17:12:13.074
804, 1.9201, 0.578533, 160.947, -0.000976562, 0, 0, -0.110352, 0.323242, -9.79395, 12.8.2021 17:12:13.082
805, 1.9201, 0.578533, 160.947, 0, -0.000976562, -0.000976562, -0.151367, 0.353516, -9.84863, 12.8.2021 17:12:13.090
806, 1.9201, 0.578533, 160.947, 0, 0, -0.00195312, -0.0703125, 0.317383, -9.83496, 12.8.2021 17:12:13.098
807, 1.92126, 0.58543, 160.947, 0, -0.00195312, -0.000976562, -0.0966797, 0.317383, -9.83691, 12.8.2021 17:12:13.106
808, 1.92126, 0.58543, 160.947, -0.000976562, -0.00195312, -0.00195312, -0.120117, 0.328125, -9.80078, 12.8.2021 17:12:13.114
809, 1.92126, 0.58543, 160.947, -0.000976562, -0.00195312, -0.00195312, -0.0488281, 0.329102, -9.84375, 12.8.2021 17:12:13.122
810, 1.92126, 0.58543, 160.947, -0.000976562, 0, -0.00195312, -0.0751953, 0.338867, -9.82031, 12.8.2021 17:12:13.130
811, 1.92126, 0.58543, 160.947, -0.000976562, 0.000976562, 0, -0.111328, 0.34082, -9.83105, 12.8.2021 17:12:13.138
812, 1.92126, 0.58543, 160.947, 0, -0.000976562, -0.000976562, -0.0556641, 0.322266, -9.83008, 12.8.2021 17:12:13.146
813, 1.92126, 0.58543, 160.947, 0, -0.000976562, -0.000976562, -0.143555, 0.347656, -9.78809, 12.8.2021 17:12:13.154
814, 1.92126, 0.58543, 160.947, 0, 0.000976562, 0, -0.09375, 0.330078, -9.79102, 12.8.2021 17:12:13.162
815, 1.92126, 0.58543, 160.947, 0, 0.000976562, 0, -0.0966797, 0.314453, -9.82227, 12.8.2021 17:12:13.170
816, 1.92126, 0.58543, 160.947, -0.000976562, 0, 0, -0.139648, 0.334961, -9.86133, 12.8.2021 17:12:13.178
817, 1.92126, 0.58543, 160.947, -0.000976562, 0, 0, -0.0615234, 0.327148, -9.84668, 12.8.2021 17:12:13.186
818, 1.9201, 0.578533, 160.947, -0.000976562, 0, 0, -0.0898438, 0.317383, -9.84863, 12.8.2021 17:12:13.194
819, 1.9201, 0.578533, 160.947, -0.000976562, -0.000976562, 0.000976562, -0.110352, 0.342773, -9.8125, 12.8.2021 17:12:13.202
820, 1.927, 0.577376, 160.947, -0.000976562, 0.000976562, 0, -0.0302734, 0.327148, -9.83496, 12.8.2021 17:12:13.210
821, 1.927, 0.577376, 160.947, 0, -0.000976562, -0.000976562, -0.139648, 0.34668, -9.83496, 12.8.2021 17:12:13.218
822, 1.927, 0.577376, 160.947, 0, -0.000976562, -0.000976562, -0.0927734, 0.34668, -9.85742, 12.8.2021 17:12:13.226
823, 1.927, 0.577376, 160.947, 0, -0.00195312, -0.00195312, -0.078125, 0.289062, -9.85645, 12.8.2021 17:12:13.234
824, 1.927, 0.577376, 160.947, -0.000976562, 0, -0.00195312, -0.161133, 0.310547, -9.84277, 12.8.2021 17:12:13.242
825, 1.927, 0.577376, 160.947, -0.000976562, 0, 0, -0.09375, 0.334961, -9.7793, 12.8.2021 17:12:13.250
826, 1.927, 0.577376, 160.947, -0.00195312, 0.000976562, 0, -0.0839844, 0.323242, -9.79199, 12.8.2021 17:12:13.258
827, 1.927, 0.577376, 160.947, 0, -0.000976562, -0.000976562, -0.129883, 0.320312, -9.84766, 12.8.2021 17:12:13.266
828, 1.9201, 0.578533, 160.947, 0, 0, -0.00195312, -0.0703125, 0.314453, -9.80859, 12.8.2021 17:12:13.274
829, 1.9201, 0.578533, 160.947, 0, -0.000976562, -0.000976562, -0.0996094, 0.320312, -9.83887, 12.8.2021 17:12:13.282
830, 1.9201, 0.578533, 160.947, 0, 0, -0.00195312, -0.137695, 0.344727, -9.86621, 12.8.2021 17:12:13.290
831, 1.9201, 0.578533, 160.947, 0, 0, -0.00195312, -0.0341797, 0.326172, -9.8252, 12.8.2021 17:12:13.298
832, 1.91895, 0.571637, 160.947, 0, 0, -0.00195312, -0.108398, 0.3125, -9.8252, 12.8.2021 17:12:13.306
833, 1.91895, 0.571637, 160.947, 0.000976562, 0, -0.00195312, -0.118164, 0.355469, -9.84277, 12.8.2021 17:12:13.314
834, 1.91895, 0.571637, 160.947, 0, 0.000976562, 0, -0.0703125, 0.307617, -9.81836, 12.8.2021 17:12:13.322
835, 1.91895, 0.571637, 160.947, 0, -0.00195312, 0, -0.158203, 0.333008, -9.79785, 12.8.2021 17:12:13.330
836, 1.91895, 0.571637, 160.947, 0, -0.000976562, 0, -0.0751953, 0.307617, -9.8418, 12.8.2021 17:12:13.338
837, 1.91205, 0.572793, 160.947, 0, -0.000976562, 0, -0.0849609, 0.31543, -9.83691, 12.8.2021 17:12:13.346
838, 1.91205, 0.572793, 160.947, 0, 0.000976562, -0.000976562, -0.137695, 0.344727, -9.86133, 12.8.2021 17:12:13.354
839, 1.91205, 0.572793, 160.947, -0.000976562, -0.00195312, -0.000976562, -0.0517578, 0.329102, -9.82715, 12.8.2021 17:12:13.362
840, 1.91205, 0.572793, 160.947, 0, -0.00195312, -0.000976562, -0.12793, 0.322266, -9.83789, 12.8.2021 17:12:13.370
841, 1.91205, 0.572793, 160.947, 0, -0.000976562, -0.000976562, -0.139648, 0.335938, -9.82324, 12.8.2021 17:12:13.378
842, 1.91321, 0.57969, 160.947, 0, -0.00195312, -0.000976562, -0.0898438, 0.305664, -9.82715, 12.8.2021 17:12:13.386
843, 1.91321, 0.57969, 160.947, -0.000976562, -0.000976562, -0.000976562, -0.139648, 0.329102, -9.83789, 12.8.2021 17:12:13.394
844, 1.91321, 0.57969, 160.947, -0.000976562, -0.000976562, -0.000976562, -0.141602, 0.317383, -9.82617, 12.8.2021 17:12:13.402
845, 1.91321, 0.57969, 160.947, -0.000976562, 0.000976562, 0, -0.0898438, 0.305664, -9.85352, 12.8.2021 17:12:13.410
846, 1.91321, 0.57969, 160.947, 0, 0.000976562, 0, -0.15332, 0.349609, -9.78027, 12.8.2021 17:12:13.418
847, 1.90747, 0.587744, 160.947, 0, -0.000976562, 0, -0.106445, 0.310547, -9.83398, 12.8.2021 17:12:13.426
848, 1.90747, 0.587744, 160.947, 0, -0.00195312, -0.000976562, -0.0947266, 0.303711, -9.85352, 12.8.2021 17:12:13.434
849, 1.90749, 0.587853, 160.954, -0.000976562, -0.00195312, -0.000976562, -0.132812, 0.347656, -9.87988, 12.8.2021 17:12:13.442
850, 1.90865, 0.594749, 160.954, 0, -0.000976562, 0, -0.0615234, 0.334961, -9.85547, 12.8.2021 17:12:13.450
851, 1.90865, 0.594749, 160.954, -0.000976562, -0.000976562, -0.000976562, -0.125, 0.327148, -9.84277, 12.8.2021 17:12:13.458
852, 1.90865, 0.594749, 160.954, -0.000976562, -0.000976562, -0.000976562, -0.115234, 0.34082, -9.82812, 12.8.2021 17:12:13.466
853, 1.90865, 0.594749, 160.954, 0, -0.000976562, 0, -0.0634766, 0.304688, -9.82324, 12.8.2021 17:12:13.474
854, 1.90865, 0.594749, 160.954, 0, -0.000976562, 0, -0.125, 0.333984, -9.83594, 12.8.2021 17:12:13.482
855, 1.90865, 0.594749, 160.954, 0, -0.000976562, -0.000976562, -0.103516, 0.314453, -9.82227, 12.8.2021 17:12:13.490
856, 1.90865, 0.594749, 160.954, -0.000976562, 0.000976562, -0.000976562, -0.0605469, 0.313477, -9.79688, 12.8.2021 17:12:13.498
857, 1.90865, 0.594749, 160.954, -0.000976562, -0.000976562, -0.000976562, -0.144531, 0.319336, -9.81738, 12.8.2021 17:12:13.506
858, 1.90175, 0.595906, 160.954, 0, -0.000976562, -0.000976562, -0.0751953, 0.310547, -9.83691, 12.8.2021 17:12:13.514
859, 1.90175, 0.595906, 160.954, 0, -0.000976562, 0, -0.0996094, 0.318359, -9.85742, 12.8.2021 17:12:13.522
860, 1.90175, 0.595906, 160.954, 0, -0.000976562, 0, -0.129883, 0.307617, -9.81055, 12.8.2021 17:12:13.530
861, 1.90175, 0.595906, 160.954, 0, -0.000976562, 0, -0.0654297, 0.299805, -9.82324, 12.8.2021 17:12:13.538
862, 1.90175, 0.595906, 160.954, -0.000976562, -0.00292969, 0, -0.130859, 0.313477, -9.85059, 12.8.2021 17:12:13.546
863, 1.89486, 0.597062, 160.954, -0.000976562, -0.00195312, 0, -0.120117, 0.329102, -9.82617, 12.8.2021 17:12:13.554
864, 1.89486, 0.597062, 160.954, 0, -0.000976562, 0, -0.0537109, 0.302734, -9.82617, 12.8.2021 17:12:13.562
865, 1.89486, 0.597062, 160.954, 0, -0.000976562, 0, -0.149414, 0.322266, -9.83594, 12.8.2021 17:12:13.570
866, 1.89486, 0.597062, 160.954, -0.000976562, 0, 0, -0.0917969, 0.314453, -9.83203, 12.8.2021 17:12:13.578
867, 1.88796, 0.598219, 160.954, -0.000976562, 0.000976562, 0, -0.0800781, 0.310547, -9.84375, 12.8.2021 17:12:13.586
868, 1.88796, 0.598219, 160.954, -0.000976562, 0.000976562, 0, -0.130859, 0.354492, -9.86816, 12.8.2021 17:12:13.594
869, 1.88796, 0.598219, 160.954, -0.000976562, 0, -0.000976562, -0.0898438, 0.348633, -9.8457, 12.8.2021 17:12:13.602
870, 1.88796, 0.598219, 160.954, -0.000976562, 0.000976562, 0, -0.113281, 0.327148, -9.83398, 12.8.2021 17:12:13.610
871, 1.88796, 0.598219, 160.954, -0.000976562, 0.000976562, 0.000976562, -0.123047, 0.319336, -9.81934, 12.8.2021 17:12:13.618
872, 1.88794, 0.598111, 160.947, -0.000976562, 0, 0, -0.0537109, 0.303711, -9.84961, 12.8.2021 17:12:13.626
873, 1.88794, 0.598111, 160.947, -0.000976562, 0, -0.000976562, -0.141602, 0.338867, -9.83789, 12.8.2021 17:12:13.634
874, 1.88794, 0.598111, 160.947, 0, 0.000976562, 0, -0.108398, 0.336914, -9.83789, 12.8.2021 17:12:13.642
875, 1.88794, 0.598111, 160.947, 0, 0.000976562, 0.000976562, -0.0634766, 0.319336, -9.82324, 12.8.2021 17:12:13.650
876, 1.88794, 0.598111, 160.947, 0, 0, 0, -0.141602, 0.364258, -9.80371, 12.8.2021 17:12:13.658
877, 1.89484, 0.596954, 160.947, 0, 0, 0.000976562, -0.0839844, 0.323242, -9.79688, 12.8.2021 17:12:13.666
878, 1.89484, 0.596954, 160.947, 0, 0, 0, -0.0947266, 0.302734, -9.82715, 12.8.2021 17:12:13.674
879, 1.89484, 0.596954, 160.947, 0, 0, 0, -0.150391, 0.34082, -9.88281, 12.8.2021 17:12:13.682
880, 1.89484, 0.596954, 160.947, -0.000976562, 0, -0.000976562, -0.0917969, 0.310547, -9.83496, 12.8.2021 17:12:13.690
881, 1.89484, 0.596954, 160.947, -0.000976562, 0, 0, -0.123047, 0.333984, -9.82617, 12.8.2021 17:12:13.698
882, 1.89484, 0.596954, 160.947, -0.000976562, 0, 0.000976562, -0.125, 0.321289, -9.80273, 12.8.2021 17:12:13.706
883, 1.89484, 0.596954, 160.947, -0.000976562, -0.000976562, 0, -0.0654297, 0.297852, -9.81641, 12.8.2021 17:12:13.714
884, 1.89484, 0.596954, 160.947, -0.000976562, 0, 0.000976562, -0.130859, 0.331055, -9.87305, 12.8.2021 17:12:13.722
885, 1.89484, 0.596954, 160.947, 0, 0, 0, -0.0986328, 0.314453, -9.83203, 12.8.2021 17:12:13.730
886, 1.89484, 0.596954, 160.947, 0, -0.000976562, -0.000976562, -0.0664062, 0.3125, -9.84863, 12.8.2021 17:12:13.738
887, 1.89484, 0.596954, 160.947, -0.000976562, 0.000976562, -0.000976562, -0.15918, 0.351562, -9.85352, 12.8.2021 17:12:13.746
888, 1.89484, 0.596954, 160.947, -0.000976562, 0, 0, -0.0869141, 0.329102, -9.83691, 12.8.2021 17:12:13.754
889, 1.89599, 0.603851, 160.946, -0.000976562, 0, -0.000976562, -0.0869141, 0.347656, -9.82129, 12.8.2021 17:12:13.760
890, 1.89599, 0.603851, 160.946, 0, 0, -0.000976562, -0.126953, 0.342773, -9.81445, 12.8.2021 17:12:13.768
891, 1.89599, 0.603851, 160.946, 0, 0, 0, -0.0537109, 0.327148, -9.85352, 12.8.2021 17:12:13.776
892, 1.89484, 0.596954, 160.947, -0.000976562, 0.000976562, 0, -0.0878906, 0.318359, -9.86523, 12.8.2021 17:12:13.784
893, 1.89484, 0.596954, 160.947, -0.000976562, -0.000976562, 0, -0.163086, 0.324219, -9.81836, 12.8.2021 17:12:13.792
894, 1.89484, 0.596954, 160.947, -0.000976562, -0.000976562, 0, -0.0507812, 0.292969, -9.81934, 12.8.2021 17:12:13.800
895, 1.89484, 0.596954, 160.947, -0.000976562, -0.000976562, 0, -0.123047, 0.320312, -9.8623, 12.8.2021 17:12:13.808
896, 1.89484, 0.596954, 160.947, 0, 0, 0, -0.106445, 0.34375, -9.84766, 12.8.2021 17:12:13.816
897, 1.90173, 0.595797, 160.947, 0, 0, -0.000976562, -0.0664062, 0.334961, -9.86719, 12.8.2021 17:12:13.824
898, 1.90173, 0.595797, 160.947, -0.000976562, -0.00195312, 0, -0.142578, 0.334961, -9.84766, 12.8.2021 17:12:13.832
899, 1.90173, 0.595797, 160.947, 0, -0.000976562, 0, -0.0673828, 0.320312, -9.77539, 12.8.2021 17:12:13.840
900, 1.90173, 0.595797, 160.947, -0.000976562, -0.00195312, 0.000976562, -0.0820312, 0.317383, -9.83887, 12.8.2021 17:12:13.848
901, 1.90173, 0.595797, 160.947, -0.000976562, -0.000976562, 0.000976562, -0.121094, 0.336914, -9.85449, 12.8.2021 17:12:13.856
902, 1.90173, 0.595797, 160.947, -0.000976562, -0.00195312, 0.000976562, -0.0488281, 0.337891, -9.80371, 12.8.2021 17:12:13.864
903, 1.90173, 0.595797, 160.947, -0.000976562, -0.00195312, 0.000976562, -0.0986328, 0.319336, -9.82227, 12.8.2021 17:12:13.872
904, 1.90171, 0.595689, 160.939, -0.000976562, -0.000976562, 0, -0.118164, 0.358398, -9.83008, 12.8.2021 17:12:13.880
905, 1.90055, 0.588792, 160.939, 0, -0.000976562, 0, -0.0683594, 0.317383, -9.82812, 12.8.2021 17:12:13.888
906, 1.90745, 0.587635, 160.939, -0.000976562, -0.000976562, 0, -0.126953, 0.350586, -9.81348, 12.8.2021 17:12:13.896
907, 1.90745, 0.587635, 160.939, -0.000976562, 0.000976562, -0.000976562, -0.0888672, 0.330078, -9.78223, 12.8.2021 17:12:13.904
908, 1.90747, 0.587744, 160.947, -0.000976562, 0.000976562, -0.000976562, -0.0820312, 0.31543, -9.83887, 12.8.2021 17:12:13.912
909, 1.90747, 0.587744, 160.947, 0, 0.00195312, 0, -0.139648, 0.350586, -9.81348, 12.8.2021 17:12:13.920
910, 1.90747, 0.587744, 160.947, 0, 0.000976562, 0, -0.0605469, 0.311523, -9.80469, 12.8.2021 17:12:13.928
911, 1.90631, 0.580847, 160.947, 0, -0.000976562, 0, -0.113281, 0.302734, -9.81055, 12.8.2021 17:12:13.936
912, 1.90631, 0.580847, 160.947, -0.000976562, 0.000976562, 0, -0.123047, 0.317383, -9.8291, 12.8.2021 17:12:13.944
913, 1.90631, 0.580847, 160.947, 0, 0, 0.000976562, -0.0498047, 0.334961, -9.85352, 12.8.2021 17:12:13.952
914, 1.90629, 0.580738, 160.939, 0, -0.000976562, -0.00195312, -0.123047, 0.301758, -9.86523, 12.8.2021 17:12:13.960
915, 1.90631, 0.580847, 160.947, 0, -0.000976562, 0, -0.119141, 0.359375, -9.87988, 12.8.2021 17:12:13.968
916, 1.90631, 0.580847, 160.947, 0, -0.000976562, 0, -0.0537109, 0.314453, -9.82324, 12.8.2021 17:12:13.976
917, 1.90631, 0.580847, 160.947, -0.000976562, -0.00195312, 0, -0.151367, 0.34082, -9.82129, 12.8.2021 17:12:13.984
918, 1.90631, 0.580847, 160.947, -0.000976562, -0.00195312, 0, -0.078125, 0.333008, -9.88574, 12.8.2021 17:12:13.992
919, 1.90629, 0.580738, 160.939, -0.000976562, -0.000976562, 0, -0.0732422, 0.307617, -9.83691, 12.8.2021 17:12:14.000
920, 1.91318, 0.579581, 160.939, -0.00195312, -0.000976562, 0, -0.115234, 0.326172, -9.81445, 12.8.2021 17:12:14.008
921, 1.91203, 0.572684, 160.94, -0.00195312, -0.000976562, 0, -0.0664062, 0.322266, -9.85352, 12.8.2021 17:12:14.016
922, 1.91203, 0.572684, 160.94, -0.000976562, -0.00195312, 0, -0.0947266, 0.330078, -9.85742, 12.8.2021 17:12:14.024
923, 1.91203, 0.572684, 160.94, 0, -0.00195312, 0, -0.125, 0.353516, -9.82617, 12.8.2021 17:12:14.032
924, 1.91203, 0.572684, 160.94, -0.000976562, -0.00195312, -0.00195312, -0.0400391, 0.317383, -9.8418, 12.8.2021 17:12:14.040
925, 1.91205, 0.572793, 160.947, -0.000976562, -0.00195312, -0.00195312, -0.12793, 0.330078, -9.8457, 12.8.2021 17:12:14.048
926, 1.91205, 0.572793, 160.947, -0.000976562, -0.000976562, 0, -0.111328, 0.355469, -9.82812, 12.8.2021 17:12:14.056
927, 1.91205, 0.572793, 160.947, -0.000976562, 0.000976562, 0, -0.0566406, 0.332031, -9.86035, 12.8.2021 17:12:14.064
928, 1.91205, 0.572793, 160.947, 0, -0.000976562, -0.00195312, -0.146484, 0.355469, -9.83984, 12.8.2021 17:12:14.072
929, 1.91895, 0.571637, 160.947, 0, -0.000976562, 0, -0.0986328, 0.347656, -9.81641, 12.8.2021 17:12:14.080
930, 1.91895, 0.571637, 160.947, 0, 0, 0, -0.0800781, 0.31543, -9.83691, 12.8.2021 17:12:14.088
931, 1.91895, 0.571637, 160.947, 0, 0, -0.00195312, -0.134766, 0.321289, -9.8125, 12.8.2021 17:12:14.096
932, 1.91895, 0.571637, 160.947, -0.000976562, 0.000976562, 0, -0.0820312, 0.3125, -9.83691, 12.8.2021 17:12:14.104
933, 1.91895, 0.571637, 160.947, 0, 0, 0, -0.125, 0.3125, -9.83594, 12.8.2021 17:12:14.112
934, 1.91895, 0.571637, 160.947, -0.000976562, 0, 0, -0.123047, 0.327148, -9.83789, 12.8.2021 17:12:14.120
935, 1.91895, 0.571637, 160.947, -0.000976562, 0, 0.000976562, -0.0654297, 0.304688, -9.7998, 12.8.2021 17:12:14.128
936, 1.91895, 0.571637, 160.947, 0, 0, 0, -0.119141, 0.328125, -9.86621, 12.8.2021 17:12:14.136
937, 1.91895, 0.571637, 160.947, 0, -0.00195312, -0.000976562, -0.121094, 0.349609, -9.85645, 12.8.2021 17:12:14.144
938, 1.91895, 0.571637, 160.947, 0, 0, -0.00195312, -0.0771484, 0.316406, -9.80371, 12.8.2021 17:12:14.152
939, 1.91895, 0.571637, 160.947, -0.000976562, 0, -0.00195312, -0.15332, 0.342773, -9.80664, 12.8.2021 17:12:14.160
940, 1.91895, 0.571637, 160.947, -0.000976562, 0.000976562, 0, -0.101562, 0.327148, -9.84082, 12.8.2021 17:12:14.168
941, 1.91895, 0.571637, 160.947, -0.000976562, 0.000976562, 0, -0.0800781, 0.31543, -9.83887, 12.8.2021 17:12:14.176
942, 1.9201, 0.578533, 160.947, -0.000976562, -0.00195312, 0, -0.134766, 0.34082, -9.82129, 12.8.2021 17:12:14.184
943, 1.9201, 0.578533, 160.947, -0.000976562, 0, 0, -0.0654297, 0.30957, -9.81348, 12.8.2021 17:12:14.192
944, 1.9201, 0.578533, 160.947, 0, 0, 0, -0.0966797, 0.335938, -9.82422, 12.8.2021 17:12:14.200
945, 1.9201, 0.578533, 160.947, -0.000976562, 0, 0, -0.117188, 0.337891, -9.78613, 12.8.2021 17:12:14.208
946, 1.9201, 0.578533, 160.947, 0, 0, 0, -0.0634766, 0.30957, -9.81641, 12.8.2021 17:12:14.216
947, 1.91321, 0.57969, 160.947, -0.000976562, -0.00195312, 0, -0.132812, 0.339844, -9.85156, 12.8.2021 17:12:14.224
948, 1.91321, 0.57969, 160.947, -0.000976562, -0.00195312, 0, -0.12793, 0.322266, -9.82617, 12.8.2021 17:12:14.232
949, 1.91321, 0.57969, 160.947, 0, 0, 0.000976562, -0.0683594, 0.317383, -9.83984, 12.8.2021 17:12:14.240
950, 1.91321, 0.57969, 160.947, -0.000976562, 0, 0, -0.146484, 0.352539, -9.81152, 12.8.2021 17:12:14.248
951, 1.91321, 0.57969, 160.947, -0.000976562, 0, 0, -0.0732422, 0.322266, -9.84668, 12.8.2021 17:12:14.256
952, 1.91321, 0.57969, 160.947, 0, 0, 0, -0.0830078, 0.287109, -9.84961, 12.8.2021 17:12:14.264
953, 1.91436, 0.586587, 160.947, 0, -0.00195312, -0.000976562, -0.15625, 0.329102, -9.82617, 12.8.2021 17:12:14.272
954, 1.91436, 0.586587, 160.947, 0.000976562, 0, 0, -0.0771484, 0.3125, -9.82324, 12.8.2021 17:12:14.280
955, 1.91436, 0.586587, 160.947, 0.000976562, 0, -0.00195312, -0.113281, 0.34082, -9.81445, 12.8.2021 17:12:14.288
956, 1.91436, 0.586587, 160.947, -0.000976562, -0.00195312, -0.00195312, -0.113281, 0.360352, -9.82129, 12.8.2021 17:12:14.296
957, 1.91436, 0.586587, 160.947, 0, 0, 0, -0.046875, 0.325195, -9.85645, 12.8.2021 17:12:14.304
958, 1.91436, 0.586587, 160.947, 0, 0, 0, -0.180664, 0.342773, -9.87988, 12.8.2021 17:12:14.312
959, 1.91436, 0.586587, 160.947, 0, 0, 0, -0.0898438, 0.336914, -9.84375, 12.8.2021 17:12:14.320
960, 1.91436, 0.586587, 160.947, 0, 0, 0, -0.0761719, 0.303711, -9.86133, 12.8.2021 17:12:14.328
961, 1.91436, 0.586587, 160.947, -0.000976562, -0.00195312, 0, -0.15625, 0.318359, -9.84961, 12.8.2021 17:12:14.336
962, 1.91552, 0.593484, 160.946, -0.000976562, 0, 0, -0.0947266, 0.332031, -9.85742, 12.8.2021 17:12:14.344
963, 1.91552, 0.593484, 160.946, 0, 0, 0, -0.0898438, 0.305664, -9.85547, 12.8.2021 17:12:14.352
964, 1.90863, 0.594641, 160.946, 0.000976562, 0, 0, -0.131836, 0.337891, -9.80469, 12.8.2021 17:12:14.360
965, 1.90863, 0.594641, 160.946, 0, 0, 0, -0.0605469, 0.316406, -9.81348, 12.8.2021 17:12:14.368
966, 1.90863, 0.594641, 160.946, -0.000976562, 0, 0, -0.103516, 0.317383, -9.82227, 12.8.2021 17:12:14.376
967, 1.90863, 0.594641, 160.946, -0.000976562, 0, 0, -0.125, 0.335938, -9.81445, 12.8.2021 17:12:14.384
968, 1.90863, 0.594641, 160.946, -0.000976562, -0.000976562, 0, -0.0634766, 0.310547, -9.85156, 12.8.2021 17:12:14.392
969, 1.90863, 0.594641, 160.946, 0, 0, -0.000976562, -0.140625, 0.334961, -9.86621, 12.8.2021 17:12:14.400
970, 1.90863, 0.594641, 160.946, 0, -0.000976562, 0, -0.0888672, 0.324219, -9.81738, 12.8.2021 17:12:14.408
971, 1.90863, 0.594641, 160.946, -0.000976562, -0.000976562, 0, -0.0849609, 0.332031, -9.83594, 12.8.2021 17:12:14.416
972, 1.90863, 0.594641, 160.946, 0, 0, 0.000976562, -0.136719, 0.34082, -9.80957, 12.8.2021 17:12:14.424
973, 1.90863, 0.594641, 160.946, 0, 0, 0, -0.0566406, 0.325195, -9.84863, 12.8.2021 17:12:14.432
974, 1.90863, 0.594641, 160.946, 0, 0, 0, -0.0849609, 0.317383, -9.83887, 12.8.2021 17:12:14.440
975, 1.90863, 0.594641, 160.946, 0, 0, 0, -0.131836, 0.334961, -9.7832, 12.8.2021 17:12:14.448
976, 1.90863, 0.594641, 160.946, -0.000976562, 0, 0, -0.0517578, 0.324219, -9.82812, 12.8.2021 17:12:14.456
977, 1.90863, 0.594641, 160.946, -0.000976562, -0.000976562, 0, -0.0986328, 0.335938, -9.80762, 12.8.2021 17:12:14.464
978, 1.90747, 0.587744, 160.947, 0, 0, 0, -0.101562, 0.360352, -9.83301, 12.8.2021 17:12:14.472
979, 1.90747, 0.587744, 160.947, 0, 0, 0, -0.0820312, 0.333008, -9.80371, 12.8.2021 17:12:14.480
980, 1.90747, 0.587744, 160.947, 0, 0.000976562, 0, -0.158203, 0.34668, -9.83496, 12.8.2021 17:12:14.488
981, 1.91436, 0.586587, 160.947, 0, 0, 0, -0.121094, 0.339844, -9.85449, 12.8.2021 17:12:14.496
982, 1.91436, 0.586587, 160.947, 0, 0, 0, -0.0917969, 0.34375, -9.85254, 12.8.2021 17:12:14.504
983, 1.91436, 0.586587, 160.947, 0, 0, 0, -0.134766, 0.338867, -9.84473, 12.8.2021 17:12:14.512
984, 1.91436, 0.586587, 160.947, 0, 0, 0, -0.0507812, 0.331055, -9.82324, 12.8.2021 17:12:14.520
985, 1.91436, 0.586587, 160.947, -0.000976562, 0, -0.000976562, -0.101562, 0.324219, -9.83398, 12.8.2021 17:12:14.528
986, 1.92126, 0.58543, 160.947, -0.000976562, 0, 0, -0.136719, 0.326172, -9.81445, 12.8.2021 17:12:14.536
987, 1.92126, 0.58543, 160.947, 0, -0.000976562, 0, -0.0322266, 0.295898, -9.83105, 12.8.2021 17:12:14.544
988, 1.92126, 0.58543, 160.947, -0.000976562, 0, 0.000976562, -0.109375, 0.325195, -9.85938, 12.8.2021 17:12:14.552
989, 1.92126, 0.58543, 160.947, 0, 0.000976562, 0, -0.112305, 0.342773, -9.8877, 12.8.2021 17:12:14.560
990, 1.92126, 0.58543, 160.947, 0, 0, -0.000976562, -0.0585938, 0.307617, -9.84473, 12.8.2021 17:12:14.568
991, 1.92126, 0.58543, 160.947, 0, 0, -0.000976562, -0.167969, 0.333984, -9.81836, 12.8.2021 17:12:14.576
992, 1.92126, 0.58543, 160.947, 0, -0.000976562, 0, -0.0947266, 0.338867, -9.83105, 12.8.2021 17:12:14.584
993, 1.92126, 0.58543, 160.947, 0.000976562, 0, 0.000976562, -0.09375, 0.292969, -9.81152, 12.8.2021 17:12:14.592
994, 1.92126, 0.58543, 160.947, 0, 0.000976562, -0.000976562, -0.149414, 0.34082, -9.82324, 12.8.2021 17:12:14.600
995, 1.91436, 0.586587, 160.947, 0, 0, 0, -0.0732422, 0.322266, -9.83008, 12.8.2021 17:12:14.608
996, 1.91436, 0.586587, 160.947, -0.000976562, 0, 0, -0.101562, 0.339844, -9.85938, 12.8.2021 17:12:14.616
997, 1.92126, 0.58543, 160.947, 0, 0, -0.00195312, -0.0986328, 0.355469, -9.83789, 12.8.2021 17:12:14.624
998, 1.92126, 0.58543, 160.947, 0.000976562, 0, -0.00195312, -0.0537109, 0.329102, -9.83691, 12.8.2021 17:12:14.632
999, 1.92126, 0.58543, 160.947, 0.000976562, 0, -0.00195312, -0.115234, 0.345703, -9.82129, 12.8.2021 17:12:14.640
1000, 1.92126, 0.58543, 160.947, 0, 0, 0, -0.118164, 0.326172, -9.82227, 12.8.2021 17:12:14.648
1001, 1.92126, 0.58543, 160.947, -0.000976562, 0.000976562, 0, -0.0751953, 0.331055, -9.82715, 12.8.2021 17:12:14.656
1002, 1.92126, 0.58543, 160.947, 0, 0.000976562, 0, -0.12207, 0.369141, -9.81348, 12.8.2021 17:12:14.664
1003, 1.9201, 0.578533, 160.947, 0, 0, 0, -0.0703125, 0.334961, -9.85059, 12.8.2021 17:12:14.672
1004, 1.9201, 0.578533, 160.947, 0, 0, 0, -0.078125, 0.322266, -9.85059, 12.8.2021 17:12:14.680
1005, 1.927, 0.577376, 160.947, -0.000976562, 0.000976562, 0, -0.146484, 0.335938, -9.79785, 12.8.2021 17:12:14.688
1006, 1.927, 0.577376, 160.947, 0, 0.000976562, 0, -0.0947266, 0.338867, -9.84766, 12.8.2021 17:12:14.696
1007, 1.927, 0.577376, 160.947, -0.000976562, -0.000976562, 0, -0.118164, 0.317383, -9.83887, 12.8.2021 17:12:14.704
1008, 1.927, 0.577376, 160.947, -0.00195312, -0.000976562, 0, -0.141602, 0.345703, -9.8252, 12.8.2021 17:12:14.710
1009, 1.92815, 0.584273, 160.946, -0.00195312, 0, -0.000976562, -0.0634766, 0.337891, -9.81738, 12.8.2021 17:12:14.720
1010, 1.93505, 0.583116, 160.946, -0.000976562, 0, 0, -0.125, 0.31543, -9.83105, 12.8.2021 17:12:14.726
1011, 1.93505, 0.583116, 160.946, 0, 0, 0, -0.106445, 0.333984, -9.8291, 12.8.2021 17:12:14.734
1012, 1.93505, 0.583116, 160.946, 0, -0.000976562, 0, -0.078125, 0.320312, -9.85547, 12.8.2021 17:12:14.742
1013, 1.93505, 0.583116, 160.946, 0, 0, 0.000976562, -0.135742, 0.342773, -9.86621, 12.8.2021 17:12:14.750
1014, 1.93505, 0.583116, 160.946, -0.000976562, 0, 0, -0.0800781, 0.322266, -9.84863, 12.8.2021 17:12:14.758
1015, 1.93505, 0.583116, 160.946, -0.000976562, 0, 0, -0.0800781, 0.286133, -9.82324, 12.8.2021 17:12:14.766
1016, 1.93505, 0.583116, 160.946, -0.000976562, 0.000976562, 0.000976562, -0.111328, 0.34375, -9.84082, 12.8.2021 17:12:14.774
1017, 1.93505, 0.583116, 160.946, 0, -0.00195312, 0.000976562, -0.046875, 0.335938, -9.83203, 12.8.2021 17:12:14.782
1018, 1.93505, 0.583116, 160.946, -0.000976562, 0, 0, -0.0966797, 0.333984, -9.8291, 12.8.2021 17:12:14.790
1019, 1.93505, 0.583116, 160.946, -0.000976562, -0.000976562, -0.00195312, -0.113281, 0.324219, -9.8291, 12.8.2021 17:12:14.798
1020, 1.93505, 0.583116, 160.946, -0.000976562, 0, 0, -0.0742188, 0.342773, -9.79395, 12.8.2021 17:12:14.806
1021, 1.93389, 0.576219, 160.947, -0.000976562, -0.000976562, 0, -0.120117, 0.332031, -9.8291, 12.8.2021 17:12:14.814
1022, 1.93389, 0.576219, 160.947, 0, 0, 0, -0.120117, 0.322266, -9.81934, 12.8.2021 17:12:14.822
1023, 1.93389, 0.576219, 160.947, 0, 0, 0, -0.0507812, 0.302734, -9.81641, 12.8.2021 17:12:14.830
1024, 1.93389, 0.576219, 160.947, 0, 0, -0.00195312, -0.168945, 0.328125, -9.87012, 12.8.2021 17:12:14.838
1025, 1.93389, 0.576219, 160.947, -0.000976562, 0, 0, -0.0703125, 0.31543, -9.83496, 12.8.2021 17:12:14.846
1026, 1.93389, 0.576219, 160.947, -0.000976562, 0, 0, -0.115234, 0.326172, -9.81738, 12.8.2021 17:12:14.854
1027, 1.93389, 0.576219, 160.947, 0, -0.00195312, 0, -0.117188, 0.339844, -9.77441, 12.8.2021 17:12:14.862
1028, 1.927, 0.577376, 160.947, -0.000976562, 0, 0, -0.0410156, 0.319336, -9.81152, 12.8.2021 17:12:14.870
1029, 1.927, 0.577376, 160.947, -0.000976562, 0, 0, -0.106445, 0.305664, -9.83887, 12.8.2021 17:12:14.878
1030, 1.927, 0.577376, 160.947, -0.000976562, -0.00195312, -0.00195312, -0.115234, 0.369141, -9.80664, 12.8.2021 17:12:14.886
1031, 1.927, 0.577376, 160.947, 0, 0, 0, -0.0537109, 0.338867, -9.83203, 12.8.2021 17:12:14.894
1032, 1.927, 0.577376, 160.947, 0, 0, 0, -0.114258, 0.332031, -9.85742, 12.8.2021 17:12:14.902
1033, 1.927, 0.577376, 160.947, -0.000976562, 0, 0.000976562, -0.118164, 0.351562, -9.86133, 12.8.2021 17:12:14.910
1034, 1.927, 0.577376, 160.947, -0.000976562, 0.000976562, -0.000976562, -0.0869141, 0.31543, -9.83496, 12.8.2021 17:12:14.918
1035, 1.93389, 0.576219, 160.947, 0, 0, -0.00195312, -0.131836, 0.344727, -9.77832, 12.8.2021 17:12:14.926
1036, 1.93389, 0.576219, 160.947, -0.000976562, 0, 0, -0.0673828, 0.301758, -9.80957, 12.8.2021 17:12:14.934
1037, 1.927, 0.577376, 160.947, 0, 0, 0, -0.09375, 0.30957, -9.81348, 12.8.2021 17:12:14.942
1038, 1.92584, 0.57048, 160.947, 0, 0, -0.00195312, -0.108398, 0.347656, -9.79785, 12.8.2021 17:12:14.950
1039, 1.92584, 0.57048, 160.947, -0.000976562, -0.00195312, 0, -0.0439453, 0.308594, -9.79492, 12.8.2021 17:12:14.958
1040, 1.92584, 0.57048, 160.947, 0, 0, -0.00195312, -0.136719, 0.333984, -9.83301, 12.8.2021 17:12:14.966
1041, 1.92584, 0.57048, 160.947, 0.000976562, 0, 0, -0.108398, 0.34375, -9.82617, 12.8.2021 17:12:14.974
1042, 1.92584, 0.57048, 160.947, 0, -0.00195312, -0.00195312, -0.0566406, 0.332031, -9.8584, 12.8.2021 17:12:14.982
1043, 1.92584, 0.57048, 160.947, 0, 0, -0.00195312, -0.158203, 0.347656, -9.81543, 12.8.2021 17:12:14.990
1044, 1.92584, 0.57048, 160.947, 0, 0, -0.00195312, -0.0683594, 0.327148, -9.83887, 12.8.2021 17:12:14.998
1045, 1.92584, 0.57048, 160.947, -0.000976562, 0, -0.000976562, -0.0703125, 0.319336, -9.83008, 12.8.2021 17:12:15.006
1046, 1.92584, 0.57048, 160.947, 0, 0, 0, -0.129883, 0.345703, -9.82812, 12.8.2021 17:12:15.014
1047, 1.92584, 0.57048, 160.947, 0, -0.00195312, 0, -0.0683594, 0.3125, -9.82031, 12.8.2021 17:12:15.022
1048, 1.92584, 0.57048, 160.947, 0, 0, -0.00195312, -0.108398, 0.334961, -9.8457, 12.8.2021 17:12:15.030
1049, 1.92584, 0.57048, 160.947, 0, 0, 0, -0.120117, 0.345703, -9.82129, 12.8.2021 17:12:15.038
1050, 1.92584, 0.57048, 160.947, -0.000976562, 0, 0, -0.0751953, 0.317383, -9.83887, 12.8.2021 17:12:15.046
1051, 1.92584, 0.57048, 160.947, 0, 0, 0, -0.146484, 0.314453, -9.82422, 12.8.2021 17:12:15.054
1052, 1.92584, 0.57048, 160.947, -0.000976562, 0, -0.000976562, -0.117188, 0.314453, -9.89746, 12.8.2021 17:12:15.062
1053, 1.92584, 0.57048, 160.947, -0.000976562, 0, 0, -0.0605469, 0.317383, -9.83203, 12.8.2021 17:12:15.070
1054, 1.92584, 0.57048, 160.947, 0, -0.00195312, 0, -0.140625, 0.325195, -9.86621, 12.8.2021 17:12:15.078
1055, 1.92584, 0.57048, 160.947, 0, 0, 0.000976562, -0.0869141, 0.341797, -9.84766, 12.8.2021 17:12:15.086
1056, 1.92584, 0.57048, 160.947, -0.000976562, 0, -0.000976562, -0.101562, 0.327148, -9.85547, 12.8.2021 17:12:15.094
1057, 1.92584, 0.57048, 160.947, -0.000976562, 0, 0, -0.161133, 0.351562, -9.84668, 12.8.2021 17:12:15.102
1058, 1.92584, 0.57048, 160.947, -0.000976562, 0, 0, -0.0615234, 0.322266, -9.8418, 12.8.2021 17:12:15.110
1059, 1.927, 0.577376, 160.947, -0.000976562, 0, 0, -0.09375, 0.313477, -9.79395, 12.8.2021 17:12:15.118
1060, 1.927, 0.577376, 160.947, -0.000976562, -0.000976562, 0, -0.146484, 0.358398, -9.83984, 12.8.2021 17:12:15.126
1061, 1.927, 0.577376, 160.947, -0.000976562, 0, 0, -0.0517578, 0.30957, -9.82812, 12.8.2021 17:12:15.134
1062, 1.927, 0.577376, 160.947, -0.00195312, -0.000976562, -0.000976562, -0.118164, 0.353516, -9.85156, 12.8.2021 17:12:15.142
1063, 1.927, 0.577376, 160.947, -0.000976562, 0, 0, -0.105469, 0.337891, -9.79297, 12.8.2021 17:12:15.150
1064, 1.927, 0.577376, 160.947, 0, 0.000976562, 0.000976562, -0.0449219, 0.3125, -9.84668, 12.8.2021 17:12:15.158
1065, 1.927, 0.577376, 160.947, -0.000976562, -0.000976562, 0.000976562, -0.163086, 0.348633, -9.82324, 12.8.2021 17:12:15.166
1066, 1.927, 0.577376, 160.947, 0, -0.000976562, 0.000976562, -0.0800781, 0.307617, -9.81543, 12.8.2021 17:12:15.174
1067, 1.927, 0.577376, 160.947, 0, -0.000976562, 0, -0.0849609, 0.304688, -9.82031, 12.8.2021 17:12:15.182
1068, 1.927, 0.577376, 160.947, -0.000976562, 0.000976562, 0, -0.144531, 0.333984, -9.81934, 12.8.2021 17:12:15.190
