Seq, Rot x, Rot y, Rot z, Vel x, Vel y, Vel z, Acc x, Acc y, Acc z, Time(m.d.y h:m:s.ms)
0, 1.92954, 0.194729, 55.5917, 0, 0.00195312, 0.00292969, -0.0351562, 0.332031, -9.86035, 12.2.2021 17:51:10.039
1, 1.92954, 0.194729, 55.5917, 0, 0.00195312, 0.00292969, -0.110352, 0.328125, -9.79785, 12.2.2021 17:51:10.047
2, 1.92954, 0.194729, 55.5917, -0.000976562, 0.000976562, 0.00195312, -0.0722656, 0.331055, -9.81543, 12.2.2021 17:51:10.055
3, 1.92954, 0.194729, 55.5917, 0, 0.000976562, 0.00292969, -0.0507812, 0.316406, -9.81152, 12.2.2021 17:51:10.063
4, 1.93298, 0.188433, 55.5883, -0.000976562, 0.000976562, 0.00292969, -0.143555, 0.336914, -9.77148, 12.2.2021 17:51:10.071
5, 1.93298, 0.188433, 55.5883, 0, 0.000976562, 0.00292969, -0.0644531, 0.336914, -9.75879, 12.2.2021 17:51:10.079
6, 1.93298, 0.188433, 55.5883, 0, 0.00195312, 0.00292969, -0.0576172, 0.336914, -9.76562, 12.2.2021 17:51:10.087
7, 1.93298, 0.188433, 55.5883, 0, 0.00195312, 0.00292969, -0.115234, 0.337891, -9.78613, 12.2.2021 17:51:10.095
8, 1.93298, 0.188433, 55.5883, 0, 0.00195312, 0.00488281, -0.0410156, 0.300781, -9.7627, 12.2.2021 17:51:10.103
9, 1.93285, 0.188278, 55.5764, 0.000976562, 0.000976562, 0.00292969, -0.0888672, 0.319336, -9.81738, 12.2.2021 17:51:10.111
10, 1.93285, 0.188278, 55.5764, 0.000976562, 0.000976562, 0.00292969, -0.100586, 0.339844, -9.78125, 12.2.2021 17:51:10.119
11, 1.93285, 0.188278, 55.5764, 0, 0.000976562, 0.00292969, -0.03125, 0.337891, -9.79883, 12.2.2021 17:51:10.127
12, 1.93285, 0.188278, 55.5764, 0, 0.00195312, 0.00292969, -0.143555, 0.373047, -9.77246, 12.2.2021 17:51:10.135
13, 1.93009, 0.178722, 55.5732, 0, 0.00195312, 0.00488281, -0.0771484, 0.320312, -9.78516, 12.2.2021 17:51:10.143
14, 1.93009, 0.178722, 55.5732, 0, 0.00195312, 0.00292969, -0.100586, 0.318359, -9.79395, 12.2.2021 17:51:10.151
15, 1.93009, 0.178722, 55.5732, -0.000976562, 0.00195312, 0.00195312, -0.151367, 0.333984, -9.81445, 12.2.2021 17:51:10.159
16, 1.93009, 0.178722, 55.5732, 0, 0.00292969, 0.00292969, -0.0576172, 0.332031, -9.77539, 12.2.2021 17:51:10.167
17, 1.92979, 0.178677, 55.5648, 0, 0.00195312, 0.00292969, -0.0927734, 0.336914, -9.76953, 12.2.2021 17:51:10.175
18, 1.92996, 0.178568, 55.5613, -0.000976562, 0.00195312, 0.00292969, -0.112305, 0.356445, -9.77637, 12.2.2021 17:51:10.183
19, 1.93322, 0.172381, 55.5614, -0.000976562, 0.00292969, 0.00195312, -0.0292969, 0.316406, -9.79297, 12.2.2021 17:51:10.191
20, 1.93322, 0.172381, 55.5614, 0, 0.00195312, 0.00195312, -0.118164, 0.331055, -9.8125, 12.2.2021 17:51:10.199
21, 1.93322, 0.172381, 55.5614, 0, 0.00195312, 0.00292969, -0.0869141, 0.328125, -9.79883, 12.2.2021 17:51:10.207
22, 1.93322, 0.172381, 55.5614, 0, 0.00195312, 0.00292969, -0.0722656, 0.328125, -9.81055, 12.2.2021 17:51:10.215
23, 1.92721, 0.169013, 55.558, 0, 0.00195312, 0.00292969, -0.133789, 0.369141, -9.79004, 12.2.2021 17:51:10.223
24, 1.93047, 0.162826, 55.5581, -0.000976562, 0.00195312, 0.00292969, -0.0292969, 0.330078, -9.78027, 12.2.2021 17:51:10.231
25, 1.93047, 0.162826, 55.5581, 0, 0.00195312, 0.00195312, -0.0839844, 0.351562, -9.77246, 12.2.2021 17:51:10.239
26, 1.93047, 0.162826, 55.5581, 0, 0.00195312, 0.00292969, -0.126953, 0.328125, -9.77441, 12.2.2021 17:51:10.247
27, 1.93016, 0.16278, 55.5497, 0, 0.000976562, 0.00292969, -0.0771484, 0.330078, -9.78906, 12.2.2021 17:51:10.255
28, 1.93033, 0.162671, 55.5462, 0, 0.000976562, 0.00292969, -0.130859, 0.368164, -9.76367, 12.2.2021 17:51:10.263
29, 1.93033, 0.162671, 55.5462, -0.000976562, 0.000976562, 0.00292969, -0.0703125, 0.348633, -9.83887, 12.2.2021 17:51:10.271
30, 1.93033, 0.162671, 55.5462, 0, 0.000976562, 0.00390625, -0.0693359, 0.332031, -9.76855, 12.2.2021 17:51:10.279
31, 1.95891, 0.438541, 55.5405, 0, -0.000976562, 0, -0.150391, 0.364258, -9.79004, 12.2.2021 17:51:10.287
32, 1.96734, 0.498176, 55.5475, 0.000976562, -0.000976562, 0, -0.0322266, 0.339844, -9.80371, 12.2.2021 17:51:10.295
33, 1.96408, 0.504363, 55.5474, 0, -0.000976562, 0, -0.0947266, 0.327148, -9.83203, 12.2.2021 17:51:10.303
34, 1.96408, 0.504363, 55.5474, 0, -0.000976562, -0.00195312, -0.105469, 0.326172, -9.79395, 12.2.2021 17:51:10.311
35, 1.96408, 0.504363, 55.5474, 0, 0, 0, -0.0556641, 0.30957, -9.81641, 12.2.2021 17:51:10.319
36, 1.96408, 0.504363, 55.5474, -0.000976562, -0.000976562, 0, -0.115234, 0.352539, -9.82324, 12.2.2021 17:51:10.327
37, 1.96408, 0.504363, 55.5474, 0, -0.000976562, 0, -0.09375, 0.349609, -9.78809, 12.2.2021 17:51:10.335
38, 1.96408, 0.504363, 55.5474, -0.000976562, 0, 0, -0.0361328, 0.333008, -9.80664, 12.2.2021 17:51:10.343
39, 1.96408, 0.504363, 55.5474, 0, 0, 0, -0.112305, 0.351562, -9.76465, 12.2.2021 17:51:10.351
40, 1.96408, 0.504363, 55.5474, -0.000976562, 0, 0, -0.0507812, 0.328125, -9.80176, 12.2.2021 17:51:10.359
41, 1.96734, 0.498176, 55.5475, -0.000976562, -0.000976562, 0.000976562, -0.0673828, 0.328125, -9.78223, 12.2.2021 17:51:10.367
42, 1.96734, 0.498176, 55.5475, -0.000976562, -0.000976562, 0, -0.0917969, 0.364258, -9.81445, 12.2.2021 17:51:10.375
43, 1.96734, 0.498176, 55.5475, 0, 0, -0.00195312, -0.0322266, 0.329102, -9.81641, 12.2.2021 17:51:10.383
44, 1.96734, 0.498176, 55.5475, 0, 0, -0.00195312, -0.105469, 0.323242, -9.7793, 12.2.2021 17:51:10.391
45, 1.96734, 0.498176, 55.5475, -0.000976562, 0, 0, -0.0908203, 0.327148, -9.77051, 12.2.2021 17:51:10.399
46, 1.9706, 0.491988, 55.5475, -0.000976562, -0.000976562, 0, -0.0673828, 0.316406, -9.79688, 12.2.2021 17:51:10.407
47, 1.9706, 0.491988, 55.5475, 0, 0, 0, -0.120117, 0.34375, -9.83105, 12.2.2021 17:51:10.415
48, 1.96441, 0.48873, 55.5477, 0, -0.000976562, 0, -0.0791016, 0.331055, -9.80566, 12.2.2021 17:51:10.423
49, 1.96441, 0.48873, 55.5477, 0, 0, 0.000976562, -0.0986328, 0.329102, -9.81543, 12.2.2021 17:51:10.431
50, 1.96441, 0.48873, 55.5477, -0.000976562, 0, 0, -0.125, 0.345703, -9.80664, 12.2.2021 17:51:10.439
51, 1.96441, 0.48873, 55.5477, 0, -0.000976562, 0, -0.0693359, 0.316406, -9.79004, 12.2.2021 17:51:10.447
52, 1.96116, 0.494917, 55.5476, -0.00195312, -0.000976562, 0, -0.112305, 0.334961, -9.7959, 12.2.2021 17:51:10.455
53, 1.96116, 0.494917, 55.5476, 0, -0.000976562, -0.00195312, -0.0908203, 0.334961, -9.79395, 12.2.2021 17:51:10.463
54, 1.96116, 0.494917, 55.5476, 0, -0.000976562, 0, -0.0820312, 0.304688, -9.81836, 12.2.2021 17:51:10.469
55, 1.96116, 0.494917, 55.5476, 0, -0.000976562, 0, -0.125, 0.347656, -9.80957, 12.2.2021 17:51:10.477
56, 1.96116, 0.494917, 55.5476, 0, -0.000976562, 0, -0.0537109, 0.289062, -9.83594, 12.2.2021 17:51:10.485
57, 1.96096, 0.495037, 55.5511, 0, 0, -0.00195312, -0.0625, 0.321289, -9.79883, 12.2.2021 17:51:10.493
58, 1.9577, 0.501224, 55.5511, 0, 0, 0, -0.100586, 0.34668, -9.78613, 12.2.2021 17:51:10.501
59, 1.95152, 0.497965, 55.5512, 0, -0.000976562, 0, -0.0302734, 0.297852, -9.8291, 12.2.2021 17:51:10.509
60, 1.95152, 0.497965, 55.5512, -0.00195312, 0, 0, -0.106445, 0.317383, -9.82422, 12.2.2021 17:51:10.517
61, 1.95152, 0.497965, 55.5512, -0.000976562, 0, 0, -0.0507812, 0.313477, -9.77832, 12.2.2021 17:51:10.525
62, 1.94533, 0.494706, 55.5514, 0, 0, -0.00195312, -0.0644531, 0.306641, -9.78027, 12.2.2021 17:51:10.533
63, 1.94533, 0.494706, 55.5514, 0, 0, 0, -0.118164, 0.342773, -9.80957, 12.2.2021 17:51:10.541
64, 1.94533, 0.494706, 55.5514, 0, 0, 0, -0.0517578, 0.338867, -9.83008, 12.2.2021 17:51:10.549
65, 1.94241, 0.48526, 55.5517, 0, 0, 0, -0.0791016, 0.335938, -9.80762, 12.2.2021 17:51:10.557
66, 1.93915, 0.491447, 55.5516, 0.000976562, 0, 0.000976562, -0.12207, 0.328125, -9.79297, 12.2.2021 17:51:10.565
67, 1.93904, 0.4913, 55.5397, 0, 0, 0.000976562, -0.0654297, 0.292969, -9.82617, 12.2.2021 17:51:10.573
68, 1.93904, 0.4913, 55.5397, -0.000976562, 0, 0, -0.117188, 0.316406, -9.79102, 12.2.2021 17:51:10.581
69, 1.93286, 0.488041, 55.5399, 0, 0, 0, -0.0722656, 0.349609, -9.78418, 12.2.2021 17:51:10.589
70, 1.93286, 0.488041, 55.5399, 0, 0, 0, -0.0683594, 0.341797, -9.84863, 12.2.2021 17:51:10.597
71, 1.93286, 0.488041, 55.5399, -0.000976562, 0, 0.000976562, -0.136719, 0.334961, -9.79102, 12.2.2021 17:51:10.605
72, 1.93286, 0.488041, 55.5399, 0, 0, 0, -0.0458984, 0.328125, -9.80176, 12.2.2021 17:51:10.613
73, 1.93286, 0.488041, 55.5399, 0, -0.000976562, 0.000976562, -0.0722656, 0.311523, -9.81152, 12.2.2021 17:51:10.621
74, 1.93286, 0.488041, 55.5399, -0.000976562, -0.000976562, 0, -0.112305, 0.334961, -9.76953, 12.2.2021 17:51:10.629
75, 1.92667, 0.484783, 55.5401, -0.00195312, 0, 0, -0.0507812, 0.308594, -9.77637, 12.2.2021 17:51:10.637
76, 1.92667, 0.484783, 55.5401, -0.000976562, 0, 0, -0.110352, 0.333008, -9.80078, 12.2.2021 17:51:10.645
77, 1.92667, 0.484783, 55.5401, 0, -0.000976562, 0, -0.0839844, 0.345703, -9.8125, 12.2.2021 17:51:10.653
78, 1.92667, 0.484783, 55.5401, -0.000976562, 0, -0.000976562, -0.0478516, 0.327148, -9.76172, 12.2.2021 17:51:10.661
79, 1.92667, 0.484783, 55.5401, 0, -0.000976562, 0, -0.136719, 0.361328, -9.79492, 12.2.2021 17:51:10.669
80, 1.92667, 0.484783, 55.5401, 0, -0.000976562, 0, -0.0791016, 0.3125, -9.7666, 12.2.2021 17:51:10.677
81, 1.92667, 0.484783, 55.5401, -0.000976562, -0.000976562, 0.000976562, -0.0771484, 0.308594, -9.79004, 12.2.2021 17:51:10.685
82, 1.92667, 0.484783, 55.5401, 0, -0.000976562, 0, -0.0927734, 0.34375, -9.7627, 12.2.2021 17:51:10.693
83, 1.92667, 0.484783, 55.5401, 0, -0.000976562, 0, -0.0371094, 0.324219, -9.83984, 12.2.2021 17:51:10.701
84, 1.92667, 0.484783, 55.5401, 0, -0.000976562, 0, -0.113281, 0.34082, -9.80273, 12.2.2021 17:51:10.709
85, 1.92667, 0.484783, 55.5401, 0, -0.000976562, 0, -0.0800781, 0.327148, -9.8291, 12.2.2021 17:51:10.717
86, 1.92667, 0.484783, 55.5401, 0, -0.000976562, 0, -0.0527344, 0.316406, -9.79004, 12.2.2021 17:51:10.725
87, 1.92667, 0.484783, 55.5401, 0, 0, -0.000976562, -0.136719, 0.333008, -9.80762, 12.2.2021 17:51:10.733
88, 1.92667, 0.484783, 55.5401, 0, 0, -0.000976562, -0.0771484, 0.328125, -9.79883, 12.2.2021 17:51:10.741
89, 1.92667, 0.484783, 55.5401, 0, -0.000976562, 0, -0.0888672, 0.335938, -9.80566, 12.2.2021 17:51:10.749
90, 1.92667, 0.484783, 55.5401, 0, -0.00195312, 0, -0.115234, 0.339844, -9.78125, 12.2.2021 17:51:10.757
91, 1.92667, 0.484783, 55.5401, 0, 0, 0, -0.0488281, 0.331055, -9.82031, 12.2.2021 17:51:10.765
92, 1.92667, 0.484783, 55.5401, -0.000976562, 0, 0, -0.0976562, 0.34375, -9.76465, 12.2.2021 17:51:10.773
93, 1.92667, 0.484783, 55.5401, 0, 0, 0.000976562, -0.0986328, 0.331055, -9.80762, 12.2.2021 17:51:10.781
94, 1.92667, 0.484783, 55.5401, 0, 0, 0, -0.0605469, 0.326172, -9.81055, 12.2.2021 17:51:10.789
95, 1.92667, 0.484783, 55.5401, 0, 0, 0, -0.136719, 0.337891, -9.81152, 12.2.2021 17:51:10.797
96, 1.92667, 0.484783, 55.5401, 0, -0.000976562, 0, -0.0605469, 0.335938, -9.80371, 12.2.2021 17:51:10.805
97, 1.92667, 0.484783, 55.5401, 0, -0.000976562, 0, -0.0761719, 0.325195, -9.76367, 12.2.2021 17:51:10.813
98, 1.92667, 0.484783, 55.5401, -0.000976562, 0, 0.000976562, -0.139648, 0.357422, -9.81348, 12.2.2021 17:51:10.821
99, 1.92667, 0.484783, 55.5401, 0, 0, 0, -0.0625, 0.326172, -9.79688, 12.2.2021 17:51:10.829
100, 1.92667, 0.484783, 55.5401, -0.000976562, -0.000976562, -0.000976562, -0.117188, 0.339844, -9.7959, 12.2.2021 17:51:10.837
101, 1.92667, 0.484783, 55.5401, -0.000976562, -0.000976562, 0, -0.09375, 0.357422, -9.81152, 12.2.2021 17:51:10.845
102, 1.92667, 0.484783, 55.5401, 0, 0, 0, -0.0634766, 0.329102, -9.81836, 12.2.2021 17:51:10.853
103, 1.92667, 0.484783, 55.5401, 0, -0.000976562, 0.000976562, -0.141602, 0.34082, -9.81641, 12.2.2021 17:51:10.861
104, 1.92667, 0.484783, 55.5401, 0, 0, 0, -0.0742188, 0.328125, -9.78906, 12.2.2021 17:51:10.869
105, 1.92667, 0.484783, 55.5401, 0, 0, 0, -0.0820312, 0.304688, -9.80371, 12.2.2021 17:51:10.877
106, 1.92667, 0.484783, 55.5401, 0, 0, 0, -0.109375, 0.325195, -9.7627, 12.2.2021 17:51:10.885
107, 1.92667, 0.484783, 55.5401, 0.000976562, 0, 0, -0.0458984, 0.326172, -9.81836, 12.2.2021 17:51:10.893
108, 1.92667, 0.484783, 55.5401, 0.000976562, 0, 0, -0.0742188, 0.339844, -9.78906, 12.2.2021 17:51:10.901
109, 1.92667, 0.484783, 55.5401, -0.000976562, 0, 0, -0.103516, 0.328125, -9.79883, 12.2.2021 17:51:10.909
110, 1.93871, 0.506933, 55.5394, 0, -0.000976562, -0.000976562, -0.0625, 0.304688, -9.79785, 12.2.2021 17:51:10.917
111, 1.93871, 0.506933, 55.5394, -0.000976562, 0, 0, -0.12793, 0.327148, -9.83789, 12.2.2021 17:51:10.925
112, 1.93871, 0.506933, 55.5394, 0, -0.000976562, -0.000976562, -0.0605469, 0.342773, -9.80566, 12.2.2021 17:51:10.933
113, 1.93871, 0.506933, 55.5394, -0.000976562, -0.000976562, 0.000976562, -0.0693359, 0.316406, -9.79199, 12.2.2021 17:51:10.941
114, 1.9449, 0.510192, 55.5392, -0.000976562, -0.000976562, -0.000976562, -0.103516, 0.337891, -9.8125, 12.2.2021 17:51:10.949
115, 1.93871, 0.506933, 55.5394, -0.000976562, 0, 0, -0.0429688, 0.303711, -9.7832, 12.2.2021 17:51:10.957
116, 1.93871, 0.506933, 55.5394, -0.000976562, 0, 0, -0.0507812, 0.313477, -9.7998, 12.2.2021 17:51:10.965
117, 1.93871, 0.506933, 55.5394, -0.000976562, 0, 0, -0.110352, 0.347656, -9.79102, 12.2.2021 17:51:10.973
118, 1.93871, 0.506933, 55.5394, -0.000976562, -0.000976562, -0.000976562, -0.0410156, 0.34668, -9.77051, 12.2.2021 17:51:10.981
119, 1.93871, 0.506933, 55.5394, 0, 0, -0.000976562, -0.107422, 0.349609, -9.7832, 12.2.2021 17:51:10.989
120, 1.94197, 0.500746, 55.5395, -0.000976562, -0.000976562, -0.000976562, -0.0722656, 0.320312, -9.77344, 12.2.2021 17:51:10.997
121, 1.94197, 0.500746, 55.5395, -0.000976562, -0.00195312, -0.000976562, -0.0625, 0.310547, -9.77344, 12.2.2021 17:51:11.005
122, 1.94197, 0.500746, 55.5395, -0.000976562, -0.000976562, -0.000976562, -0.136719, 0.349609, -9.80469, 12.2.2021 17:51:11.013
123, 1.94197, 0.500746, 55.5395, 0, -0.000976562, -0.000976562, -0.0195312, 0.308594, -9.79102, 12.2.2021 17:51:11.021
124, 1.94197, 0.500746, 55.5395, 0, -0.00195312, -0.000976562, -0.100586, 0.325195, -9.7793, 12.2.2021 17:51:11.029
125, 1.94197, 0.500746, 55.5395, -0.000976562, -0.000976562, -0.00195312, -0.106445, 0.345703, -9.82617, 12.2.2021 17:51:11.037
126, 1.94197, 0.500746, 55.5395, -0.000976562, 0, 0, -0.0195312, 0.313477, -9.7959, 12.2.2021 17:51:11.045
127, 1.93904, 0.4913, 55.5397, 0, 0, 0.000976562, -0.129883, 0.333008, -9.80273, 12.2.2021 17:51:11.053
128, 1.93904, 0.4913, 55.5397, 0, -0.000976562, -0.000976562, -0.0976562, 0.330078, -9.77441, 12.2.2021 17:51:11.061
129, 1.93904, 0.4913, 55.5397, 0, -0.00195312, -0.000976562, -0.0595703, 0.330078, -9.77344, 12.2.2021 17:51:11.069
130, 1.93904, 0.4913, 55.5397, 0.000976562, -0.000976562, -0.000976562, -0.130859, 0.327148, -9.75977, 12.2.2021 17:51:11.077
131, 1.93904, 0.4913, 55.5397, 0, 0, -0.00195312, -0.0478516, 0.320312, -9.77637, 12.2.2021 17:51:11.085
132, 1.93904, 0.4913, 55.5397, -0.000976562, 0, 0, -0.0869141, 0.345703, -9.83105, 12.2.2021 17:51:11.093
133, 1.93904, 0.4913, 55.5397, -0.00292969, 0, 0, -0.0888672, 0.351562, -9.78418, 12.2.2021 17:51:11.101
134, 1.93904, 0.4913, 55.5397, -0.000976562, -0.000976562, -0.000976562, -0.0458984, 0.323242, -9.79688, 12.2.2021 17:51:11.109
135, 1.93904, 0.4913, 55.5397, -0.000976562, 0, 0, -0.117188, 0.341797, -9.78125, 12.2.2021 17:51:11.117
136, 1.93904, 0.4913, 55.5397, -0.000976562, 0, 0, -0.101562, 0.333984, -9.8291, 12.2.2021 17:51:11.125
137, 1.93904, 0.4913, 55.5397, -0.000976562, 0, -0.00195312, -0.0673828, 0.34082, -9.80566, 12.2.2021 17:51:11.133
138, 1.93904, 0.4913, 55.5397, 0, -0.000976562, -0.00195312, -0.138672, 0.363281, -9.77539, 12.2.2021 17:51:11.141
139, 1.94523, 0.494558, 55.5396, 0, 0, -0.000976562, -0.0576172, 0.353516, -9.77441, 12.2.2021 17:51:11.149
140, 1.94848, 0.488371, 55.5396, -0.000976562, 0, 0, -0.0986328, 0.326172, -9.80566, 12.2.2021 17:51:11.157
141, 1.94848, 0.488371, 55.5396, -0.000976562, 0, 0, -0.0966797, 0.34082, -9.82227, 12.2.2021 17:51:11.165
142, 1.94848, 0.488371, 55.5396, -0.000976562, 0, 0, -0.00878906, 0.3125, -9.83301, 12.2.2021 17:51:11.173
143, 1.94848, 0.488371, 55.5396, 0, -0.000976562, 0, -0.121094, 0.34668, -9.85156, 12.2.2021 17:51:11.181
144, 1.94848, 0.488371, 55.5396, 0, 0, 0, -0.0791016, 0.347656, -9.7959, 12.2.2021 17:51:11.189
145, 1.94848, 0.488371, 55.5396, -0.000976562, 0, 0.000976562, -0.0693359, 0.342773, -9.78906, 12.2.2021 17:51:11.197
146, 1.94848, 0.488371, 55.5396, -0.000976562, -0.000976562, 0, -0.133789, 0.334961, -9.78613, 12.2.2021 17:51:11.205
147, 1.94848, 0.488371, 55.5396, -0.000976562, -0.000976562, 0, -0.0644531, 0.327148, -9.77734, 12.2.2021 17:51:11.213
148, 1.94848, 0.488371, 55.5396, 0, 0.000976562, 0, -0.0751953, 0.333984, -9.83887, 12.2.2021 17:51:11.221
149, 1.94848, 0.488371, 55.5396, 0, 0, 0.000976562, -0.12207, 0.328125, -9.78613, 12.2.2021 17:51:11.229
150, 1.94848, 0.488371, 55.5396, 0, 0, 0, -0.0410156, 0.301758, -9.80273, 12.2.2021 17:51:11.237
151, 1.94848, 0.488371, 55.5396, 0, 0, 0, -0.104492, 0.322266, -9.76074, 12.2.2021 17:51:11.245
152, 1.94848, 0.488371, 55.5396, -0.000976562, 0, 0, -0.0810547, 0.333008, -9.78223, 12.2.2021 17:51:11.253
153, 1.94848, 0.488371, 55.5396, -0.000976562, -0.000976562, 0, -0.0683594, 0.298828, -9.83984, 12.2.2021 17:51:11.261
154, 1.94848, 0.488371, 55.5396, -0.000976562, 0, -0.000976562, -0.113281, 0.327148, -9.82617, 12.2.2021 17:51:11.269
155, 1.94848, 0.488371, 55.5396, -0.000976562, -0.000976562, 0, -0.0585938, 0.331055, -9.82227, 12.2.2021 17:51:11.277
156, 1.94848, 0.488371, 55.5396, 0, -0.000976562, 0, -0.0849609, 0.325195, -9.8457, 12.2.2021 17:51:11.285
157, 1.94848, 0.488371, 55.5396, 0, -0.000976562, 0, -0.110352, 0.337891, -9.78906, 12.2.2021 17:51:11.293
158, 1.9423, 0.485112, 55.5398, -0.000976562, -0.000976562, 0, -0.0537109, 0.311523, -9.80469, 12.2.2021 17:51:11.301
159, 1.9423, 0.485112, 55.5398, -0.000976562, 0, 0.000976562, -0.120117, 0.354492, -9.80176, 12.2.2021 17:51:11.309
160, 1.9423, 0.485112, 55.5398, -0.000976562, -0.000976562, 0, -0.0888672, 0.34375, -9.82422, 12.2.2021 17:51:11.317
161, 1.9423, 0.485112, 55.5398, 0, -0.000976562, 0, -0.0585938, 0.328125, -9.81055, 12.2.2021 17:51:11.325
162, 1.9423, 0.485112, 55.5398, -0.000976562, -0.000976562, 0, -0.125, 0.342773, -9.80469, 12.2.2021 17:51:11.333
163, 1.9423, 0.485112, 55.5398, -0.000976562, -0.000976562, 0, -0.0527344, 0.330078, -9.76855, 12.2.2021 17:51:11.341
164, 1.9423, 0.485112, 55.5398, -0.000976562, -0.000976562, 0, -0.0839844, 0.334961, -9.79883, 12.2.2021 17:51:11.349
165, 1.9423, 0.485112, 55.5398, 0, 0, 0, -0.0878906, 0.358398, -9.7627, 12.2.2021 17:51:11.357
166, 1.9423, 0.485112, 55.5398, -0.000976562, 0, 0, -0.0322266, 0.337891, -9.80176, 12.2.2021 17:51:11.365
167, 1.9423, 0.485112, 55.5398, -0.000976562, 0, 0, -0.09375, 0.333008, -9.81055, 12.2.2021 17:51:11.373
168, 1.9423, 0.485112, 55.5398, 0, -0.000976562, 0, -0.0839844, 0.328125, -9.78906, 12.2.2021 17:51:11.381
169, 1.9423, 0.485112, 55.5398, -0.000976562, 0, 0, -0.0302734, 0.316406, -9.87598, 12.2.2021 17:51:11.389
170, 1.9423, 0.485112, 55.5398, 0, -0.000976562, -0.00195312, -0.118164, 0.365234, -9.84668, 12.2.2021 17:51:11.397
171, 1.94555, 0.478925, 55.5399, 0, 0, 0.000976562, -0.0605469, 0.334961, -9.79199, 12.2.2021 17:51:11.405
172, 1.94555, 0.478925, 55.5399, 0.000976562, 0, 0.000976562, -0.078125, 0.338867, -9.83887, 12.2.2021 17:51:11.413
173, 1.94555, 0.478925, 55.5399, -0.000976562, -0.000976562, 0.000976562, -0.12207, 0.344727, -9.79492, 12.2.2021 17:51:11.419
174, 1.94555, 0.478925, 55.5399, 0, -0.000976562, 0, -0.0419922, 0.307617, -9.83496, 12.2.2021 17:51:11.429
175, 1.94555, 0.478925, 55.5399, -0.000976562, 0.000976562, 0, -0.102539, 0.339844, -9.78125, 12.2.2021 17:51:11.435
176, 1.94555, 0.478925, 55.5399, 0, 0, 0, -0.0771484, 0.34082, -9.82422, 12.2.2021 17:51:11.443
177, 1.94555, 0.478925, 55.5399, 0, 0, 0, -0.0341797, 0.299805, -9.82129, 12.2.2021 17:51:11.451
178, 1.94881, 0.472737, 55.54, 0, -0.000976562, 0, -0.12207, 0.334961, -9.78809, 12.2.2021 17:51:11.459
179, 1.94881, 0.472737, 55.54, 0, -0.000976562, -0.000976562, -0.0722656, 0.316406, -9.81836, 12.2.2021 17:51:11.467
180, 1.94881, 0.472737, 55.54, 0, 0, -0.000976562, -0.0673828, 0.314453, -9.80176, 12.2.2021 17:51:11.475
181, 1.94263, 0.469479, 55.5401, 0, 0, -0.000976562, -0.100586, 0.336914, -9.76758, 12.2.2021 17:51:11.483
182, 1.94263, 0.469479, 55.5401, 0, -0.000976562, -0.000976562, -0.0302734, 0.324219, -9.82617, 12.2.2021 17:51:11.491
183, 1.94263, 0.469479, 55.5401, 0.000976562, 0, -0.000976562, -0.0800781, 0.350586, -9.83398, 12.2.2021 17:51:11.499
184, 1.94263, 0.469479, 55.5401, 0.000976562, 0, -0.000976562, -0.12207, 0.354492, -9.79785, 12.2.2021 17:51:11.507
185, 1.94263, 0.469479, 55.5401, -0.000976562, 0, -0.000976562, -0.0341797, 0.329102, -9.81641, 12.2.2021 17:51:11.515
186, 1.94263, 0.469479, 55.5401, -0.000976562, 0, -0.000976562, -0.139648, 0.341797, -9.83789, 12.2.2021 17:51:11.523
187, 1.94263, 0.469479, 55.5401, -0.000976562, -0.000976562, -0.000976562, -0.0722656, 0.337891, -9.78711, 12.2.2021 17:51:11.531
188, 1.94263, 0.469479, 55.5401, -0.000976562, 0, -0.000976562, -0.0722656, 0.316406, -9.80664, 12.2.2021 17:51:11.539
189, 1.94263, 0.469479, 55.5401, 0, -0.000976562, -0.000976562, -0.134766, 0.345703, -9.81445, 12.2.2021 17:51:11.547
190, 1.94263, 0.469479, 55.5401, 0, 0, -0.000976562, -0.0507812, 0.323242, -9.80176, 12.2.2021 17:51:11.555
191, 1.94263, 0.469479, 55.5401, -0.000976562, 0, -0.000976562, -0.0761719, 0.330078, -9.77246, 12.2.2021 17:51:11.563
192, 1.94263, 0.469479, 55.5401, 0, 0.000976562, -0.000976562, -0.107422, 0.359375, -9.78809, 12.2.2021 17:51:11.571
193, 1.94263, 0.469479, 55.5401, 0.000976562, 0, 0, -0.0654297, 0.311523, -9.81348, 12.2.2021 17:51:11.579
194, 1.94263, 0.469479, 55.5401, 0, -0.000976562, 0, -0.12207, 0.334961, -9.78809, 12.2.2021 17:51:11.587
195, 1.94263, 0.469479, 55.5401, 0, -0.000976562, -0.000976562, -0.0908203, 0.323242, -9.79199, 12.2.2021 17:51:11.595
196, 1.94263, 0.469479, 55.5401, -0.000976562, 0, -0.000976562, -0.0605469, 0.294922, -9.81152, 12.2.2021 17:51:11.603
197, 1.94263, 0.469479, 55.5401, -0.000976562, 0, -0.000976562, -0.120117, 0.336914, -9.83301, 12.2.2021 17:51:11.611
198, 1.94263, 0.469479, 55.5401, -0.000976562, -0.000976562, -0.00195312, -0.03125, 0.325195, -9.78809, 12.2.2021 17:51:11.619
199, 1.94263, 0.469479, 55.5401, -0.000976562, -0.000976562, -0.000976562, -0.0742188, 0.337891, -9.80078, 12.2.2021 17:51:11.627
200, 1.94263, 0.469479, 55.5401, -0.000976562, -0.000976562, -0.000976562, -0.0898438, 0.331055, -9.82715, 12.2.2021 17:51:11.635
201, 1.94263, 0.469479, 55.5401, 0, -0.000976562, -0.000976562, -0.0253906, 0.324219, -9.8418, 12.2.2021 17:51:11.643
202, 1.94263, 0.469479, 55.5401, -0.000976562, -0.000976562, -0.000976562, -0.0859375, 0.363281, -9.7666, 12.2.2021 17:51:11.651
203, 1.94263, 0.469479, 55.5401, 0, -0.000976562, 0, -0.0751953, 0.324219, -9.81348, 12.2.2021 17:51:11.659
204, 1.94263, 0.469479, 55.5401, -0.000976562, -0.000976562, -0.000976562, -0.0791016, 0.330078, -9.79199, 12.2.2021 17:51:11.667
205, 1.94263, 0.469479, 55.5401, -0.000976562, -0.000976562, -0.000976562, -0.133789, 0.356445, -9.78027, 12.2.2021 17:51:11.675
206, 1.94494, 0.46781, 54.1557, 0, -0.000976562, -0.000976562, -0.0478516, 0.337891, -9.79199, 12.2.2021 17:51:11.683
207, 1.94085, 0.471102, 53.6148, 0, -0.000976562, -0.00195312, -0.0595703, 0.325195, -9.78027, 12.2.2021 17:51:11.691
208, 1.93897, 0.472315, 53.3183, 0, -0.000976562, -0.000976562, -0.0869141, 0.339844, -9.7959, 12.2.2021 17:51:11.699
209, 1.93975, 0.469138, 53.1308, -0.000976562, 0, 0, -0.0371094, 0.30957, -9.81152, 12.2.2021 17:51:11.707
210, 1.94026, 0.467021, 53.0056, -0.000976562, 0, -0.000976562, -0.0957031, 0.34082, -9.80566, 12.2.2021 17:51:11.715
211, 1.94045, 0.465552, 52.9154, 0, 0, -0.000976562, -0.0957031, 0.336914, -9.75586, 12.2.2021 17:51:11.723
212, 1.9407, 0.464493, 52.8528, 0, -0.000976562, -0.000976562, -0.0527344, 0.323242, -9.7998, 12.2.2021 17:51:11.731
213, 1.94088, 0.463699, 52.8057, -0.000976562, 0, -0.000976562, -0.125, 0.34375, -9.81934, 12.2.2021 17:51:11.739
214, 1.94119, 0.463051, 52.7706, 0, -0.000976562, -0.000976562, -0.0585938, 0.324219, -9.8252, 12.2.2021 17:51:11.747
215, 1.94131, 0.462522, 52.7392, 0, 0, -0.000976562, -0.0966797, 0.331055, -9.82227, 12.2.2021 17:51:11.755
216, 1.94124, 0.462111, 52.7117, 0, -0.000976562, -0.000976562, -0.125, 0.34082, -9.80469, 12.2.2021 17:51:11.763
217, 1.93838, 0.467994, 52.6921, -0.000976562, 0, 0, -0.0556641, 0.321289, -9.7998, 12.2.2021 17:51:11.771
218, 1.93832, 0.467584, 52.6646, 0, 0, 0, -0.112305, 0.366211, -9.79004, 12.2.2021 17:51:11.779
219, 1.93857, 0.467201, 52.6451, -0.000976562, 0, -0.000976562, -0.0966797, 0.364258, -9.80957, 12.2.2021 17:51:11.787
220, 1.93863, 0.466937, 52.6294, 0, 0, -0.00195312, -0.0693359, 0.313477, -9.79004, 12.2.2021 17:51:11.795
221, 1.9385, 0.466791, 52.6175, 0, 0, -0.000976562, -0.138672, 0.366211, -9.78223, 12.2.2021 17:51:11.803
222, 1.93856, 0.466527, 52.6018, 0, 0, -0.00195312, -0.0605469, 0.333008, -9.79199, 12.2.2021 17:51:11.811
223, 1.93875, 0.466408, 52.598, 0.000976562, -0.00195312, -0.000976562, -0.0820312, 0.308594, -9.79004, 12.2.2021 17:51:11.819
224, 1.94489, 0.469361, 52.5859, 0, -0.000976562, -0.000976562, -0.12793, 0.34375, -9.82812, 12.2.2021 17:51:11.827
225, 1.94526, 0.469123, 52.5783, 0, -0.000976562, -0.000976562, -0.0390625, 0.335938, -9.83008, 12.2.2021 17:51:11.835
226, 1.94513, 0.468977, 52.5664, -0.000976562, -0.000976562, -0.00195312, -0.131836, 0.347656, -9.80957, 12.2.2021 17:51:11.843
227, 1.94532, 0.468858, 52.5626, -0.000976562, -0.00195312, -0.000976562, -0.0888672, 0.341797, -9.78613, 12.2.2021 17:51:11.851
228, 1.94519, 0.468712, 52.5507, -0.000976562, -0.00195312, -0.000976562, -0.0429688, 0.322266, -9.76855, 12.2.2021 17:51:11.859
229, 1.94507, 0.468566, 52.5388, -0.000976562, -0.00195312, 0, -0.131836, 0.337891, -9.7832, 12.2.2021 17:51:11.867
230, 1.94525, 0.468446, 52.535, 0, -0.000976562, -0.000976562, -0.0527344, 0.342773, -9.79395, 12.2.2021 17:51:11.875
231, 1.94204, 0.474572, 52.523, 0, -0.000976562, -0.000976562, -0.0673828, 0.331055, -9.80176, 12.2.2021 17:51:11.883
232, 1.94222, 0.474453, 52.5192, 0, -0.000976562, -0.00195312, -0.113281, 0.333984, -9.81738, 12.2.2021 17:51:11.891
233, 1.94222, 0.474453, 52.5192, 0, 0, -0.000976562, -0.0205078, 0.311523, -9.81934, 12.2.2021 17:51:11.899
234, 1.94867, 0.477427, 52.5152, -0.000976562, 0.000976562, -0.000976562, -0.105469, 0.342773, -9.81641, 12.2.2021 17:51:11.907
235, 1.94837, 0.477401, 52.5072, 0, -0.000976562, -0.00195312, -0.0869141, 0.304688, -9.80176, 12.2.2021 17:51:11.915
236, 1.94855, 0.477281, 52.5033, -0.000976562, -0.00195312, -0.000976562, -0.0371094, 0.270508, -9.85547, 12.2.2021 17:51:11.923
237, 1.94855, 0.477281, 52.5033, -0.000976562, -0.00195312, -0.000976562, -0.134766, 0.34375, -9.84473, 12.2.2021 17:51:11.931
238, 1.94855, 0.477281, 52.5033, 0, -0.000976562, -0.00195312, -0.0693359, 0.359375, -9.79785, 12.2.2021 17:51:11.939
239, 1.94855, 0.477281, 52.5033, 0, -0.000976562, 0, -0.09375, 0.333008, -9.80078, 12.2.2021 17:51:11.947
240, 1.94855, 0.477281, 52.5033, -0.000976562, -0.000976562, 0, -0.124023, 0.361328, -9.77637, 12.2.2021 17:51:11.955
241, 1.94873, 0.477162, 52.4995, 0, -0.000976562, 0.000976562, -0.0488281, 0.311523, -9.79785, 12.2.2021 17:51:11.963
242, 1.94843, 0.477135, 52.4915, 0, -0.000976562, 0, -0.0791016, 0.34082, -9.80762, 12.2.2021 17:51:11.971
243, 1.94843, 0.477135, 52.4915, 0, -0.000976562, 0, -0.0898438, 0.367188, -9.82812, 12.2.2021 17:51:11.979
244, 1.94861, 0.477016, 52.4876, -0.000976562, -0.000976562, -0.000976562, -0.0507812, 0.334961, -9.77539, 12.2.2021 17:51:11.987
245, 1.94861, 0.477016, 52.4876, 0, -0.000976562, -0.00195312, -0.09375, 0.364258, -9.80273, 12.2.2021 17:51:11.995
246, 1.9488, 0.476896, 52.4838, -0.000976562, -0.000976562, -0.000976562, -0.0507812, 0.329102, -9.81543, 12.2.2021 17:51:12.003
247, 1.94849, 0.47687, 52.4757, 0, 0, 0, -0.0742188, 0.334961, -9.79395, 12.2.2021 17:51:12.011
248, 1.94867, 0.47675, 52.4719, 0, 0, 0, -0.0986328, 0.349609, -9.7998, 12.2.2021 17:51:12.019
249, 1.94867, 0.47675, 52.4719, 0, 0, 0, -0.00585938, 0.329102, -9.82324, 12.2.2021 17:51:12.027
250, 1.94855, 0.476604, 52.46, 0.000976562, -0.000976562, 0, -0.0771484, 0.316406, -9.80859, 12.2.2021 17:51:12.035
251, 1.94873, 0.476485, 52.4562, -0.000976562, -0.00195312, 0, -0.0957031, 0.306641, -9.79395, 12.2.2021 17:51:12.043
252, 1.94873, 0.476485, 52.4562, 0, -0.000976562, -0.00195312, -0.0673828, 0.335938, -9.80859, 12.2.2021 17:51:12.051
253, 1.94892, 0.476365, 52.4524, -0.000976562, -0.000976562, 0, -0.143555, 0.342773, -9.80469, 12.2.2021 17:51:12.059
254, 1.94892, 0.476365, 52.4524, 0, -0.000976562, 0, -0.0898438, 0.34668, -9.8457, 12.2.2021 17:51:12.067
255, 1.94892, 0.476365, 52.4524, 0, 0, 0, -0.0585938, 0.314453, -9.83496, 12.2.2021 17:51:12.075
256, 1.94892, 0.476365, 52.4524, 0, -0.000976562, 0, -0.12793, 0.325195, -9.84766, 12.2.2021 17:51:12.083
257, 1.94892, 0.476365, 52.4524, -0.000976562, -0.000976562, 0, -0.0292969, 0.296875, -9.80762, 12.2.2021 17:51:12.091
258, 1.94892, 0.476365, 52.4524, 0, 0, 0, -0.0957031, 0.341797, -9.75293, 12.2.2021 17:51:12.099
259, 1.94892, 0.476365, 52.4524, 0, -0.000976562, -0.00195312, -0.103516, 0.349609, -9.79102, 12.2.2021 17:51:12.107
260, 1.94892, 0.476365, 52.4524, 0, -0.000976562, 0, -0.0390625, 0.3125, -9.82324, 12.2.2021 17:51:12.115
261, 1.94892, 0.476365, 52.4524, 0, 0, -0.000976562, -0.144531, 0.345703, -9.82324, 12.2.2021 17:51:12.123
262, 1.94892, 0.476365, 52.4524, 0, -0.000976562, 0.000976562, -0.0605469, 0.335938, -9.81055, 12.2.2021 17:51:12.131
263, 1.94892, 0.476365, 52.4524, 0, -0.000976562, 0, -0.0654297, 0.3125, -9.83008, 12.2.2021 17:51:12.139
264, 1.94861, 0.476339, 52.4443, 0, -0.000976562, 0, -0.136719, 0.357422, -9.80664, 12.2.2021 17:51:12.147
265, 1.94861, 0.476339, 52.4443, 0, -0.000976562, 0, -0.0390625, 0.321289, -9.81152, 12.2.2021 17:51:12.155
266, 1.94861, 0.476339, 52.4443, -0.000976562, -0.000976562, 0, -0.0800781, 0.322266, -9.82227, 12.2.2021 17:51:12.163
267, 1.94879, 0.476219, 52.4405, -0.000976562, -0.000976562, -0.000976562, -0.102539, 0.351562, -9.78125, 12.2.2021 17:51:12.171
268, 1.94879, 0.476219, 52.4405, 0, -0.00195312, 0.000976562, -0.0273438, 0.296875, -9.80566, 12.2.2021 17:51:12.179
269, 1.94879, 0.476219, 52.4405, 0, -0.000976562, 0, -0.120117, 0.326172, -9.80762, 12.2.2021 17:51:12.187
270, 1.94879, 0.476219, 52.4405, -0.000976562, 0, 0, -0.0605469, 0.31543, -9.7832, 12.2.2021 17:51:12.195
271, 1.94879, 0.476219, 52.4405, -0.000976562, 0, 0, -0.0625, 0.333008, -9.80371, 12.2.2021 17:51:12.203
272, 1.94879, 0.476219, 52.4405, -0.000976562, 0, 0, -0.140625, 0.336914, -9.75781, 12.2.2021 17:51:12.211
273, 1.94879, 0.476219, 52.4405, -0.000976562, -0.000976562, 0, -0.03125, 0.318359, -9.77637, 12.2.2021 17:51:12.219
274, 1.94879, 0.476219, 52.4405, 0, -0.000976562, 0, -0.0908203, 0.334961, -9.77734, 12.2.2021 17:51:12.227
275, 1.94898, 0.4761, 52.4367, -0.000976562, -0.000976562, 0, -0.117188, 0.344727, -9.79102, 12.2.2021 17:51:12.235
276, 1.94898, 0.4761, 52.4367, -0.000976562, -0.000976562, 0, -0.0488281, 0.3125, -9.82324, 12.2.2021 17:51:12.243
277, 1.94898, 0.4761, 52.4367, -0.000976562, 0, 0, -0.09375, 0.316406, -9.79395, 12.2.2021 17:51:12.251
278, 1.94898, 0.4761, 52.4367, -0.000976562, -0.000976562, -0.000976562, -0.0791016, 0.337891, -9.80371, 12.2.2021 17:51:12.259
279, 1.94867, 0.476073, 52.4286, -0.000976562, -0.00195312, 0, -0.0390625, 0.321289, -9.80957, 12.2.2021 17:51:12.267
280, 1.94867, 0.476073, 52.4286, 0, 0, 0, -0.105469, 0.357422, -9.81152, 12.2.2021 17:51:12.275
281, 1.94885, 0.475954, 52.4248, -0.000976562, 0, 0, -0.0332031, 0.34375, -9.76562, 12.2.2021 17:51:12.283
282, 1.94885, 0.475954, 52.4248, 0, -0.000976562, -0.000976562, -0.0634766, 0.319336, -9.83203, 12.2.2021 17:51:12.291
283, 1.94885, 0.475954, 52.4248, 0, 0, -0.000976562, -0.112305, 0.339844, -9.77637, 12.2.2021 17:51:12.299
284, 1.94885, 0.475954, 52.4248, 0, -0.000976562, 0, -0.0351562, 0.317383, -9.83496, 12.2.2021 17:51:12.307
285, 1.94885, 0.475954, 52.4248, 0, -0.000976562, 0, -0.0839844, 0.325195, -9.78223, 12.2.2021 17:51:12.315
286, 1.94885, 0.475954, 52.4248, 0, 0, 0, -0.0625, 0.337891, -9.80859, 12.2.2021 17:51:12.323
287, 1.94885, 0.475954, 52.4248, 0, 0, 0, -0.0292969, 0.316406, -9.79297, 12.2.2021 17:51:12.331
288, 1.94258, 0.472865, 52.425, 0, -0.000976562, 0, -0.110352, 0.337891, -9.80762, 12.2.2021 17:51:12.339
289, 1.94258, 0.472865, 52.425, -0.000976562, 0, 0, -0.0625, 0.320312, -9.78711, 12.2.2021 17:51:12.347
290, 1.94567, 0.466591, 52.425, 0, 0, 0, -0.0771484, 0.320312, -9.78711, 12.2.2021 17:51:12.355
291, 1.94567, 0.466591, 52.425, 0, 0, 0, -0.115234, 0.348633, -9.82324, 12.2.2021 17:51:12.363
292, 1.94567, 0.466591, 52.425, 0, 0, 0, -0.0205078, 0.355469, -9.84375, 12.2.2021 17:51:12.371
293, 1.94567, 0.466591, 52.425, -0.000976562, -0.000976562, -0.000976562, -0.09375, 0.342773, -9.81934, 12.2.2021 17:51:12.377
294, 1.94567, 0.466591, 52.425, -0.000976562, -0.000976562, 0, -0.0693359, 0.318359, -9.79199, 12.2.2021 17:51:12.385
295, 1.94567, 0.466591, 52.425, -0.000976562, -0.000976562, 0.000976562, -0.0371094, 0.270508, -9.80371, 12.2.2021 17:51:12.393
296, 1.94567, 0.466591, 52.425, 0, -0.000976562, 0, -0.129883, 0.328125, -9.80078, 12.2.2021 17:51:12.401
297, 1.94567, 0.466591, 52.425, 0, -0.000976562, 0.000976562, -0.0742188, 0.337891, -9.79883, 12.2.2021 17:51:12.409
298, 1.94567, 0.466591, 52.425, 0, -0.00195312, -0.00195312, -0.0693359, 0.333984, -9.76367, 12.2.2021 17:51:12.417
299, 1.94567, 0.466591, 52.425, 0, -0.00195312, 0, -0.107422, 0.352539, -9.79297, 12.2.2021 17:51:12.425
300, 1.94567, 0.466591, 52.425, -0.000976562, -0.00195312, 0, -0.0488281, 0.317383, -9.83691, 12.2.2021 17:51:12.433
301, 1.94567, 0.466591, 52.425, -0.000976562, -0.000976562, 0, -0.115234, 0.314453, -9.82227, 12.2.2021 17:51:12.441
302, 1.94567, 0.466591, 52.425, -0.000976562, 0, 0, -0.0791016, 0.341797, -9.78418, 12.2.2021 17:51:12.449
303, 1.94567, 0.466591, 52.425, -0.000976562, 0, -0.000976562, -0.0390625, 0.3125, -9.82324, 12.2.2021 17:51:12.457
304, 1.94567, 0.466591, 52.425, 0, -0.000976562, -0.00195312, -0.103516, 0.369141, -9.81836, 12.2.2021 17:51:12.465
305, 1.94567, 0.466591, 52.425, 0, -0.000976562, 0, -0.0742188, 0.34668, -9.77246, 12.2.2021 17:51:12.473
306, 1.94567, 0.466591, 52.425, -0.000976562, -0.000976562, -0.000976562, -0.0664062, 0.334961, -9.85059, 12.2.2021 17:51:12.481
307, 1.94549, 0.46671, 52.4289, 0, -0.000976562, 0, -0.131836, 0.328125, -9.78125, 12.2.2021 17:51:12.489
308, 1.94549, 0.46671, 52.4289, 0, -0.000976562, 0, -0.0634766, 0.290039, -9.81641, 12.2.2021 17:51:12.497
309, 1.94549, 0.46671, 52.4289, 0, -0.000976562, -0.00195312, -0.115234, 0.290039, -9.80664, 12.2.2021 17:51:12.505
310, 1.94579, 0.466737, 52.4369, -0.000976562, -0.000976562, -0.000976562, -0.100586, 0.326172, -9.80078, 12.2.2021 17:51:12.513
311, 1.94579, 0.466737, 52.4369, -0.000976562, 0, 0, -0.0488281, 0.301758, -9.79785, 12.2.2021 17:51:12.521
312, 1.93934, 0.463766, 52.4409, 0, -0.000976562, -0.00195312, -0.104492, 0.34082, -9.74805, 12.2.2021 17:51:12.529
313, 1.93934, 0.463766, 52.4409, 0, -0.00195312, 0, -0.0703125, 0.349609, -9.80078, 12.2.2021 17:51:12.537
314, 1.93934, 0.463766, 52.4409, 0, -0.000976562, 0, -0.0869141, 0.3125, -9.83887, 12.2.2021 17:51:12.545
315, 1.93934, 0.463766, 52.4409, -0.000976562, -0.000976562, 0, -0.114258, 0.34668, -9.75488, 12.2.2021 17:51:12.553
316, 1.93934, 0.463766, 52.4409, -0.000976562, -0.000976562, 0, -0.0439453, 0.332031, -9.83496, 12.2.2021 17:51:12.561
317, 1.93934, 0.463766, 52.4409, -0.000976562, -0.000976562, 0, -0.0488281, 0.306641, -9.80957, 12.2.2021 17:51:12.569
318, 1.93934, 0.463766, 52.4409, -0.000976562, -0.000976562, 0, -0.0957031, 0.341797, -9.78613, 12.2.2021 17:51:12.577
319, 1.93934, 0.463766, 52.4409, -0.000976562, -0.000976562, 0, -0.0644531, 0.316406, -9.78711, 12.2.2021 17:51:12.585
320, 1.93934, 0.463766, 52.4409, -0.000976562, 0, -0.000976562, -0.123047, 0.369141, -9.81836, 12.2.2021 17:51:12.593
321, 1.93934, 0.463766, 52.4409, 0, -0.000976562, 0, -0.0859375, 0.34668, -9.78906, 12.2.2021 17:51:12.601
322, 1.93916, 0.463885, 52.4448, 0, -0.000976562, 0, -0.0693359, 0.310547, -9.77539, 12.2.2021 17:51:12.609
323, 1.93916, 0.463885, 52.4448, 0, 0, 0, -0.107422, 0.347656, -9.79102, 12.2.2021 17:51:12.617
324, 1.93916, 0.463885, 52.4448, -0.000976562, -0.000976562, 0, -0.0458984, 0.328125, -9.80859, 12.2.2021 17:51:12.625
325, 1.93946, 0.463912, 52.4528, 0, -0.000976562, -0.00195312, -0.0830078, 0.320312, -9.86523, 12.2.2021 17:51:12.633
326, 1.93928, 0.46403, 52.4566, -0.000976562, -0.000976562, 0, -0.0849609, 0.341797, -9.83887, 12.2.2021 17:51:12.641
327, 1.93928, 0.46403, 52.4566, -0.000976562, -0.000976562, -0.000976562, -0.0107422, 0.300781, -9.84082, 12.2.2021 17:51:12.649
328, 1.93928, 0.46403, 52.4566, -0.00195312, -0.000976562, 0, -0.103516, 0.338867, -9.84082, 12.2.2021 17:51:12.657
329, 1.93928, 0.46403, 52.4566, 0, 0, -0.000976562, -0.0761719, 0.327148, -9.76855, 12.2.2021 17:51:12.665
330, 1.9391, 0.464149, 52.4605, -0.000976562, 0, 0, -0.0585938, 0.302734, -9.81445, 12.2.2021 17:51:12.673
331, 1.9391, 0.464149, 52.4605, -0.000976562, 0, 0, -0.112305, 0.344727, -9.7832, 12.2.2021 17:51:12.681
332, 1.9391, 0.464149, 52.4605, 0, 0, 0, -0.0341797, 0.331055, -9.80859, 12.2.2021 17:51:12.689
333, 1.9391, 0.464149, 52.4605, 0.000976562, -0.000976562, 0, -0.0625, 0.318359, -9.78027, 12.2.2021 17:51:12.697
334, 1.9391, 0.464149, 52.4605, 0, -0.000976562, 0, -0.09375, 0.316406, -9.79395, 12.2.2021 17:51:12.705
335, 1.9391, 0.464149, 52.4605, -0.000976562, 0, -0.000976562, -0.03125, 0.316406, -9.79297, 12.2.2021 17:51:12.713
336, 1.9391, 0.464149, 52.4605, -0.000976562, 0, 0.000976562, -0.129883, 0.329102, -9.81445, 12.2.2021 17:51:12.721
337, 1.9391, 0.464149, 52.4605, 0, -0.000976562, 0, -0.0703125, 0.34082, -9.82031, 12.2.2021 17:51:12.729
338, 1.9391, 0.464149, 52.4605, -0.000976562, 0, 0, -0.0556641, 0.333984, -9.82227, 12.2.2021 17:51:12.737
339, 1.9391, 0.464149, 52.4605, 0, 0, 0, -0.128906, 0.358398, -9.77148, 12.2.2021 17:51:12.745
340, 1.9391, 0.464149, 52.4605, 0, 0, -0.000976562, -0.0517578, 0.310547, -9.83789, 12.2.2021 17:51:12.753
341, 1.93592, 0.454785, 52.4607, 0, 0, 0, -0.0654297, 0.319336, -9.82324, 12.2.2021 17:51:12.761
342, 1.93592, 0.454785, 52.4607, 0, -0.000976562, 0.000976562, -0.125, 0.347656, -9.79492, 12.2.2021 17:51:12.769
343, 1.93283, 0.461058, 52.4606, 0, -0.000976562, 0, -0.0410156, 0.316406, -9.79492, 12.2.2021 17:51:12.777
344, 1.93283, 0.461058, 52.4606, 0, 0, 0, -0.110352, 0.323242, -9.80273, 12.2.2021 17:51:12.785
345, 1.93592, 0.454785, 52.4607, -0.000976562, 0, 0, -0.0917969, 0.345703, -9.80957, 12.2.2021 17:51:12.793
346, 1.9361, 0.454667, 52.4569, -0.000976562, 0, 0, -0.0703125, 0.306641, -9.7998, 12.2.2021 17:51:12.801
347, 1.9361, 0.454667, 52.4569, 0, 0, 0, -0.12207, 0.350586, -9.80957, 12.2.2021 17:51:12.809
348, 1.9361, 0.454667, 52.4569, -0.000976562, -0.000976562, 0, -0.0673828, 0.320312, -9.79004, 12.2.2021 17:51:12.817
349, 1.9361, 0.454667, 52.4569, 0, 0, 0, -0.0810547, 0.313477, -9.78223, 12.2.2021 17:51:12.825
350, 1.9361, 0.454667, 52.4569, 0, 0, 0, -0.124023, 0.336914, -9.7793, 12.2.2021 17:51:12.833
351, 1.9361, 0.454667, 52.4569, 0, 0, -0.000976562, -0.0556641, 0.333008, -9.80371, 12.2.2021 17:51:12.841
352, 1.9361, 0.454667, 52.4569, -0.000976562, 0, 0, -0.108398, 0.34375, -9.82129, 12.2.2021 17:51:12.849
353, 1.9361, 0.454667, 52.4569, -0.000976562, -0.000976562, 0, -0.100586, 0.344727, -9.78613, 12.2.2021 17:51:12.857
354, 1.9361, 0.454667, 52.4569, 0, -0.000976562, -0.000976562, -0.0458984, 0.321289, -9.7998, 12.2.2021 17:51:12.865
355, 1.9361, 0.454667, 52.4569, -0.000976562, 0, 0.000976562, -0.129883, 0.350586, -9.83008, 12.2.2021 17:51:12.873
356, 1.9361, 0.454667, 52.4569, -0.000976562, 0, 0, -0.0556641, 0.320312, -9.79004, 12.2.2021 17:51:12.881
357, 1.9361, 0.454667, 52.4569, -0.000976562, 0, 0, -0.0634766, 0.329102, -9.81836, 12.2.2021 17:51:12.889
358, 1.9361, 0.454667, 52.4569, 0, -0.000976562, 0, -0.112305, 0.339844, -9.77441, 12.2.2021 17:51:12.897
359, 1.9361, 0.454667, 52.4569, -0.000976562, -0.000976562, 0.000976562, -0.0507812, 0.323242, -9.78516, 12.2.2021 17:51:12.905
360, 1.9361, 0.454667, 52.4569, -0.000976562, -0.000976562, 0, -0.0986328, 0.333984, -9.82422, 12.2.2021 17:51:12.913
361, 1.9361, 0.454667, 52.4569, -0.000976562, -0.000976562, 0, -0.117188, 0.359375, -9.79688, 12.2.2021 17:51:12.921
362, 1.93628, 0.454548, 52.4531, -0.000976562, -0.000976562, 0, -0.0478516, 0.339844, -9.77539, 12.2.2021 17:51:12.929
363, 1.93628, 0.454548, 52.4531, -0.000976562, -0.000976562, -0.000976562, -0.125, 0.352539, -9.79492, 12.2.2021 17:51:12.937
364, 1.93598, 0.454521, 52.445, -0.000976562, -0.000976562, -0.000976562, -0.0771484, 0.349609, -9.80566, 12.2.2021 17:51:12.945
365, 1.93598, 0.454521, 52.445, -0.000976562, 0, 0, -0.0556641, 0.333008, -9.79199, 12.2.2021 17:51:12.953
366, 1.93616, 0.454403, 52.4412, -0.000976562, 0, 0, -0.0986328, 0.34082, -9.80273, 12.2.2021 17:51:12.961
367, 1.93616, 0.454403, 52.4412, -0.000976562, -0.000976562, 0, -0.0371094, 0.345703, -9.83008, 12.2.2021 17:51:12.969
368, 1.93616, 0.454403, 52.4412, 0, -0.000976562, 0, -0.117188, 0.327148, -9.77246, 12.2.2021 17:51:12.977
369, 1.93616, 0.454403, 52.4412, 0, 0, 0.000976562, -0.0791016, 0.330078, -9.78223, 12.2.2021 17:51:12.985
370, 1.93634, 0.454284, 52.4373, 0, 0, 0.000976562, -0.0527344, 0.333008, -9.80176, 12.2.2021 17:51:12.993
371, 1.93603, 0.454257, 52.4293, -0.000976562, 0.000976562, 0, -0.131836, 0.354492, -9.80664, 12.2.2021 17:51:13.001
372, 1.93603, 0.454257, 52.4293, -0.000976562, -0.000976562, -0.00195312, -0.0820312, 0.344727, -9.78906, 12.2.2021 17:51:13.009
373, 1.93603, 0.454257, 52.4293, -0.000976562, -0.00195312, 0, -0.0986328, 0.321289, -9.80566, 12.2.2021 17:51:13.017
374, 1.93621, 0.454139, 52.4255, 0, 0, 0, -0.151367, 0.350586, -9.8252, 12.2.2021 17:51:13.025
375, 1.93621, 0.454139, 52.4255, 0, 0, 0.000976562, -0.0507812, 0.314453, -9.82129, 12.2.2021 17:51:13.033
376, 1.93313, 0.460413, 52.4254, 0, -0.000976562, 0, -0.107422, 0.320312, -9.78418, 12.2.2021 17:51:13.041
377, 1.93331, 0.460294, 52.4216, -0.000976562, -0.000976562, 0, -0.103516, 0.342773, -9.7959, 12.2.2021 17:51:13.050
378, 1.93331, 0.460294, 52.4216, -0.000976562, -0.000976562, 0.000976562, -0.0605469, 0.316406, -9.79199, 12.2.2021 17:51:13.057
379, 1.93958, 0.463383, 52.4214, 0, -0.000976562, 0, -0.131836, 0.332031, -9.82617, 12.2.2021 17:51:13.065
380, 1.93927, 0.463356, 52.4133, 0, 0, 0, -0.0703125, 0.383789, -9.81641, 12.2.2021 17:51:13.073
381, 1.93927, 0.463356, 52.4133, 0, 0, 0.000976562, -0.0605469, 0.347656, -9.81055, 12.2.2021 17:51:13.081
382, 1.93946, 0.463237, 52.4095, 0, 0, 0.000976562, -0.120117, 0.34082, -9.81641, 12.2.2021 17:51:13.089
383, 1.93946, 0.463237, 52.4095, -0.000976562, -0.000976562, 0, -0.0556641, 0.333008, -9.81055, 12.2.2021 17:51:13.097
384, 1.93946, 0.463237, 52.4095, -0.000976562, -0.000976562, -0.00195312, -0.09375, 0.333008, -9.80762, 12.2.2021 17:51:13.105
385, 1.93946, 0.463237, 52.4095, 0, -0.000976562, 0, -0.103516, 0.338867, -9.84277, 12.2.2021 17:51:13.113
386, 1.93946, 0.463237, 52.4095, 0, -0.000976562, 0, -0.0488281, 0.331055, -9.81055, 12.2.2021 17:51:13.121
387, 1.93946, 0.463237, 52.4095, -0.000976562, 0, 0, -0.117188, 0.34082, -9.80469, 12.2.2021 17:51:13.129
388, 1.93946, 0.463237, 52.4095, 0, 0, 0.000976562, -0.0488281, 0.337891, -9.80371, 12.2.2021 17:51:13.137
389, 1.93946, 0.463237, 52.4095, 0, -0.000976562, 0, -0.0605469, 0.335938, -9.80078, 12.2.2021 17:51:13.145
390, 1.93946, 0.463237, 52.4095, 0, -0.000976562, -0.00195312, -0.138672, 0.354492, -9.79688, 12.2.2021 17:51:13.153
391, 1.93619, 0.46963, 52.4133, -0.000976562, -0.000976562, 0, -0.0410156, 0.323242, -9.79492, 12.2.2021 17:51:13.161
392, 1.93619, 0.46963, 52.4133, 0, 0, -0.00195312, -0.0859375, 0.337891, -9.78418, 12.2.2021 17:51:13.169
393, 1.93649, 0.469657, 52.4213, -0.000976562, 0, 0, -0.119141, 0.349609, -9.77832, 12.2.2021 17:51:13.177
394, 1.93649, 0.469657, 52.4213, 0, 0, 0.000976562, -0.0458984, 0.323242, -9.80371, 12.2.2021 17:51:13.185
395, 1.93649, 0.469657, 52.4213, -0.000976562, 0, 0.000976562, -0.128906, 0.323242, -9.79297, 12.2.2021 17:51:13.193
396, 1.94246, 0.472719, 52.4131, -0.000976562, 0, 0, -0.0957031, 0.34668, -9.78809, 12.2.2021 17:51:13.201
397, 1.94246, 0.472719, 52.4131, -0.000976562, -0.000976562, -0.00195312, -0.0537109, 0.316406, -9.80176, 12.2.2021 17:51:13.209
398, 1.94246, 0.472719, 52.4131, -0.000976562, 0, -0.00195312, -0.138672, 0.334961, -9.78125, 12.2.2021 17:51:13.217
399, 1.94246, 0.472719, 52.4131, 0, -0.000976562, -0.000976562, -0.0341797, 0.331055, -9.82812, 12.2.2021 17:51:13.225
400, 1.94264, 0.4726, 52.4093, 0, -0.000976562, -0.000976562, -0.0751953, 0.316406, -9.80859, 12.2.2021 17:51:13.233
401, 1.94264, 0.4726, 52.4093, -0.000976562, 0, -0.000976562, -0.0888672, 0.304688, -9.81348, 12.2.2021 17:51:13.241
402, 1.94264, 0.4726, 52.4093, 0, 0.000976562, -0.000976562, -0.0371094, 0.311523, -9.80664, 12.2.2021 17:51:13.249
403, 1.94264, 0.4726, 52.4093, 0, -0.000976562, -0.000976562, -0.124023, 0.332031, -9.77441, 12.2.2021 17:51:13.257
404, 1.94282, 0.472481, 52.4054, 0, -0.00195312, -0.000976562, -0.100586, 0.332031, -9.75781, 12.2.2021 17:51:13.265
405, 1.94282, 0.472481, 52.4054, -0.000976562, 0, -0.00195312, -0.0341797, 0.319336, -9.81348, 12.2.2021 17:51:13.273
406, 1.94252, 0.472454, 52.3974, -0.000976562, -0.000976562, 0, -0.128906, 0.373047, -9.77051, 12.2.2021 17:51:13.281
407, 1.9427, 0.472335, 52.3935, -0.000976562, -0.000976562, -0.000976562, -0.0429688, 0.361328, -9.77734, 12.2.2021 17:51:13.289
408, 1.9427, 0.472335, 52.3935, -0.000976562, -0.000976562, -0.00195312, -0.0957031, 0.318359, -9.79688, 12.2.2021 17:51:13.297
409, 1.94288, 0.472216, 52.3897, 0, 0, -0.00195312, -0.0927734, 0.34375, -9.76074, 12.2.2021 17:51:13.305
410, 1.94288, 0.472216, 52.3897, 0, 0.000976562, 0.000976562, -0.0341797, 0.344727, -9.79688, 12.2.2021 17:51:13.313
411, 1.94276, 0.47207, 52.3778, -0.000976562, 0, -0.000976562, -0.131836, 0.317383, -9.82422, 12.2.2021 17:51:13.321
412, 1.94276, 0.47207, 52.3778, -0.000976562, -0.000976562, -0.000976562, -0.0917969, 0.337891, -9.81445, 12.2.2021 17:51:13.327
413, 1.94294, 0.471951, 52.374, -0.000976562, -0.000976562, -0.000976562, -0.0625, 0.301758, -9.80664, 12.2.2021 17:51:13.335
414, 1.94294, 0.471951, 52.374, -0.000976562, -0.000976562, -0.000976562, -0.134766, 0.358398, -9.83984, 12.2.2021 17:51:13.343
415, 1.94891, 0.475011, 52.3658, -0.000976562, -0.000976562, -0.00195312, -0.0507812, 0.334961, -9.79199, 12.2.2021 17:51:13.351
416, 1.94909, 0.474891, 52.3619, -0.000976562, -0.00195312, -0.000976562, -0.101562, 0.322266, -9.83594, 12.2.2021 17:51:13.359
417, 1.94909, 0.474891, 52.3619, 0, 0, -0.000976562, -0.101562, 0.355469, -9.82617, 12.2.2021 17:51:13.367
418, 1.94928, 0.474772, 52.3581, -0.000976562, 0, -0.000976562, 0.000976562, 0.304688, -9.81445, 12.2.2021 17:51:13.375
419, 1.94928, 0.474772, 52.3581, -0.000976562, -0.000976562, -0.000976562, -0.09375, 0.329102, -9.8291, 12.2.2021 17:51:13.383
420, 1.94897, 0.474745, 52.35, 0, 0, -0.000976562, -0.0527344, 0.337891, -9.80176, 12.2.2021 17:51:13.391
421, 1.94915, 0.474626, 52.3462, -0.000976562, -0.000976562, -0.000976562, -0.0195312, 0.306641, -9.79297, 12.2.2021 17:51:13.399
422, 1.94915, 0.474626, 52.3462, -0.000976562, -0.000976562, -0.000976562, -0.12207, 0.31543, -9.76758, 12.2.2021 17:51:13.407
423, 1.94915, 0.474626, 52.3462, -0.00195312, -0.000976562, 0.000976562, -0.0458984, 0.299805, -9.7998, 12.2.2021 17:51:13.415
424, 1.94915, 0.474626, 52.3462, -0.000976562, -0.000976562, -0.000976562, -0.0625, 0.298828, -9.7832, 12.2.2021 17:51:13.423
425, 1.94933, 0.474506, 52.3424, 0, 0, -0.00195312, -0.0986328, 0.352539, -9.81641, 12.2.2021 17:51:13.431
426, 1.94933, 0.474506, 52.3424, 0, -0.000976562, -0.00195312, -0.0371094, 0.310547, -9.84277, 12.2.2021 17:51:13.439
427, 1.94933, 0.474506, 52.3424, 0, -0.000976562, -0.00195312, -0.0820312, 0.323242, -9.78711, 12.2.2021 17:51:13.447
428, 1.94921, 0.47436, 52.3305, 0, -0.00195312, -0.000976562, -0.0917969, 0.342773, -9.81445, 12.2.2021 17:51:13.455
429, 1.94921, 0.47436, 52.3305, 0, -0.000976562, -0.000976562, -0.0507812, 0.303711, -9.7832, 12.2.2021 17:51:13.463
430, 1.94613, 0.480637, 52.3304, -0.000976562, -0.000976562, 0, -0.103516, 0.338867, -9.8291, 12.2.2021 17:51:13.471
431, 1.94631, 0.480517, 52.3266, -0.000976562, -0.000976562, 0, -0.0507812, 0.326172, -9.80859, 12.2.2021 17:51:13.479
432, 1.94909, 0.474214, 52.3186, 0, 0, 0, -0.0703125, 0.30957, -9.81348, 12.2.2021 17:51:13.487
433, 1.94927, 0.474095, 52.3148, 0, -0.000976562, 0, -0.107422, 0.34668, -9.76465, 12.2.2021 17:51:13.495
434, 1.94619, 0.480372, 52.3147, 0, -0.000976562, 0, -0.0507812, 0.313477, -9.79297, 12.2.2021 17:51:13.503
435, 1.94637, 0.480252, 52.3108, 0, -0.000976562, 0, -0.09375, 0.337891, -9.78906, 12.2.2021 17:51:13.511
436, 1.94637, 0.480252, 52.3108, 0, 0, 0, -0.0693359, 0.341797, -9.78711, 12.2.2021 17:51:13.519
437, 1.94933, 0.473829, 52.299, 0, 0.000976562, 0, -0.0390625, 0.341797, -9.79004, 12.2.2021 17:51:13.527
438, 1.94305, 0.470747, 52.2992, -0.000976562, 0.000976562, 0, -0.146484, 0.360352, -9.8252, 12.2.2021 17:51:13.535
439, 1.94324, 0.470628, 52.2954, -0.000976562, -0.000976562, 0, -0.0546875, 0.333008, -9.86523, 12.2.2021 17:51:13.543
440, 1.94293, 0.470601, 52.2873, 0, 0, 0, -0.0771484, 0.313477, -9.79199, 12.2.2021 17:51:13.551
441, 1.94311, 0.470482, 52.2835, 0, 0.000976562, 0, -0.12207, 0.349609, -9.79785, 12.2.2021 17:51:13.559
442, 1.94311, 0.470482, 52.2835, -0.000976562, 0, -0.000976562, -0.0341797, 0.34668, -9.79199, 12.2.2021 17:51:13.567
443, 1.94329, 0.470363, 52.2796, 0, -0.000976562, 0, -0.101562, 0.327148, -9.82422, 12.2.2021 17:51:13.575
444, 1.94317, 0.470218, 52.2677, -0.000976562, -0.000976562, 0, -0.134766, 0.338867, -9.81445, 12.2.2021 17:51:13.583
445, 1.94317, 0.470218, 52.2677, -0.000976562, -0.000976562, 0.000976562, -0.0595703, 0.330078, -9.78027, 12.2.2021 17:51:13.591
446, 1.94335, 0.470099, 52.2639, 0, -0.000976562, 0, -0.117188, 0.370117, -9.76367, 12.2.2021 17:51:13.599
447, 1.94335, 0.470099, 52.2639, 0, 0, 0, -0.0576172, 0.334961, -9.79688, 12.2.2021 17:51:13.607
448, 1.94323, 0.469953, 52.252, 0, 0, 0, -0.0556641, 0.305664, -9.77832, 12.2.2021 17:51:13.615
449, 1.94323, 0.469953, 52.252, -0.000976562, 0, -0.000976562, -0.109375, 0.34668, -9.7627, 12.2.2021 17:51:13.623
450, 1.94341, 0.469834, 52.2482, 0, -0.000976562, 0, -0.0439453, 0.349609, -9.80566, 12.2.2021 17:51:13.631
451, 1.94341, 0.469834, 52.2482, 0, 0, 0, -0.105469, 0.311523, -9.78906, 12.2.2021 17:51:13.639
452, 1.94341, 0.469834, 52.2482, 0, 0, 0, -0.126953, 0.328125, -9.78906, 12.2.2021 17:51:13.647
453, 1.94329, 0.469688, 52.2363, -0.000976562, -0.000976562, 0, -0.0390625, 0.301758, -9.79785, 12.2.2021 17:51:13.655
454, 1.94329, 0.469688, 52.2363, -0.000976562, -0.000976562, 0, -0.133789, 0.330078, -9.77148, 12.2.2021 17:51:13.663
455, 1.94329, 0.469688, 52.2363, -0.000976562, 0, 0, -0.0693359, 0.344727, -9.79102, 12.2.2021 17:51:13.671
456, 1.94347, 0.469569, 52.2324, -0.00195312, -0.000976562, 0, -0.0478516, 0.325195, -9.77832, 12.2.2021 17:51:13.679
457, 1.94347, 0.469569, 52.2324, -0.00195312, -0.000976562, 0, -0.129883, 0.34375, -9.82812, 12.2.2021 17:51:13.687
458, 1.94347, 0.469569, 52.2324, 0, -0.000976562, 0, -0.0458984, 0.323242, -9.78027, 12.2.2021 17:51:13.695
459, 1.94347, 0.469569, 52.2324, -0.000976562, -0.000976562, -0.000976562, -0.0849609, 0.333984, -9.82227, 12.2.2021 17:51:13.703
460, 1.94347, 0.469569, 52.2324, 0, -0.000976562, -0.000976562, -0.0839844, 0.334961, -9.79395, 12.2.2021 17:51:13.711
461, 1.94334, 0.469424, 52.2205, 0, 0, 0, -0.0351562, 0.320312, -9.84961, 12.2.2021 17:51:13.718
462, 1.94334, 0.469424, 52.2205, -0.000976562, -0.000976562, 0, -0.110352, 0.342773, -9.78809, 12.2.2021 17:51:13.727
463, 1.94334, 0.469424, 52.2205, 0, -0.000976562, -0.00195312, -0.0820312, 0.339844, -9.78711, 12.2.2021 17:51:13.735
464, 1.94334, 0.469424, 52.2205, -0.000976562, 0, 0, -0.0556641, 0.306641, -9.79785, 12.2.2021 17:51:13.743
465, 1.94353, 0.469305, 52.2167, -0.000976562, -0.000976562, 0, -0.150391, 0.347656, -9.79492, 12.2.2021 17:51:13.751
466, 1.94353, 0.469305, 52.2167, -0.00195312, -0.000976562, 0, -0.0673828, 0.327148, -9.76562, 12.2.2021 17:51:13.759
467, 1.94353, 0.469305, 52.2167, -0.000976562, -0.000976562, -0.00195312, -0.0820312, 0.333008, -9.78906, 12.2.2021 17:51:13.767
468, 1.94353, 0.469305, 52.2167, 0, 0, -0.000976562, -0.105469, 0.342773, -9.79297, 12.2.2021 17:51:13.775
469, 1.9434, 0.469159, 52.2048, -0.000976562, 0, -0.000976562, -0.0244141, 0.30957, -9.81152, 12.2.2021 17:51:13.783
470, 1.9434, 0.469159, 52.2048, 0, 0, 0, -0.101562, 0.363281, -9.83789, 12.2.2021 17:51:13.791
471, 1.9434, 0.469159, 52.2048, 0, 0, 0, -0.0830078, 0.355469, -9.75293, 12.2.2021 17:51:13.799
472, 1.94358, 0.46904, 52.201, 0, -0.000976562, 0.000976562, -0.0654297, 0.323242, -9.80664, 12.2.2021 17:51:13.807
473, 1.94358, 0.46904, 52.201, 0, -0.000976562, 0, -0.12207, 0.34375, -9.75977, 12.2.2021 17:51:13.815
474, 1.94358, 0.46904, 52.201, 0, -0.000976562, 0, -0.0322266, 0.323242, -9.80957, 12.2.2021 17:51:13.823
475, 1.94377, 0.468921, 52.1971, -0.000976562, -0.000976562, -0.00195312, -0.0800781, 0.332031, -9.84863, 12.2.2021 17:51:13.831
476, 1.94346, 0.468894, 52.1891, 0, -0.000976562, -0.00195312, -0.124023, 0.320312, -9.7793, 12.2.2021 17:51:13.839
477, 1.94346, 0.468894, 52.1891, -0.000976562, -0.000976562, 0, -0.0400391, 0.308594, -9.84961, 12.2.2021 17:51:13.847
478, 1.94346, 0.468894, 52.1891, 0, 0, 0, -0.110352, 0.337891, -9.78613, 12.2.2021 17:51:13.855
479, 1.94364, 0.468775, 52.1852, 0, -0.000976562, 0, -0.0556641, 0.330078, -9.79688, 12.2.2021 17:51:13.863
480, 1.94364, 0.468775, 52.1852, 0, -0.000976562, 0, -0.0439453, 0.333984, -9.82324, 12.2.2021 17:51:13.871
481, 1.94364, 0.468775, 52.1852, -0.000976562, -0.000976562, -0.00195312, -0.128906, 0.356445, -9.7666, 12.2.2021 17:51:13.879
482, 1.94364, 0.468775, 52.1852, -0.000976562, 0, 0, -0.0625, 0.328125, -9.81055, 12.2.2021 17:51:13.887
483, 1.94382, 0.468656, 52.1814, 0, 0, 0, -0.0888672, 0.335938, -9.81055, 12.2.2021 17:51:13.895
484, 1.94352, 0.46863, 52.1733, 0, 0, 0, -0.120117, 0.331055, -9.80762, 12.2.2021 17:51:13.903
485, 1.94352, 0.46863, 52.1733, 0, 0, 0, -0.0263672, 0.28125, -9.75098, 12.2.2021 17:51:13.911
486, 1.9437, 0.468511, 52.1695, -0.000976562, 0, 0, -0.118164, 0.338867, -9.83105, 12.2.2021 17:51:13.919
487, 1.9437, 0.468511, 52.1695, -0.000976562, -0.000976562, 0, -0.0849609, 0.355469, -9.84082, 12.2.2021 17:51:13.927
488, 1.9437, 0.468511, 52.1695, 0, 0, 0.000976562, -0.0498047, 0.333984, -9.76367, 12.2.2021 17:51:13.935
489, 1.94388, 0.468391, 52.1656, -0.000976562, 0, 0, -0.140625, 0.34668, -9.76855, 12.2.2021 17:51:13.943
490, 1.94357, 0.468365, 52.1576, 0, -0.000976562, 0, -0.0673828, 0.311523, -9.80664, 12.2.2021 17:51:13.951
491, 1.94357, 0.468365, 52.1576, 0, -0.000976562, 0.000976562, -0.0742188, 0.304688, -9.7998, 12.2.2021 17:51:13.959
492, 1.94376, 0.468246, 52.1537, 0, -0.000976562, 0, -0.107422, 0.353516, -9.76953, 12.2.2021 17:51:13.967
493, 1.94376, 0.468246, 52.1537, 0, -0.000976562, -0.00195312, -0.0244141, 0.324219, -9.81445, 12.2.2021 17:51:13.975
494, 1.94376, 0.468246, 52.1537, 0, 0, -0.000976562, -0.131836, 0.317383, -9.81934, 12.2.2021 17:51:13.983
495, 1.94394, 0.468127, 52.1499, 0, 0, 0, -0.0839844, 0.345703, -9.81738, 12.2.2021 17:51:13.991
496, 1.94363, 0.4681, 52.1418, -0.000976562, -0.00195312, 0, -0.0341797, 0.321289, -9.80176, 12.2.2021 17:51:13.999
497, 1.94363, 0.4681, 52.1418, -0.000976562, -0.000976562, 0.000976562, -0.0986328, 0.375, -9.8252, 12.2.2021 17:51:14.007
498, 1.94381, 0.467981, 52.138, 0, -0.000976562, 0, -0.0742188, 0.332031, -9.76367, 12.2.2021 17:51:14.015
499, 1.94381, 0.467981, 52.138, -0.000976562, -0.000976562, 0, -0.0800781, 0.319336, -9.81836, 12.2.2021 17:51:14.023
500, 1.94062, 0.474117, 52.126, -0.000976562, -0.000976562, 0, -0.0917969, 0.345703, -9.8125, 12.2.2021 17:51:14.031
501, 1.94062, 0.474117, 52.126, 0, -0.000976562, 0, -0.0175781, 0.319336, -9.81445, 12.2.2021 17:51:14.039
502, 1.94062, 0.474117, 52.126, 0.000976562, 0, -0.000976562, -0.0830078, 0.324219, -9.75879, 12.2.2021 17:51:14.047
503, 1.9408, 0.473998, 52.1222, -0.000976562, 0, -0.000976562, -0.108398, 0.338867, -9.81738, 12.2.2021 17:51:14.055
504, 1.9408, 0.473998, 52.1222, -0.000976562, -0.000976562, 0, -0.0458984, 0.313477, -9.80176, 12.2.2021 17:51:14.063
505, 1.9408, 0.473998, 52.1222, 0, -0.000976562, -0.000976562, -0.120117, 0.358398, -9.83984, 12.2.2021 17:51:14.071
506, 1.94098, 0.473879, 52.1183, 0, -0.000976562, 0, -0.0820312, 0.318359, -9.78711, 12.2.2021 17:51:14.079
507, 1.94067, 0.473853, 52.1103, 0, 0, 0, -0.078125, 0.327148, -9.83887, 12.2.2021 17:51:14.087
508, 1.94067, 0.473853, 52.1103, 0, -0.000976562, 0.000976562, -0.115234, 0.345703, -9.80957, 12.2.2021 17:51:14.095
509, 1.94086, 0.473734, 52.1064, -0.000976562, -0.000976562, 0, -0.0361328, 0.316406, -9.80469, 12.2.2021 17:51:14.103
510, 1.94086, 0.473734, 52.1064, -0.000976562, 0, 0, -0.0908203, 0.313477, -9.79395, 12.2.2021 17:51:14.111
511, 1.94086, 0.473734, 52.1064, -0.000976562, -0.00195312, 0, -0.0791016, 0.326172, -9.80566, 12.2.2021 17:51:14.119
512, 1.94104, 0.473615, 52.1026, 0, -0.000976562, 0, -0.0605469, 0.317383, -9.83203, 12.2.2021 17:51:14.127
513, 1.94073, 0.473589, 52.0945, 0, -0.000976562, 0, -0.118164, 0.357422, -9.81348, 12.2.2021 17:51:14.135
514, 1.94073, 0.473589, 52.0945, 0, 0, 0, -0.0800781, 0.347656, -9.82227, 12.2.2021 17:51:14.143
515, 1.94073, 0.473589, 52.0945, -0.000976562, -0.000976562, 0, -0.0576172, 0.339844, -9.79883, 12.2.2021 17:51:14.151
516, 1.94091, 0.47347, 52.0907, -0.000976562, -0.000976562, 0, -0.131836, 0.34082, -9.80469, 12.2.2021 17:51:14.159
517, 1.94091, 0.47347, 52.0907, -0.000976562, -0.000976562, 0, -0.0654297, 0.331055, -9.80859, 12.2.2021 17:51:14.167
518, 1.94091, 0.47347, 52.0907, -0.000976562, -0.000976562, -0.000976562, -0.0634766, 0.305664, -9.83008, 12.2.2021 17:51:14.175
519, 1.94091, 0.47347, 52.0907, 0, -0.00195312, -0.000976562, -0.100586, 0.301758, -9.79004, 12.2.2021 17:51:14.183
520, 1.94091, 0.47347, 52.0907, 0, -0.000976562, 0, -0.0390625, 0.311523, -9.81445, 12.2.2021 17:51:14.191
521, 1.94091, 0.47347, 52.0907, -0.000976562, -0.000976562, 0, -0.126953, 0.333008, -9.7959, 12.2.2021 17:51:14.199
522, 1.9411, 0.473351, 52.0868, 0, -0.000976562, 0, -0.0820312, 0.311523, -9.80664, 12.2.2021 17:51:14.207
523, 1.9411, 0.473351, 52.0868, -0.000976562, -0.000976562, 0, -0.0742188, 0.308594, -9.79004, 12.2.2021 17:51:14.215
524, 1.94079, 0.473325, 52.0788, 0, -0.00195312, 0, -0.112305, 0.331055, -9.7959, 12.2.2021 17:51:14.223
525, 1.94079, 0.473325, 52.0788, 0, -0.000976562, 0, -0.0654297, 0.306641, -9.81152, 12.2.2021 17:51:14.231
526, 1.94079, 0.473325, 52.0788, 0.000976562, -0.000976562, 0, -0.09375, 0.327148, -9.82422, 12.2.2021 17:51:14.239
527, 1.94097, 0.473206, 52.0749, 0.000976562, -0.000976562, 0, -0.125, 0.362305, -9.81641, 12.2.2021 17:51:14.247
528, 1.94097, 0.473206, 52.0749, 0.000976562, 0.000976562, 0, -0.0439453, 0.331055, -9.81543, 12.2.2021 17:51:14.255
529, 1.94097, 0.473206, 52.0749, 0, -0.000976562, 0, -0.0859375, 0.325195, -9.78906, 12.2.2021 17:51:14.263
530, 1.94097, 0.473206, 52.0749, 0, -0.000976562, -0.00195312, -0.0673828, 0.323242, -9.79004, 12.2.2021 17:51:14.270
531, 1.94097, 0.473206, 52.0749, 0, -0.000976562, -0.00195312, -0.09375, 0.314453, -9.80176, 12.2.2021 17:51:14.279
532, 1.94097, 0.473206, 52.0749, 0, 0.000976562, 0, -0.138672, 0.335938, -9.80469, 12.2.2021 17:51:14.285
533, 1.94097, 0.473206, 52.0749, 0.000976562, -0.000976562, 0, -0.0537109, 0.323242, -9.80859, 12.2.2021 17:51:14.293
534, 1.94097, 0.473206, 52.0749, 0, -0.000976562, 0, -0.0488281, 0.347656, -9.82227, 12.2.2021 17:51:14.301
535, 1.94115, 0.473087, 52.0711, 0, 0.000976562, 0, -0.0839844, 0.339844, -9.79883, 12.2.2021 17:51:14.309
536, 1.94115, 0.473087, 52.0711, -0.000976562, -0.000976562, 0, -0.0136719, 0.320312, -9.85156, 12.2.2021 17:51:14.317
537, 1.94115, 0.473087, 52.0711, 0, -0.000976562, 0, -0.118164, 0.34668, -9.84961, 12.2.2021 17:51:14.325
538, 1.94085, 0.47306, 52.063, 0, -0.000976562, 0, -0.0888672, 0.314453, -9.81836, 12.2.2021 17:51:14.333
539, 1.93457, 0.469991, 52.0632, -0.000976562, 0.000976562, 0, -0.0556641, 0.333008, -9.79883, 12.2.2021 17:51:14.341
540, 1.94085, 0.47306, 52.063, -0.000976562, -0.000976562, 0, -0.131836, 0.357422, -9.80664, 12.2.2021 17:51:14.349
541, 1.94085, 0.47306, 52.063, -0.000976562, 0.000976562, 0, -0.0576172, 0.333008, -9.79688, 12.2.2021 17:51:14.357
542, 1.93475, 0.469872, 52.0593, 0, -0.000976562, -0.00195312, -0.0722656, 0.314453, -9.81348, 12.2.2021 17:51:14.365
543, 1.93475, 0.469872, 52.0593, -0.000976562, -0.000976562, -0.000976562, -0.0839844, 0.354492, -9.78809, 12.2.2021 17:51:14.373
544, 1.94103, 0.472941, 52.0592, -0.000976562, -0.000976562, 0, -0.0341797, 0.310547, -9.78125, 12.2.2021 17:51:14.380
545, 1.94103, 0.472941, 52.0592, -0.000976562, -0.000976562, 0, -0.111328, 0.31543, -9.84863, 12.2.2021 17:51:14.388
546, 1.94103, 0.472941, 52.0592, 0, 0.000976562, -0.000976562, -0.0742188, 0.332031, -9.76074, 12.2.2021 17:51:14.397
547, 1.93475, 0.469872, 52.0593, 0.000976562, -0.000976562, -0.00195312, -0.0810547, 0.305664, -9.75879, 12.2.2021 17:51:14.405
548, 1.93475, 0.469872, 52.0593, -0.000976562, -0.000976562, 0, -0.120117, 0.34668, -9.7832, 12.2.2021 17:51:14.413
549, 1.93475, 0.469872, 52.0593, 0, 0.000976562, 0, -0.0644531, 0.322266, -9.76855, 12.2.2021 17:51:14.420
550, 1.93475, 0.469872, 52.0593, 0, -0.000976562, 0, -0.0791016, 0.328125, -9.79688, 12.2.2021 17:51:14.428
551, 1.93475, 0.469872, 52.0593, 0, -0.000976562, 0, -0.106445, 0.350586, -9.83789, 12.2.2021 17:51:14.436
552, 1.93493, 0.469754, 52.0555, 0, -0.000976562, 0, -0.0458984, 0.30957, -9.7998, 12.2.2021 17:51:14.444
553, 1.93493, 0.469754, 52.0555, -0.000976562, -0.000976562, 0.000976562, -0.110352, 0.335938, -9.80078, 12.2.2021 17:51:14.453
554, 1.93493, 0.469754, 52.0555, 0, -0.000976562, -0.00195312, -0.0986328, 0.345703, -9.82617, 12.2.2021 17:51:14.460
555, 1.93493, 0.469754, 52.0555, -0.000976562, -0.000976562, -0.000976562, -0.0537109, 0.333984, -9.82715, 12.2.2021 17:51:14.468
556, 1.93493, 0.469754, 52.0555, 0, 0.000976562, -0.000976562, -0.134766, 0.345703, -9.83301, 12.2.2021 17:51:14.476
557, 1.93475, 0.469872, 52.0593, -0.000976562, 0.000976562, -0.000976562, -0.0527344, 0.341797, -9.78223, 12.2.2021 17:51:14.484
558, 1.93475, 0.469872, 52.0593, -0.000976562, 0, 0, -0.0693359, 0.323242, -9.78027, 12.2.2021 17:51:14.492
559, 1.93475, 0.469872, 52.0593, 0, 0, 0, -0.120117, 0.321289, -9.79883, 12.2.2021 17:51:14.500
560, 1.93475, 0.469872, 52.0593, -0.000976562, 0, -0.000976562, -0.0488281, 0.348633, -9.8291, 12.2.2021 17:51:14.508
561, 1.93475, 0.469872, 52.0593, 0.000976562, -0.000976562, 0, -0.0957031, 0.349609, -9.78125, 12.2.2021 17:51:14.516
562, 1.93475, 0.469872, 52.0593, 0.000976562, 0, 0.000976562, -0.09375, 0.352539, -9.82617, 12.2.2021 17:51:14.524
563, 1.93475, 0.469872, 52.0593, -0.000976562, -0.000976562, 0, -0.0644531, 0.333008, -9.78516, 12.2.2021 17:51:14.532
564, 1.93475, 0.469872, 52.0593, 0, -0.000976562, -0.000976562, -0.134766, 0.333984, -9.83301, 12.2.2021 17:51:14.540
565, 1.93475, 0.469872, 52.0593, 0, 0, 0, -0.0722656, 0.321289, -9.80176, 12.2.2021 17:51:14.548
566, 1.93493, 0.469754, 52.0555, 0, 0, 0, -0.0800781, 0.329102, -9.83887, 12.2.2021 17:51:14.556
567, 1.93493, 0.469754, 52.0555, -0.000976562, 0.000976562, 0, -0.120117, 0.333984, -9.81445, 12.2.2021 17:51:14.564
568, 1.93493, 0.469754, 52.0555, -0.000976562, 0.000976562, 0, -0.0273438, 0.337891, -9.79688, 12.2.2021 17:51:14.572
569, 1.93493, 0.469754, 52.0555, -0.000976562, -0.000976562, 0, -0.103516, 0.336914, -9.83398, 12.2.2021 17:51:14.580
570, 1.93493, 0.469754, 52.0555, -0.000976562, -0.00195312, 0, -0.09375, 0.318359, -9.79395, 12.2.2021 17:51:14.588
571, 1.93493, 0.469754, 52.0555, -0.000976562, 0, 0, -0.0537109, 0.302734, -9.81445, 12.2.2021 17:51:14.596
572, 1.93462, 0.469728, 52.0475, -0.000976562, -0.000976562, 0, -0.134766, 0.338867, -9.81641, 12.2.2021 17:51:14.604
573, 1.93462, 0.469728, 52.0475, -0.000976562, 0, 0, -0.0654297, 0.324219, -9.8252, 12.2.2021 17:51:14.612
574, 1.93462, 0.469728, 52.0475, -0.00195312, 0, 0.000976562, -0.0957031, 0.328125, -9.79102, 12.2.2021 17:51:14.620
575, 1.93462, 0.469728, 52.0475, 0, -0.000976562, 0, -0.128906, 0.349609, -9.78516, 12.2.2021 17:51:14.628
576, 1.93462, 0.469728, 52.0475, -0.000976562, -0.00195312, -0.000976562, -0.0371094, 0.345703, -9.82031, 12.2.2021 17:51:14.636
577, 1.93462, 0.469728, 52.0475, 0, -0.000976562, 0, -0.0917969, 0.324219, -9.81543, 12.2.2021 17:51:14.644
578, 1.93462, 0.469728, 52.0475, 0, -0.00195312, 0, -0.0791016, 0.344727, -9.80566, 12.2.2021 17:51:14.652
579, 1.9409, 0.472796, 52.0473, -0.000976562, -0.000976562, 0, -0.0634766, 0.302734, -9.82324, 12.2.2021 17:51:14.660
580, 1.9409, 0.472796, 52.0473, -0.000976562, -0.000976562, 0.000976562, -0.115234, 0.352539, -9.81641, 12.2.2021 17:51:14.668
581, 1.9409, 0.472796, 52.0473, 0, 0, 0.000976562, -0.0458984, 0.344727, -9.79883, 12.2.2021 17:51:14.676
582, 1.9409, 0.472796, 52.0473, 0, -0.000976562, 0, -0.0507812, 0.330078, -9.77539, 12.2.2021 17:51:14.685
583, 1.9409, 0.472796, 52.0473, -0.000976562, -0.00195312, 0, -0.120117, 0.357422, -9.7998, 12.2.2021 17:51:14.692
584, 1.9409, 0.472796, 52.0473, -0.000976562, -0.000976562, 0, -0.0244141, 0.34668, -9.79199, 12.2.2021 17:51:14.700
585, 1.9409, 0.472796, 52.0473, 0, 0, 0, -0.0888672, 0.326172, -9.81055, 12.2.2021 17:51:14.708
586, 1.94109, 0.472677, 52.0434, 0, -0.000976562, 0, -0.126953, 0.339844, -9.78125, 12.2.2021 17:51:14.716
587, 1.94109, 0.472677, 52.0434, 0, -0.00195312, 0, -0.0439453, 0.3125, -9.82129, 12.2.2021 17:51:14.724
588, 1.94109, 0.472677, 52.0434, -0.000976562, 0, -0.000976562, -0.125, 0.341797, -9.83594, 12.2.2021 17:51:14.732
589, 1.94109, 0.472677, 52.0434, -0.000976562, -0.000976562, 0, -0.0839844, 0.328125, -9.78906, 12.2.2021 17:51:14.740
590, 1.94109, 0.472677, 52.0434, -0.000976562, -0.000976562, -0.000976562, -0.0839844, 0.318359, -9.77344, 12.2.2021 17:51:14.748
591, 1.94109, 0.472677, 52.0434, -0.000976562, -0.000976562, -0.000976562, -0.117188, 0.326172, -9.79395, 12.2.2021 17:51:14.756
592, 1.94109, 0.472677, 52.0434, -0.000976562, -0.000976562, -0.000976562, -0.0439453, 0.313477, -9.79785, 12.2.2021 17:51:14.764
593, 1.94109, 0.472677, 52.0434, -0.000976562, 0, 0.000976562, -0.0751953, 0.333008, -9.80859, 12.2.2021 17:51:14.772
594, 1.94109, 0.472677, 52.0434, 0, -0.000976562, -0.000976562, -0.100586, 0.334961, -9.77734, 12.2.2021 17:51:14.780
595, 1.94109, 0.472677, 52.0434, 0, -0.000976562, -0.000976562, -0.0507812, 0.320312, -9.77344, 12.2.2021 17:51:14.789
596, 1.94109, 0.472677, 52.0434, 0, -0.000976562, -0.000976562, -0.117188, 0.359375, -9.80469, 12.2.2021 17:51:14.797
597, 1.94109, 0.472677, 52.0434, 0, 0, 0, -0.103516, 0.324219, -9.81055, 12.2.2021 17:51:14.805
598, 1.94109, 0.472677, 52.0434, 0.000976562, 0, 0, -0.0654297, 0.305664, -9.8418, 12.2.2021 17:51:14.813
599, 1.94109, 0.472677, 52.0434, 0, 0, 0, -0.100586, 0.360352, -9.75977, 12.2.2021 17:51:14.820
600, 1.94109, 0.472677, 52.0434, -0.000976562, 0, 0, -0.0439453, 0.322266, -9.82812, 12.2.2021 17:51:14.828
601, 1.94109, 0.472677, 52.0434, -0.000976562, 0, 0, -0.0849609, 0.332031, -9.83887, 12.2.2021 17:51:14.836
602, 1.94109, 0.472677, 52.0434, -0.000976562, 0, 0, -0.123047, 0.338867, -9.83301, 12.2.2021 17:51:14.844
603, 1.94127, 0.472558, 52.0396, 0, 0, 0, -0.0439453, 0.311523, -9.80664, 12.2.2021 17:51:14.852
604, 1.94127, 0.472558, 52.0396, -0.000976562, 0, 0, -0.108398, 0.342773, -9.80273, 12.2.2021 17:51:14.860
605, 1.94127, 0.472558, 52.0396, -0.000976562, -0.000976562, -0.00195312, -0.0605469, 0.333984, -9.82227, 12.2.2021 17:51:14.868
606, 1.94127, 0.472558, 52.0396, -0.000976562, -0.000976562, -0.000976562, -0.0273438, 0.307617, -9.83594, 12.2.2021 17:51:14.876
607, 1.94127, 0.472558, 52.0396, 0, -0.000976562, -0.000976562, -0.143555, 0.359375, -9.79688, 12.2.2021 17:51:14.884
608, 1.94127, 0.472558, 52.0396, 0, 0, -0.00195312, -0.0478516, 0.322266, -9.7666, 12.2.2021 17:51:14.892
609, 1.94127, 0.472558, 52.0396, 0, 0, 0, -0.0791016, 0.344727, -9.79395, 12.2.2021 17:51:14.901
610, 1.94127, 0.472558, 52.0396, -0.000976562, 0, 0, -0.0957031, 0.322266, -9.75195, 12.2.2021 17:51:14.908
611, 1.94127, 0.472558, 52.0396, -0.000976562, 0, 0, -0.0527344, 0.305664, -9.76172, 12.2.2021 17:51:14.916
612, 1.94096, 0.472532, 52.0315, -0.000976562, -0.000976562, 0.000976562, -0.100586, 0.301758, -9.80176, 12.2.2021 17:51:14.924
613, 1.94096, 0.472532, 52.0315, 0, -0.00195312, -0.000976562, -0.105469, 0.311523, -9.81348, 12.2.2021 17:51:14.932
614, 1.94096, 0.472532, 52.0315, 0.000976562, -0.000976562, 0.000976562, -0.0488281, 0.316406, -9.80469, 12.2.2021 17:51:14.940
615, 1.94096, 0.472532, 52.0315, 0, -0.000976562, -0.000976562, -0.112305, 0.361328, -9.78809, 12.2.2021 17:51:14.948
616, 1.94096, 0.472532, 52.0315, -0.000976562, -0.000976562, -0.000976562, -0.0458984, 0.347656, -9.80859, 12.2.2021 17:51:14.956
617, 1.94096, 0.472532, 52.0315, 0, -0.000976562, -0.00195312, -0.0869141, 0.311523, -9.80664, 12.2.2021 17:51:14.964
618, 1.94114, 0.472413, 52.0277, 0, 0, 0, -0.125, 0.321289, -9.80273, 12.2.2021 17:51:14.972
619, 1.94114, 0.472413, 52.0277, 0, -0.000976562, -0.00195312, -0.0205078, 0.293945, -9.84082, 12.2.2021 17:51:14.980
620, 1.94114, 0.472413, 52.0277, 0, -0.000976562, -0.00195312, -0.0986328, 0.345703, -9.81934, 12.2.2021 17:51:14.988
621, 1.94114, 0.472413, 52.0277, 0, 0, 0, -0.118164, 0.355469, -9.81445, 12.2.2021 17:51:14.996
622, 1.93486, 0.469346, 52.0278, 0, -0.000976562, -0.00195312, -0.0625, 0.313477, -9.79688, 12.2.2021 17:51:15.004
623, 1.93486, 0.469346, 52.0278, -0.000976562, 0, 0, -0.112305, 0.359375, -9.80176, 12.2.2021 17:51:15.012
624, 1.94114, 0.472413, 52.0277, -0.000976562, -0.000976562, 0, -0.0322266, 0.338867, -9.8252, 12.2.2021 17:51:15.020
625, 1.94114, 0.472413, 52.0277, -0.000976562, -0.000976562, 0, -0.0722656, 0.344727, -9.78906, 12.2.2021 17:51:15.028
626, 1.94114, 0.472413, 52.0277, -0.000976562, 0, 0, -0.112305, 0.349609, -9.79297, 12.2.2021 17:51:15.036
627, 1.94114, 0.472413, 52.0277, -0.000976562, -0.000976562, -0.000976562, -0.0175781, 0.291992, -9.7793, 12.2.2021 17:51:15.044
628, 1.94114, 0.472413, 52.0277, -0.000976562, -0.00195312, 0.000976562, -0.0703125, 0.321289, -9.81543, 12.2.2021 17:51:15.052
629, 1.94132, 0.472294, 52.0238, 0, -0.000976562, 0, -0.115234, 0.352539, -9.81836, 12.2.2021 17:51:15.060
630, 1.94132, 0.472294, 52.0238, 0, -0.000976562, 0, -0.0429688, 0.298828, -9.78613, 12.2.2021 17:51:15.068
631, 1.94132, 0.472294, 52.0238, 0.000976562, 0, 0, -0.133789, 0.326172, -9.79785, 12.2.2021 17:51:15.076
632, 1.94132, 0.472294, 52.0238, 0, 0, 0, -0.0644531, 0.320312, -9.78711, 12.2.2021 17:51:15.084
633, 1.94132, 0.472294, 52.0238, 0, 0, -0.000976562, -0.0810547, 0.320312, -9.78027, 12.2.2021 17:51:15.092
634, 1.94132, 0.472294, 52.0238, -0.000976562, 0, 0, -0.104492, 0.332031, -9.75781, 12.2.2021 17:51:15.100
635, 1.94132, 0.472294, 52.0238, -0.000976562, -0.000976562, 0, -0.0263672, 0.308594, -9.78613, 12.2.2021 17:51:15.108
636, 1.94132, 0.472294, 52.0238, 0, -0.000976562, 0, -0.0820312, 0.333008, -9.81055, 12.2.2021 17:51:15.116
637, 1.94132, 0.472294, 52.0238, -0.000976562, 0, 0, -0.107422, 0.330078, -9.76758, 12.2.2021 17:51:15.124
638, 1.94132, 0.472294, 52.0238, -0.000976562, 0, 0, -0.0410156, 0.313477, -9.7832, 12.2.2021 17:51:15.132
639, 1.94132, 0.472294, 52.0238, -0.000976562, -0.000976562, 0, -0.105469, 0.347656, -9.7959, 12.2.2021 17:51:15.140
640, 1.94132, 0.472294, 52.0238, -0.000976562, -0.000976562, 0.000976562, -0.0556641, 0.313477, -9.79297, 12.2.2021 17:51:15.148
641, 1.94132, 0.472294, 52.0238, -0.000976562, -0.000976562, 0.000976562, -0.0703125, 0.324219, -9.83691, 12.2.2021 17:51:15.156
642, 1.94132, 0.472294, 52.0238, -0.000976562, -0.000976562, 0, -0.103516, 0.348633, -9.82812, 12.2.2021 17:51:15.164
643, 1.94114, 0.472413, 52.0277, 0, -0.000976562, 0, -0.0292969, 0.30957, -9.80273, 12.2.2021 17:51:15.172
644, 1.94114, 0.472413, 52.0277, -0.000976562, -0.000976562, 0, -0.0820312, 0.297852, -9.82324, 12.2.2021 17:51:15.180
645, 1.94114, 0.472413, 52.0277, -0.000976562, -0.000976562, 0, -0.15332, 0.323242, -9.78613, 12.2.2021 17:51:15.188
646, 1.94114, 0.472413, 52.0277, 0, -0.000976562, 0, -0.0371094, 0.314453, -9.80664, 12.2.2021 17:51:15.196
647, 1.94114, 0.472413, 52.0277, -0.000976562, -0.00195312, 0, -0.144531, 0.329102, -9.81934, 12.2.2021 17:51:15.204
648, 1.94114, 0.472413, 52.0277, -0.000976562, -0.000976562, 0, -0.0693359, 0.325195, -9.76367, 12.2.2021 17:51:15.212
649, 1.94114, 0.472413, 52.0277, -0.000976562, -0.000976562, 0, -0.0537109, 0.338867, -9.83398, 12.2.2021 17:51:15.220
650, 1.94114, 0.472413, 52.0277, -0.000976562, -0.000976562, 0, -0.126953, 0.362305, -9.80859, 12.2.2021 17:51:15.228
651, 1.94114, 0.472413, 52.0277, -0.00195312, -0.000976562, -0.000976562, -0.0429688, 0.34375, -9.75879, 12.2.2021 17:51:15.234
652, 1.94114, 0.472413, 52.0277, -0.000976562, -0.000976562, 0, -0.0820312, 0.342773, -9.81055, 12.2.2021 17:51:15.242
653, 1.94114, 0.472413, 52.0277, 0, -0.000976562, 0, -0.0605469, 0.339844, -9.79395, 12.2.2021 17:51:15.250
654, 1.94114, 0.472413, 52.0277, 0, -0.000976562, -0.000976562, -0.00292969, 0.308594, -9.77441, 12.2.2021 17:51:15.260
655, 1.94114, 0.472413, 52.0277, -0.000976562, -0.000976562, -0.000976562, -0.108398, 0.34375, -9.82422, 12.2.2021 17:51:15.266
656, 1.94114, 0.472413, 52.0277, -0.000976562, 0, 0, -0.0585938, 0.359375, -9.8125, 12.2.2021 17:51:15.274
657, 1.94114, 0.472413, 52.0277, 0, -0.000976562, -0.000976562, -0.0537109, 0.324219, -9.8252, 12.2.2021 17:51:15.282
658, 1.94114, 0.472413, 52.0277, -0.000976562, -0.000976562, -0.00195312, -0.118164, 0.316406, -9.80762, 12.2.2021 17:51:15.290
659, 1.94114, 0.472413, 52.0277, 0, 0, 0, -0.0507812, 0.327148, -9.77344, 12.2.2021 17:51:15.298
660, 1.94114, 0.472413, 52.0277, -0.000976562, 0, 0.000976562, -0.0888672, 0.314453, -9.82031, 12.2.2021 17:51:15.306
661, 1.94114, 0.472413, 52.0277, 0, -0.000976562, -0.000976562, -0.108398, 0.331055, -9.82227, 12.2.2021 17:51:15.314
662, 1.94096, 0.472532, 52.0315, 0, 0, -0.00195312, -0.0478516, 0.301758, -9.78613, 12.2.2021 17:51:15.322
663, 1.94096, 0.472532, 52.0315, -0.000976562, -0.000976562, -0.000976562, -0.113281, 0.350586, -9.81152, 12.2.2021 17:51:15.330
664, 1.94096, 0.472532, 52.0315, 0, -0.000976562, -0.000976562, -0.0986328, 0.335938, -9.80078, 12.2.2021 17:51:15.338
665, 1.94127, 0.472558, 52.0396, -0.000976562, -0.000976562, -0.000976562, -0.0292969, 0.31543, -9.76953, 12.2.2021 17:51:15.346
666, 1.94127, 0.472558, 52.0396, -0.000976562, 0, -0.00195312, -0.110352, 0.339844, -9.78613, 12.2.2021 17:51:15.354
667, 1.94127, 0.472558, 52.0396, -0.000976562, -0.000976562, -0.000976562, -0.0507812, 0.337891, -9.80371, 12.2.2021 17:51:15.362
668, 1.94127, 0.472558, 52.0396, -0.000976562, 0, 0, -0.0751953, 0.338867, -9.8291, 12.2.2021 17:51:15.370
669, 1.94109, 0.472677, 52.0434, 0, -0.000976562, -0.000976562, -0.115234, 0.34082, -9.82812, 12.2.2021 17:51:15.378
670, 1.94109, 0.472677, 52.0434, 0, -0.000976562, -0.000976562, -0.0361328, 0.328125, -9.79199, 12.2.2021 17:51:15.386
671, 1.94109, 0.472677, 52.0434, -0.000976562, 0, 0, -0.151367, 0.350586, -9.81836, 12.2.2021 17:51:15.395
672, 1.94109, 0.472677, 52.0434, 0, 0, -0.00195312, -0.103516, 0.321289, -9.81738, 12.2.2021 17:51:15.402
673, 1.94109, 0.472677, 52.0434, 0, 0, 0, -0.0498047, 0.3125, -9.76855, 12.2.2021 17:51:15.410
674, 1.9348, 0.469609, 52.0436, 0, 0, 0, -0.131836, 0.351562, -9.77637, 12.2.2021 17:51:15.418
675, 1.9348, 0.469609, 52.0436, 0, -0.000976562, -0.000976562, -0.0507812, 0.34082, -9.81348, 12.2.2021 17:51:15.426
676, 1.9348, 0.469609, 52.0436, 0, -0.000976562, -0.000976562, -0.0888672, 0.306641, -9.80859, 12.2.2021 17:51:15.434
677, 1.9348, 0.469609, 52.0436, 0, -0.000976562, -0.000976562, -0.102539, 0.334961, -9.77734, 12.2.2021 17:51:15.442
678, 1.9348, 0.469609, 52.0436, 0.000976562, 0, 0, -0.0605469, 0.291992, -9.7832, 12.2.2021 17:51:15.450
679, 1.93462, 0.469728, 52.0475, -0.000976562, -0.000976562, -0.000976562, -0.136719, 0.333008, -9.7998, 12.2.2021 17:51:15.458
680, 1.93462, 0.469728, 52.0475, -0.000976562, -0.000976562, -0.000976562, -0.0966797, 0.321289, -9.80859, 12.2.2021 17:51:15.466
681, 1.93462, 0.469728, 52.0475, -0.00195312, 0, 0.000976562, -0.0625, 0.303711, -9.79492, 12.2.2021 17:51:15.474
682, 1.93462, 0.469728, 52.0475, -0.000976562, -0.000976562, 0.000976562, -0.138672, 0.359375, -9.79199, 12.2.2021 17:51:15.482
683, 1.93462, 0.469728, 52.0475, 0, 0, 0, -0.0673828, 0.34082, -9.80371, 12.2.2021 17:51:15.490
684, 1.93493, 0.469754, 52.0555, 0, -0.000976562, -0.00195312, -0.0673828, 0.329102, -9.82031, 12.2.2021 17:51:15.498
685, 1.93493, 0.469754, 52.0555, 0, -0.000976562, -0.00195312, -0.105469, 0.362305, -9.80469, 12.2.2021 17:51:15.506
686, 1.93475, 0.469872, 52.0593, 0, 0, -0.000976562, -0.0458984, 0.293945, -9.77148, 12.2.2021 17:51:15.514
687, 1.93475, 0.469872, 52.0593, 0, 0, 0, -0.115234, 0.326172, -9.81738, 12.2.2021 17:51:15.522
688, 1.93475, 0.469872, 52.0593, 0, 0, 0, -0.106445, 0.348633, -9.83789, 12.2.2021 17:51:15.530
689, 1.93475, 0.469872, 52.0593, 0, -0.000976562, 0, -0.0449219, 0.323242, -9.86133, 12.2.2021 17:51:15.538
690, 1.93475, 0.469872, 52.0593, -0.000976562, -0.000976562, 0, -0.125, 0.335938, -9.79785, 12.2.2021 17:51:15.546
691, 1.93475, 0.469872, 52.0593, -0.000976562, -0.000976562, 0.000976562, -0.0576172, 0.354492, -9.80566, 12.2.2021 17:51:15.554
692, 1.93457, 0.469991, 52.0632, 0, -0.000976562, 0, -0.09375, 0.328125, -9.79395, 12.2.2021 17:51:15.562
693, 1.93457, 0.469991, 52.0632, -0.000976562, -0.000976562, 0, -0.09375, 0.364258, -9.81641, 12.2.2021 17:51:15.570
694, 1.93457, 0.469991, 52.0632, 0, -0.000976562, 0, -0.0410156, 0.301758, -9.80469, 12.2.2021 17:51:15.578
695, 1.93457, 0.469991, 52.0632, 0, 0, 0, -0.131836, 0.342773, -9.81445, 12.2.2021 17:51:15.586
696, 1.93457, 0.469991, 52.0632, -0.000976562, 0, 0, -0.0800781, 0.355469, -9.83105, 12.2.2021 17:51:15.594
697, 1.93487, 0.470017, 52.0712, 0, -0.000976562, -0.000976562, -0.0595703, 0.320312, -9.7832, 12.2.2021 17:51:15.602
698, 1.93487, 0.470017, 52.0712, 0, 0, 0, -0.143555, 0.360352, -9.81543, 12.2.2021 17:51:15.611
699, 1.93487, 0.470017, 52.0712, 0, 0, 0, -0.0800781, 0.350586, -9.82422, 12.2.2021 17:51:15.618
700, 1.93487, 0.470017, 52.0712, 0, -0.000976562, 0.000976562, -0.0585938, 0.324219, -9.82715, 12.2.2021 17:51:15.626
701, 1.93469, 0.470136, 52.0751, 0, -0.000976562, 0, -0.119141, 0.361328, -9.7832, 12.2.2021 17:51:15.634
702, 1.93469, 0.470136, 52.0751, -0.000976562, 0, 0, -0.0322266, 0.335938, -9.81836, 12.2.2021 17:51:15.642
703, 1.93469, 0.470136, 52.0751, 0, -0.000976562, 0, -0.108398, 0.323242, -9.7959, 12.2.2021 17:51:15.650
704, 1.93469, 0.470136, 52.0751, 0, 0, -0.000976562, -0.100586, 0.34082, -9.80273, 12.2.2021 17:51:15.658
705, 1.93469, 0.470136, 52.0751, 0, -0.000976562, -0.000976562, -0.0507812, 0.325195, -9.79199, 12.2.2021 17:51:15.666
706, 1.93469, 0.470136, 52.0751, 0, 0, 0, -0.151367, 0.352539, -9.81152, 12.2.2021 17:51:15.674
707, 1.93469, 0.470136, 52.0751, 0, 0, 0, -0.0556641, 0.335938, -9.81543, 12.2.2021 17:51:15.682
708, 1.93469, 0.470136, 52.0751, 0, -0.000976562, 0.000976562, -0.0595703, 0.310547, -9.7666, 12.2.2021 17:51:15.690
709, 1.93469, 0.470136, 52.0751, 0, 0, 0, -0.105469, 0.334961, -9.78418, 12.2.2021 17:51:15.698
710, 1.93469, 0.470136, 52.0751, 0, 0, 0.000976562, -0.0332031, 0.327148, -9.77344, 12.2.2021 17:51:15.706
711, 1.93469, 0.470136, 52.0751, -0.000976562, -0.000976562, -0.000976562, -0.0605469, 0.328125, -9.80176, 12.2.2021 17:51:15.714
712, 1.93451, 0.470254, 52.079, 0, -0.000976562, 0, -0.115234, 0.378906, -9.81543, 12.2.2021 17:51:15.722
713, 1.93451, 0.470254, 52.079, 0, -0.000976562, 0, -0.0292969, 0.323242, -9.80176, 12.2.2021 17:51:15.730
714, 1.93451, 0.470254, 52.079, -0.000976562, 0, 0, -0.148438, 0.333008, -9.78125, 12.2.2021 17:51:15.738
715, 1.93451, 0.470254, 52.079, -0.000976562, -0.000976562, -0.000976562, -0.0693359, 0.330078, -9.79199, 12.2.2021 17:51:15.746
716, 1.93482, 0.47028, 52.087, 0, 0, -0.000976562, -0.0556641, 0.358398, -9.78418, 12.2.2021 17:51:15.754
717, 1.93482, 0.47028, 52.087, 0, 0, 0, -0.117188, 0.367188, -9.80176, 12.2.2021 17:51:15.762
718, 1.93463, 0.470399, 52.0908, 0, 0, 0, -0.0439453, 0.345703, -9.81738, 12.2.2021 17:51:15.770
719, 1.93463, 0.470399, 52.0908, -0.000976562, -0.00195312, 0, -0.0751953, 0.314453, -9.81348, 12.2.2021 17:51:15.778
720, 1.93463, 0.470399, 52.0908, -0.000976562, -0.00195312, 0, -0.0820312, 0.333984, -9.81738, 12.2.2021 17:51:15.786
721, 1.93463, 0.470399, 52.0908, 0, -0.000976562, 0, -0.0419922, 0.300781, -9.83301, 12.2.2021 17:51:15.794
722, 1.93463, 0.470399, 52.0908, -0.000976562, -0.00195312, 0, -0.131836, 0.335938, -9.80273, 12.2.2021 17:51:15.802
723, 1.93463, 0.470399, 52.0908, -0.000976562, -0.000976562, 0, -0.0537109, 0.342773, -9.80566, 12.2.2021 17:51:15.810
724, 1.93463, 0.470399, 52.0908, 0, -0.000976562, 0, -0.046875, 0.331055, -9.82324, 12.2.2021 17:51:15.818
725, 1.93463, 0.470399, 52.0908, -0.000976562, -0.000976562, 0, -0.115234, 0.355469, -9.82812, 12.2.2021 17:51:15.826
726, 1.93445, 0.470518, 52.0947, -0.000976562, -0.000976562, 0, -0.0507812, 0.331055, -9.80176, 12.2.2021 17:51:15.834
727, 1.93445, 0.470518, 52.0947, 0, 0, 0, -0.0908203, 0.320312, -9.77734, 12.2.2021 17:51:15.842
728, 1.93445, 0.470518, 52.0947, -0.000976562, 0, 0.000976562, -0.110352, 0.34082, -9.8125, 12.2.2021 17:51:15.850
729, 1.93445, 0.470518, 52.0947, -0.000976562, 0, -0.000976562, -0.0214844, 0.330078, -9.77344, 12.2.2021 17:51:15.858
730, 1.93445, 0.470518, 52.0947, -0.000976562, -0.000976562, 0, -0.101562, 0.326172, -9.81543, 12.2.2021 17:51:15.866
731, 1.94104, 0.473615, 52.1026, -0.000976562, -0.000976562, -0.00195312, -0.0986328, 0.306641, -9.79199, 12.2.2021 17:51:15.874
732, 1.94086, 0.473734, 52.1064, 0.000976562, -0.000976562, -0.00195312, -0.0410156, 0.294922, -9.79102, 12.2.2021 17:51:15.882
733, 1.93458, 0.470663, 52.1066, 0.000976562, -0.000976562, 0, -0.107422, 0.352539, -9.79492, 12.2.2021 17:51:15.890
734, 1.93458, 0.470663, 52.1066, 0, -0.000976562, 0.000976562, -0.0595703, 0.333984, -9.74512, 12.2.2021 17:51:15.898
735, 1.93458, 0.470663, 52.1066, -0.000976562, 0, -0.000976562, -0.0888672, 0.323242, -9.78418, 12.2.2021 17:51:15.906
736, 1.94086, 0.473734, 52.1064, -0.000976562, 0, 0, -0.110352, 0.359375, -9.7998, 12.2.2021 17:51:15.914
737, 1.94086, 0.473734, 52.1064, -0.000976562, -0.000976562, 0, -0.0537109, 0.321289, -9.82324, 12.2.2021 17:51:15.922
738, 1.94086, 0.473734, 52.1064, -0.00195312, -0.000976562, 0, -0.126953, 0.341797, -9.76953, 12.2.2021 17:51:15.930
739, 1.94067, 0.473853, 52.1103, -0.000976562, -0.000976562, 0, -0.0820312, 0.323242, -9.78906, 12.2.2021 17:51:15.938
740, 1.94067, 0.473853, 52.1103, 0, 0, 0, -0.0673828, 0.298828, -9.78809, 12.2.2021 17:51:15.946
741, 1.94067, 0.473853, 52.1103, 0, -0.000976562, 0, -0.146484, 0.349609, -9.7998, 12.2.2021 17:51:15.954
742, 1.94067, 0.473853, 52.1103, -0.000976562, -0.000976562, 0, -0.0673828, 0.321289, -9.80859, 12.2.2021 17:51:15.962
743, 1.94067, 0.473853, 52.1103, -0.00195312, 0, 0, -0.0683594, 0.317383, -9.83008, 12.2.2021 17:51:15.970
744, 1.94067, 0.473853, 52.1103, -0.00195312, 0, -0.000976562, -0.0986328, 0.355469, -9.81934, 12.2.2021 17:51:15.978
745, 1.94067, 0.473853, 52.1103, -0.000976562, 0, 0, -0.0244141, 0.285156, -9.80078, 12.2.2021 17:51:15.986
746, 1.94098, 0.473879, 52.1183, -0.000976562, 0, -0.000976562, -0.124023, 0.337891, -9.78125, 12.2.2021 17:51:15.994
747, 1.94098, 0.473879, 52.1183, 0, -0.000976562, 0, -0.0957031, 0.354492, -9.78613, 12.2.2021 17:51:16.002
748, 1.94098, 0.473879, 52.1183, -0.000976562, 0, 0.000976562, -0.0605469, 0.333008, -9.78906, 12.2.2021 17:51:16.010
749, 1.94098, 0.473879, 52.1183, -0.000976562, -0.000976562, 0.000976562, -0.107422, 0.354492, -9.78809, 12.2.2021 17:51:16.018
750, 1.9408, 0.473998, 52.1222, -0.000976562, -0.000976562, 0, -0.0244141, 0.34668, -9.76855, 12.2.2021 17:51:16.026
751, 1.9408, 0.473998, 52.1222, -0.000976562, -0.000976562, 0, -0.0673828, 0.336914, -9.78223, 12.2.2021 17:51:16.034
752, 1.9408, 0.473998, 52.1222, -0.000976562, -0.000976562, 0, -0.0888672, 0.326172, -9.81738, 12.2.2021 17:51:16.042
753, 1.9408, 0.473998, 52.1222, -0.000976562, -0.000976562, 0.000976562, -0.0292969, 0.308594, -9.7793, 12.2.2021 17:51:16.050
754, 1.9408, 0.473998, 52.1222, -0.000976562, -0.000976562, 0, -0.09375, 0.347656, -9.7959, 12.2.2021 17:51:16.058
755, 1.9408, 0.473998, 52.1222, 0, -0.000976562, 0, -0.0839844, 0.337891, -9.79102, 12.2.2021 17:51:16.066
756, 1.9408, 0.473998, 52.1222, 0, -0.000976562, -0.00195312, -0.0517578, 0.332031, -9.83496, 12.2.2021 17:51:16.074
757, 1.94062, 0.474117, 52.126, 0, -0.000976562, 0.000976562, -0.120117, 0.344727, -9.78613, 12.2.2021 17:51:16.083
758, 1.94062, 0.474117, 52.126, -0.000976562, -0.000976562, 0, -0.0839844, 0.352539, -9.80469, 12.2.2021 17:51:16.090
759, 1.94062, 0.474117, 52.126, 0, 0, -0.00195312, -0.0869141, 0.317383, -9.82227, 12.2.2021 17:51:16.098
760, 1.94062, 0.474117, 52.126, 0, 0, -0.00195312, -0.141602, 0.34375, -9.83301, 12.2.2021 17:51:16.106
761, 1.94092, 0.474143, 52.1341, 0, 0, -0.00195312, -0.0253906, 0.314453, -9.83105, 12.2.2021 17:51:16.114
762, 1.94074, 0.474263, 52.1379, -0.000976562, -0.000976562, -0.00195312, -0.126953, 0.326172, -9.79297, 12.2.2021 17:51:16.122
763, 1.94074, 0.474263, 52.1379, -0.000976562, -0.000976562, -0.00195312, -0.0839844, 0.357422, -9.79785, 12.2.2021 17:51:16.130
764, 1.94074, 0.474263, 52.1379, 0, -0.000976562, 0, -0.0429688, 0.322266, -9.74805, 12.2.2021 17:51:16.138
765, 1.94074, 0.474263, 52.1379, 0, -0.000976562, 0, -0.112305, 0.333008, -9.78125, 12.2.2021 17:51:16.146
766, 1.94074, 0.474263, 52.1379, -0.000976562, 0, 0, -0.0673828, 0.323242, -9.78223, 12.2.2021 17:51:16.154
767, 1.94074, 0.474263, 52.1379, -0.000976562, -0.000976562, 0, -0.0722656, 0.331055, -9.81055, 12.2.2021 17:51:16.162
768, 1.94074, 0.474263, 52.1379, 0, 0, 0, -0.101562, 0.352539, -9.81445, 12.2.2021 17:51:16.170
769, 1.94074, 0.474263, 52.1379, 0, -0.00195312, 0, -0.0361328, 0.333008, -9.80176, 12.2.2021 17:51:16.178
770, 1.94074, 0.474263, 52.1379, -0.000976562, -0.000976562, 0.000976562, -0.103516, 0.338867, -9.82422, 12.2.2021 17:51:16.186
771, 1.94074, 0.474263, 52.1379, -0.000976562, 0, 0.000976562, -0.103516, 0.342773, -9.80469, 12.2.2021 17:51:16.194
772, 1.94074, 0.474263, 52.1379, -0.000976562, -0.000976562, -0.00195312, -0.0244141, 0.335938, -9.80469, 12.2.2021 17:51:16.200
773, 1.94074, 0.474263, 52.1379, -0.000976562, -0.00195312, 0, -0.129883, 0.342773, -9.80957, 12.2.2021 17:51:16.208
774, 1.94074, 0.474263, 52.1379, 0, -0.000976562, 0, -0.0673828, 0.357422, -9.81738, 12.2.2021 17:51:16.216
775, 1.94074, 0.474263, 52.1379, 0, -0.000976562, 0.000976562, -0.0888672, 0.337891, -9.79395, 12.2.2021 17:51:16.224
776, 1.94056, 0.474382, 52.1418, -0.000976562, -0.00195312, 0, -0.125, 0.324219, -9.8291, 12.2.2021 17:51:16.232
777, 1.94056, 0.474382, 52.1418, 0, -0.000976562, 0, -0.0488281, 0.329102, -9.83008, 12.2.2021 17:51:16.240
778, 1.94056, 0.474382, 52.1418, 0, 0, -0.00195312, -0.105469, 0.335938, -9.79785, 12.2.2021 17:51:16.248
779, 1.94056, 0.474382, 52.1418, 0, 0, 0, -0.126953, 0.368164, -9.76855, 12.2.2021 17:51:16.256
780, 1.94056, 0.474382, 52.1418, 0, 0, -0.00195312, -0.0361328, 0.320312, -9.77148, 12.2.2021 17:51:16.264
781, 1.94056, 0.474382, 52.1418, 0, 0, 0, -0.117188, 0.321289, -9.78906, 12.2.2021 17:51:16.272
782, 1.94087, 0.474408, 52.1498, 0, -0.000976562, 0.000976562, -0.0458984, 0.333008, -9.80859, 12.2.2021 17:51:16.280
783, 1.94068, 0.474527, 52.1537, 0.000976562, 0, -0.000976562, -0.0771484, 0.331055, -9.81543, 12.2.2021 17:51:16.288
784, 1.94068, 0.474527, 52.1537, -0.000976562, -0.00195312, -0.00195312, -0.115234, 0.359375, -9.79785, 12.2.2021 17:51:16.296
785, 1.94068, 0.474527, 52.1537, -0.000976562, -0.000976562, 0, -0.0273438, 0.326172, -9.80176, 12.2.2021 17:51:16.304
786, 1.94068, 0.474527, 52.1537, 0, 0, 0, -0.103516, 0.348633, -9.82617, 12.2.2021 17:51:16.312
787, 1.94068, 0.474527, 52.1537, 0, 0, -0.000976562, -0.105469, 0.356445, -9.79297, 12.2.2021 17:51:16.321
788, 1.94068, 0.474527, 52.1537, 0, 0, 0, -0.0224609, 0.342773, -9.81836, 12.2.2021 17:51:16.328
789, 1.94068, 0.474527, 52.1537, -0.000976562, 0, 0, -0.115234, 0.364258, -9.7998, 12.2.2021 17:51:16.336
790, 1.94068, 0.474527, 52.1537, -0.000976562, 0, 0, -0.0839844, 0.354492, -9.80273, 12.2.2021 17:51:16.344
791, 1.94068, 0.474527, 52.1537, 0, -0.000976562, 0, -0.0244141, 0.325195, -9.7832, 12.2.2021 17:51:16.352
792, 1.9405, 0.474646, 52.1575, 0, -0.000976562, -0.00195312, -0.135742, 0.358398, -9.77344, 12.2.2021 17:51:16.360
793, 1.9405, 0.474646, 52.1575, 0, -0.000976562, 0, -0.0693359, 0.320312, -9.78516, 12.2.2021 17:51:16.368
794, 1.9405, 0.474646, 52.1575, -0.000976562, -0.000976562, 0.000976562, -0.0917969, 0.317383, -9.8252, 12.2.2021 17:51:16.376
795, 1.9405, 0.474646, 52.1575, -0.000976562, 0, 0, -0.117188, 0.353516, -9.77344, 12.2.2021 17:51:16.384
796, 1.9405, 0.474646, 52.1575, -0.000976562, 0, 0, -0.0410156, 0.330078, -9.79492, 12.2.2021 17:51:16.392
797, 1.9405, 0.474646, 52.1575, 0, 0, -0.000976562, -0.124023, 0.323242, -9.78125, 12.2.2021 17:51:16.400
798, 1.94081, 0.474672, 52.1656, -0.000976562, -0.000976562, -0.000976562, -0.105469, 0.336914, -9.7793, 12.2.2021 17:51:16.408
799, 1.9437, 0.468511, 52.1695, 0, 0, 0, -0.0556641, 0.318359, -9.78809, 12.2.2021 17:51:16.416
800, 1.9437, 0.468511, 52.1695, 0, 0, 0, -0.132812, 0.317383, -9.83105, 12.2.2021 17:51:16.424
801, 1.9437, 0.468511, 52.1695, 0, 0, -0.000976562, -0.0419922, 0.326172, -9.81836, 12.2.2021 17:51:16.432
802, 1.9437, 0.468511, 52.1695, 0, 0, 0, -0.0957031, 0.334961, -9.77441, 12.2.2021 17:51:16.440
803, 1.9437, 0.468511, 52.1695, 0, -0.000976562, 0, -0.107422, 0.341797, -9.7793, 12.2.2021 17:51:16.448
804, 1.9437, 0.468511, 52.1695, 0.000976562, -0.000976562, 0, -0.0361328, 0.325195, -9.79199, 12.2.2021 17:51:16.456
805, 1.9437, 0.468511, 52.1695, -0.000976562, -0.000976562, 0.000976562, -0.120117, 0.350586, -9.81836, 12.2.2021 17:51:16.464
806, 1.94352, 0.46863, 52.1733, 0, -0.000976562, 0, -0.0830078, 0.323242, -9.85547, 12.2.2021 17:51:16.472
807, 1.94352, 0.46863, 52.1733, 0, 0, 0, -0.0576172, 0.296875, -9.79785, 12.2.2021 17:51:16.480
808, 1.94352, 0.46863, 52.1733, 0, 0, 0, -0.125, 0.349609, -9.79004, 12.2.2021 17:51:16.488
809, 1.93724, 0.465554, 52.1735, 0, 0, 0.000976562, -0.0576172, 0.342773, -9.79688, 12.2.2021 17:51:16.496
810, 1.93724, 0.465554, 52.1735, 0, 0, 0, -0.0576172, 0.316406, -9.79688, 12.2.2021 17:51:16.504
811, 1.93724, 0.465554, 52.1735, -0.000976562, 0, 0, -0.12207, 0.333008, -9.80469, 12.2.2021 17:51:16.512
812, 1.93736, 0.465699, 52.1854, 0, -0.000976562, 0, -0.0292969, 0.305664, -9.77637, 12.2.2021 17:51:16.520
813, 1.93736, 0.465699, 52.1854, 0, -0.000976562, 0, -0.115234, 0.336914, -9.83105, 12.2.2021 17:51:16.528
814, 1.93736, 0.465699, 52.1854, 0, 0, 0, -0.0957031, 0.352539, -9.80762, 12.2.2021 17:51:16.536
815, 1.93736, 0.465699, 52.1854, 0, -0.000976562, 0, -0.0673828, 0.328125, -9.80859, 12.2.2021 17:51:16.544
816, 1.93736, 0.465699, 52.1854, 0.000976562, -0.00195312, 0, -0.141602, 0.355469, -9.8252, 12.2.2021 17:51:16.552
817, 1.93736, 0.465699, 52.1854, 0, -0.000976562, 0, -0.0703125, 0.34082, -9.81543, 12.2.2021 17:51:16.560
818, 1.93718, 0.465818, 52.1892, 0, -0.000976562, 0, -0.0771484, 0.319336, -9.81836, 12.2.2021 17:51:16.568
819, 1.93718, 0.465818, 52.1892, -0.000976562, -0.000976562, 0, -0.0986328, 0.34082, -9.80762, 12.2.2021 17:51:16.576
820, 1.94346, 0.468894, 52.1891, -0.000976562, 0, 0, -0.0175781, 0.323242, -9.81152, 12.2.2021 17:51:16.584
821, 1.94346, 0.468894, 52.1891, -0.000976562, 0, -0.000976562, -0.117188, 0.323242, -9.78906, 12.2.2021 17:51:16.592
822, 1.94346, 0.468894, 52.1891, 0, 0, 0, -0.0908203, 0.330078, -9.78711, 12.2.2021 17:51:16.600
823, 1.94377, 0.468921, 52.1971, 0, 0, 0, -0.0595703, 0.334961, -9.77734, 12.2.2021 17:51:16.608
824, 1.94358, 0.46904, 52.201, 0, -0.000976562, 0, -0.142578, 0.373047, -9.84863, 12.2.2021 17:51:16.616
825, 1.94358, 0.46904, 52.201, -0.000976562, -0.000976562, 0, -0.0693359, 0.333984, -9.76562, 12.2.2021 17:51:16.624
826, 1.94358, 0.46904, 52.201, 0, -0.000976562, 0.000976562, -0.0839844, 0.331055, -9.7959, 12.2.2021 17:51:16.632
827, 1.94358, 0.46904, 52.201, 0, -0.000976562, 0.000976562, -0.125, 0.330078, -9.79102, 12.2.2021 17:51:16.640
828, 1.94358, 0.46904, 52.201, 0, 0, 0, -0.0283203, 0.322266, -9.76465, 12.2.2021 17:51:16.648
829, 1.94358, 0.46904, 52.201, 0, -0.000976562, 0, -0.118164, 0.331055, -9.80957, 12.2.2021 17:51:16.656
830, 1.94051, 0.47532, 52.2009, 0, 0, 0, -0.115234, 0.362305, -9.80957, 12.2.2021 17:51:16.664
831, 1.94051, 0.47532, 52.2009, -0.000976562, -0.000976562, 0.000976562, -0.0820312, 0.311523, -9.81348, 12.2.2021 17:51:16.672
832, 1.9434, 0.469159, 52.2048, -0.000976562, 0, 0, -0.136719, 0.311523, -9.7959, 12.2.2021 17:51:16.680
833, 1.9434, 0.469159, 52.2048, 0, 0, -0.000976562, -0.0595703, 0.303711, -9.77148, 12.2.2021 17:51:16.688
834, 1.9434, 0.469159, 52.2048, 0.000976562, -0.000976562, 0, -0.0771484, 0.304688, -9.80859, 12.2.2021 17:51:16.696
835, 1.94033, 0.475439, 52.2047, 0, 0, 0, -0.123047, 0.348633, -9.82129, 12.2.2021 17:51:16.704
836, 1.94033, 0.475439, 52.2047, 0, 0, 0, -0.0390625, 0.318359, -9.7832, 12.2.2021 17:51:16.712
837, 1.94033, 0.475439, 52.2047, 0, -0.000976562, 0, -0.107422, 0.328125, -9.78906, 12.2.2021 17:51:16.720
838, 1.94033, 0.475439, 52.2047, 0, 0, 0, -0.0849609, 0.362305, -9.82617, 12.2.2021 17:51:16.728
839, 1.94033, 0.475439, 52.2047, 0, 0, 0, -0.0576172, 0.311523, -9.80176, 12.2.2021 17:51:16.736
840, 1.94045, 0.475584, 52.2166, -0.000976562, -0.000976562, 0, -0.126953, 0.369141, -9.79883, 12.2.2021 17:51:16.744
841, 1.94045, 0.475584, 52.2166, 0, -0.000976562, 0, -0.0712891, 0.330078, -9.76367, 12.2.2021 17:51:16.752
842, 1.94045, 0.475584, 52.2166, -0.000976562, 0, 0, -0.0488281, 0.360352, -9.84082, 12.2.2021 17:51:16.760
843, 1.94045, 0.475584, 52.2166, -0.000976562, -0.000976562, 0, -0.0947266, 0.382812, -9.85156, 12.2.2021 17:51:16.768
844, 1.94045, 0.475584, 52.2166, 0, 0, 0, -0.0175781, 0.321289, -9.82617, 12.2.2021 17:51:16.776
845, 1.94045, 0.475584, 52.2166, 0.000976562, -0.000976562, -0.00195312, -0.100586, 0.337891, -9.80957, 12.2.2021 17:51:16.784
846, 1.94027, 0.475703, 52.2205, -0.000976562, -0.000976562, -0.000976562, -0.100586, 0.342773, -9.79785, 12.2.2021 17:51:16.792
847, 1.94027, 0.475703, 52.2205, 0, -0.000976562, -0.000976562, -0.0253906, 0.342773, -9.82031, 12.2.2021 17:51:16.800
848, 1.94027, 0.475703, 52.2205, 0, -0.000976562, -0.000976562, -0.143555, 0.359375, -9.79004, 12.2.2021 17:51:16.808
849, 1.94027, 0.475703, 52.2205, -0.000976562, -0.000976562, -0.000976562, -0.0869141, 0.333008, -9.80078, 12.2.2021 17:51:16.816
850, 1.94027, 0.475703, 52.2205, -0.000976562, -0.000976562, -0.000976562, -0.0429688, 0.306641, -9.78613, 12.2.2021 17:51:16.824
851, 1.94009, 0.475822, 52.2243, 0, -0.000976562, 0.000976562, -0.12207, 0.349609, -9.77344, 12.2.2021 17:51:16.832
852, 1.94039, 0.475848, 52.2324, 0, -0.00195312, 0.000976562, -0.0390625, 0.311523, -9.78613, 12.2.2021 17:51:16.840
853, 1.94039, 0.475848, 52.2324, 0, -0.000976562, -0.000976562, -0.09375, 0.31543, -9.77734, 12.2.2021 17:51:16.848
854, 1.94039, 0.475848, 52.2324, -0.000976562, -0.000976562, -0.000976562, -0.0986328, 0.364258, -9.80664, 12.2.2021 17:51:16.856
855, 1.94039, 0.475848, 52.2324, -0.000976562, 0, 0, -0.0410156, 0.311523, -9.7998, 12.2.2021 17:51:16.864
856, 1.94039, 0.475848, 52.2324, 0, -0.000976562, -0.000976562, -0.105469, 0.347656, -9.80762, 12.2.2021 17:51:16.872
857, 1.94039, 0.475848, 52.2324, 0, -0.000976562, -0.000976562, -0.0820312, 0.347656, -9.79102, 12.2.2021 17:51:16.880
858, 1.94039, 0.475848, 52.2324, -0.000976562, -0.000976562, 0.000976562, -0.0390625, 0.327148, -9.83691, 12.2.2021 17:51:16.888
859, 1.94021, 0.475967, 52.2362, 0, -0.000976562, -0.000976562, -0.106445, 0.356445, -9.84766, 12.2.2021 17:51:16.896
860, 1.94021, 0.475967, 52.2362, -0.000976562, -0.000976562, 0.000976562, -0.0146484, 0.34668, -9.78516, 12.2.2021 17:51:16.904
861, 1.94021, 0.475967, 52.2362, 0, -0.000976562, -0.000976562, -0.0742188, 0.352539, -9.79785, 12.2.2021 17:51:16.912
862, 1.94021, 0.475967, 52.2362, -0.000976562, -0.000976562, -0.000976562, -0.113281, 0.322266, -9.8291, 12.2.2021 17:51:16.920
863, 1.94021, 0.475967, 52.2362, -0.00195312, -0.000976562, 0, -0.0292969, 0.314453, -9.82129, 12.2.2021 17:51:16.928
864, 1.94021, 0.475967, 52.2362, 0, -0.000976562, -0.000976562, -0.136719, 0.323242, -9.78613, 12.2.2021 17:51:16.936
865, 1.94021, 0.475967, 52.2362, -0.000976562, -0.000976562, -0.000976562, -0.0722656, 0.338867, -9.82227, 12.2.2021 17:51:16.944
866, 1.94649, 0.479046, 52.236, 0, -0.000976562, -0.00195312, -0.046875, 0.323242, -9.86816, 12.2.2021 17:51:16.952
867, 1.94649, 0.479046, 52.236, 0, 0, 0, -0.125977, 0.339844, -9.84766, 12.2.2021 17:51:16.960
868, 1.94021, 0.475967, 52.2362, 0, 0, 0, -0.0263672, 0.322266, -9.76465, 12.2.2021 17:51:16.968
869, 1.94021, 0.475967, 52.2362, -0.000976562, 0, 0, -0.0673828, 0.323242, -9.79688, 12.2.2021 17:51:16.976
870, 1.94021, 0.475967, 52.2362, 0.000976562, 0, 0.000976562, -0.120117, 0.350586, -9.81152, 12.2.2021 17:51:16.984
871, 1.94021, 0.475967, 52.2362, 0, -0.000976562, -0.000976562, -0.0458984, 0.349609, -9.7959, 12.2.2021 17:51:16.992
872, 1.94021, 0.475967, 52.2362, -0.000976562, -0.000976562, -0.000976562, -0.0966797, 0.347656, -9.81641, 12.2.2021 17:51:17.000
873, 1.94021, 0.475967, 52.2362, 0, 0, 0.000976562, -0.0751953, 0.345703, -9.8125, 12.2.2021 17:51:17.008
874, 1.94649, 0.479046, 52.236, -0.000976562, -0.000976562, -0.000976562, -0.0722656, 0.321289, -9.80859, 12.2.2021 17:51:17.016
875, 1.94649, 0.479046, 52.236, 0, -0.00195312, -0.000976562, -0.144531, 0.352539, -9.81836, 12.2.2021 17:51:17.024
876, 1.94649, 0.479046, 52.236, 0, -0.00195312, -0.000976562, -0.0556641, 0.337891, -9.80371, 12.2.2021 17:51:17.032
877, 1.94649, 0.479046, 52.236, -0.000976562, -0.000976562, -0.000976562, -0.0693359, 0.333008, -9.79199, 12.2.2021 17:51:17.040
878, 1.94649, 0.479046, 52.236, 0, 0, -0.00195312, -0.110352, 0.339844, -9.79297, 12.2.2021 17:51:17.048
879, 1.94649, 0.479046, 52.236, 0, -0.000976562, -0.00195312, -0.0244141, 0.301758, -9.8125, 12.2.2021 17:51:17.056
880, 1.94649, 0.479046, 52.236, 0, -0.000976562, -0.000976562, -0.129883, 0.335938, -9.81445, 12.2.2021 17:51:17.064
881, 1.94649, 0.479046, 52.236, 0, -0.000976562, -0.000976562, -0.0771484, 0.331055, -9.79688, 12.2.2021 17:51:17.072
882, 1.94649, 0.479046, 52.236, 0, -0.000976562, -0.000976562, -0.0507812, 0.294922, -9.7959, 12.2.2021 17:51:17.080
883, 1.94649, 0.479046, 52.236, 0, -0.000976562, -0.000976562, -0.12207, 0.354492, -9.78125, 12.2.2021 17:51:17.088
884, 1.94649, 0.479046, 52.236, 0, 0, -0.000976562, -0.0625, 0.359375, -9.7959, 12.2.2021 17:51:17.096
885, 1.94649, 0.479046, 52.236, -0.000976562, 0.000976562, -0.00292969, -0.0625, 0.30957, -9.7998, 12.2.2021 17:51:17.104
886, 1.94649, 0.479046, 52.236, -0.000976562, -0.000976562, -0.000976562, -0.117188, 0.349609, -9.80273, 12.2.2021 17:51:17.112
887, 1.94649, 0.479046, 52.236, -0.000976562, -0.000976562, -0.000976562, -0.0332031, 0.303711, -9.77148, 12.2.2021 17:51:17.120
888, 1.94649, 0.479046, 52.236, -0.000976562, -0.000976562, -0.000976562, -0.12207, 0.31543, -9.77246, 12.2.2021 17:51:17.128
889, 1.94649, 0.479046, 52.236, -0.000976562, 0, -0.00195312, -0.09375, 0.34082, -9.81738, 12.2.2021 17:51:17.136
890, 1.94649, 0.479046, 52.236, -0.000976562, 0, -0.00195312, -0.0654297, 0.34082, -9.8291, 12.2.2021 17:51:17.144
891, 1.9463, 0.479166, 52.2399, 0, 0, -0.000976562, -0.125, 0.344727, -9.79492, 12.2.2021 17:51:17.152
892, 1.94661, 0.479192, 52.2479, -0.000976562, -0.000976562, 0, -0.0859375, 0.320312, -9.78711, 12.2.2021 17:51:17.160
893, 1.94661, 0.479192, 52.2479, 0.000976562, -0.000976562, -0.000976562, -0.0917969, 0.299805, -9.81152, 12.2.2021 17:51:17.166
894, 1.94661, 0.479192, 52.2479, -0.000976562, -0.000976562, -0.000976562, -0.0869141, 0.31543, -9.83887, 12.2.2021 17:51:17.174
895, 1.94661, 0.479192, 52.2479, -0.000976562, -0.000976562, -0.00195312, -0.0322266, 0.290039, -9.80078, 12.2.2021 17:51:17.182
896, 1.94661, 0.479192, 52.2479, -0.000976562, -0.00195312, -0.00195312, -0.0986328, 0.328125, -9.80273, 12.2.2021 17:51:17.190
897, 1.94661, 0.479192, 52.2479, 0.000976562, -0.000976562, -0.000976562, -0.115234, 0.360352, -9.83008, 12.2.2021 17:51:17.198
898, 1.94661, 0.479192, 52.2479, 0.000976562, -0.000976562, -0.000976562, -0.0458984, 0.323242, -9.80176, 12.2.2021 17:51:17.206
899, 1.94661, 0.479192, 52.2479, 0, -0.000976562, -0.000976562, -0.138672, 0.347656, -9.80176, 12.2.2021 17:51:17.214
900, 1.94661, 0.479192, 52.2479, 0, 0, -0.000976562, -0.078125, 0.327148, -9.8418, 12.2.2021 17:51:17.222
901, 1.94033, 0.476112, 52.2481, -0.000976562, 0, -0.000976562, -0.0673828, 0.314453, -9.80371, 12.2.2021 17:51:17.230
902, 1.94033, 0.476112, 52.2481, 0, 0, -0.000976562, -0.112305, 0.334961, -9.76465, 12.2.2021 17:51:17.238
903, 1.94033, 0.476112, 52.2481, -0.000976562, -0.000976562, -0.000976562, -0.0214844, 0.332031, -9.76855, 12.2.2021 17:51:17.246
904, 1.94341, 0.469834, 52.2482, -0.000976562, 0, -0.00195312, -0.107422, 0.339844, -9.77441, 12.2.2021 17:51:17.254
905, 1.94969, 0.472913, 52.248, -0.000976562, 0, -0.000976562, -0.120117, 0.331055, -9.80762, 12.2.2021 17:51:17.262
906, 1.94969, 0.472913, 52.248, -0.000976562, 0, -0.000976562, -0.0527344, 0.293945, -9.78613, 12.2.2021 17:51:17.270
907, 1.94341, 0.469834, 52.2482, 0, 0, -0.000976562, -0.107422, 0.330078, -9.79102, 12.2.2021 17:51:17.278
908, 1.94341, 0.469834, 52.2482, 0, 0, -0.000976562, -0.0839844, 0.296875, -9.78027, 12.2.2021 17:51:17.286
909, 1.94341, 0.469834, 52.2482, -0.000976562, -0.000976562, -0.000976562, -0.0556641, 0.320312, -9.78516, 12.2.2021 17:51:17.294
910, 1.94341, 0.469834, 52.2482, 0, -0.000976562, -0.000976562, -0.148438, 0.357422, -9.81152, 12.2.2021 17:51:17.302
911, 1.94323, 0.469953, 52.252, 0, -0.000976562, 0, -0.0341797, 0.323242, -9.80957, 12.2.2021 17:51:17.310
912, 1.94323, 0.469953, 52.252, 0, -0.000976562, 0, -0.113281, 0.34082, -9.81641, 12.2.2021 17:51:17.318
913, 1.94323, 0.469953, 52.252, 0, -0.000976562, 0, -0.0625, 0.352539, -9.81055, 12.2.2021 17:51:17.326
914, 1.94323, 0.469953, 52.252, 0, 0, -0.000976562, -0.0507812, 0.334961, -9.77734, 12.2.2021 17:51:17.334
915, 1.94323, 0.469953, 52.252, 0, -0.000976562, 0, -0.117188, 0.349609, -9.80273, 12.2.2021 17:51:17.342
916, 1.94323, 0.469953, 52.252, 0, -0.000976562, -0.000976562, -0.0986328, 0.350586, -9.8125, 12.2.2021 17:51:17.350
917, 1.94323, 0.469953, 52.252, 0.000976562, -0.00195312, 0, -0.0488281, 0.342773, -9.82031, 12.2.2021 17:51:17.358
918, 1.94015, 0.476231, 52.2519, 0, -0.000976562, -0.000976562, -0.128906, 0.359375, -9.7832, 12.2.2021 17:51:17.366
919, 1.94015, 0.476231, 52.2519, -0.000976562, -0.000976562, 0, -0.0263672, 0.296875, -9.78613, 12.2.2021 17:51:17.374
920, 1.94015, 0.476231, 52.2519, -0.000976562, -0.00195312, 0, -0.0791016, 0.317383, -9.76562, 12.2.2021 17:51:17.382
921, 1.93997, 0.476351, 52.2558, -0.000976562, -0.000976562, 0, -0.110352, 0.355469, -9.81641, 12.2.2021 17:51:17.390
922, 1.93997, 0.476351, 52.2558, -0.000976562, -0.000976562, 0.000976562, -0.0439453, 0.321289, -9.82324, 12.2.2021 17:51:17.398
923, 1.93997, 0.476351, 52.2558, -0.000976562, -0.000976562, 0, -0.131836, 0.356445, -9.78516, 12.2.2021 17:51:17.406
924, 1.93997, 0.476351, 52.2558, 0.000976562, -0.000976562, 0, -0.0986328, 0.339844, -9.79785, 12.2.2021 17:51:17.414
925, 1.94027, 0.476377, 52.2638, 0, -0.000976562, 0, -0.0341797, 0.333008, -9.81348, 12.2.2021 17:51:17.422
926, 1.94027, 0.476377, 52.2638, 0, -0.000976562, 0, -0.117188, 0.344727, -9.79297, 12.2.2021 17:51:17.430
927, 1.94027, 0.476377, 52.2638, -0.000976562, -0.00195312, 0, -0.0244141, 0.330078, -9.7998, 12.2.2021 17:51:17.438
928, 1.94027, 0.476377, 52.2638, 0, -0.00195312, 0, -0.0751953, 0.316406, -9.81543, 12.2.2021 17:51:17.446
929, 1.94027, 0.476377, 52.2638, 0, -0.000976562, -0.000976562, -0.09375, 0.324219, -9.8125, 12.2.2021 17:51:17.454
930, 1.94027, 0.476377, 52.2638, -0.000976562, -0.000976562, 0, -0.03125, 0.310547, -9.7832, 12.2.2021 17:51:17.462
931, 1.94655, 0.479457, 52.2637, -0.00195312, -0.000976562, -0.000976562, -0.12207, 0.333008, -9.79297, 12.2.2021 17:51:17.470
932, 1.94655, 0.479457, 52.2637, -0.000976562, 0, -0.000976562, -0.0673828, 0.334961, -9.79883, 12.2.2021 17:51:17.478
933, 1.94655, 0.479457, 52.2637, -0.000976562, -0.000976562, 0, -0.0791016, 0.331055, -9.80371, 12.2.2021 17:51:17.486
934, 1.94655, 0.479457, 52.2637, -0.000976562, -0.000976562, 0, -0.136719, 0.345703, -9.81152, 12.2.2021 17:51:17.494
935, 1.94637, 0.479576, 52.2675, -0.000976562, 0, -0.000976562, -0.09375, 0.339844, -9.77734, 12.2.2021 17:51:17.502
936, 1.94637, 0.479576, 52.2675, 0, -0.000976562, 0, -0.0693359, 0.327148, -9.77344, 12.2.2021 17:51:17.510
937, 1.94637, 0.479576, 52.2675, 0, -0.000976562, 0, -0.110352, 0.345703, -9.80762, 12.2.2021 17:51:17.518
938, 1.94637, 0.479576, 52.2675, -0.000976562, 0, 0, -0.0488281, 0.342773, -9.80371, 12.2.2021 17:51:17.526
939, 1.94637, 0.479576, 52.2675, -0.000976562, -0.00195312, 0.000976562, -0.103516, 0.354492, -9.80469, 12.2.2021 17:51:17.534
940, 1.94637, 0.479576, 52.2675, -0.000976562, -0.000976562, 0, -0.0839844, 0.323242, -9.80566, 12.2.2021 17:51:17.542
941, 1.94637, 0.479576, 52.2675, 0, 0, -0.000976562, -0.0488281, 0.294922, -9.80762, 12.2.2021 17:51:17.550
942, 1.94637, 0.479576, 52.2675, 0, 0, -0.000976562, -0.131836, 0.347656, -9.79492, 12.2.2021 17:51:17.558
943, 1.94618, 0.479696, 52.2713, -0.000976562, 0, -0.000976562, -0.0634766, 0.34375, -9.8291, 12.2.2021 17:51:17.566
944, 1.94649, 0.479722, 52.2794, 0, -0.000976562, 0, -0.0703125, 0.3125, -9.83496, 12.2.2021 17:51:17.574
945, 1.94649, 0.479722, 52.2794, -0.000976562, -0.000976562, 0, -0.0917969, 0.352539, -9.8125, 12.2.2021 17:51:17.582
946, 1.94649, 0.479722, 52.2794, -0.000976562, -0.000976562, 0, -0.0146484, 0.296875, -9.79395, 12.2.2021 17:51:17.590
947, 1.94649, 0.479722, 52.2794, -0.000976562, -0.000976562, 0, -0.0986328, 0.311523, -9.79883, 12.2.2021 17:51:17.598
948, 1.94649, 0.479722, 52.2794, -0.000976562, 0, -0.000976562, -0.0908203, 0.330078, -9.76562, 12.2.2021 17:51:17.606
949, 1.94649, 0.479722, 52.2794, 0, -0.00195312, 0, -0.0488281, 0.308594, -9.79492, 12.2.2021 17:51:17.614
950, 1.94649, 0.479722, 52.2794, -0.000976562, -0.00195312, 0, -0.134766, 0.337891, -9.80957, 12.2.2021 17:51:17.622
951, 1.94649, 0.479722, 52.2794, 0, -0.000976562, 0, -0.0527344, 0.323242, -9.78711, 12.2.2021 17:51:17.630
952, 1.94618, 0.479696, 52.2713, 0, 0.000976562, 0, -0.0839844, 0.318359, -9.79883, 12.2.2021 17:51:17.638
953, 1.94618, 0.479696, 52.2713, -0.000976562, -0.000976562, 0.000976562, -0.115234, 0.362305, -9.82324, 12.2.2021 17:51:17.646
954, 1.94637, 0.479576, 52.2675, -0.000976562, -0.000976562, 0, -0.0205078, 0.307617, -9.83105, 12.2.2021 17:51:17.654
955, 1.94637, 0.479576, 52.2675, 0.000976562, 0.000976562, 0, -0.0986328, 0.337891, -9.80566, 12.2.2021 17:51:17.662
956, 1.94637, 0.479576, 52.2675, -0.000976562, -0.00195312, 0, -0.0556641, 0.362305, -9.80566, 12.2.2021 17:51:17.670
957, 1.94637, 0.479576, 52.2675, 0, 0, -0.000976562, -0.0351562, 0.327148, -9.84473, 12.2.2021 17:51:17.678
958, 1.94637, 0.479576, 52.2675, -0.000976562, 0, -0.000976562, -0.139648, 0.360352, -9.81543, 12.2.2021 17:51:17.686
959, 1.94637, 0.479576, 52.2675, -0.000976562, -0.00195312, 0, -0.0673828, 0.344727, -9.80371, 12.2.2021 17:51:17.694
960, 1.94618, 0.479696, 52.2713, -0.000976562, -0.000976562, 0, -0.09375, 0.331055, -9.80078, 12.2.2021 17:51:17.702
961, 1.94618, 0.479696, 52.2713, -0.000976562, -0.00195312, 0.000976562, -0.144531, 0.329102, -9.83301, 12.2.2021 17:51:17.710
962, 1.94618, 0.479696, 52.2713, -0.000976562, -0.000976562, 0, -0.0439453, 0.333008, -9.80859, 12.2.2021 17:51:17.718
963, 1.94618, 0.479696, 52.2713, -0.000976562, -0.000976562, 0, -0.100586, 0.313477, -9.79199, 12.2.2021 17:51:17.726
964, 1.94649, 0.479722, 52.2794, -0.000976562, 0.000976562, -0.000976562, -0.0888672, 0.354492, -9.7793, 12.2.2021 17:51:17.734
965, 1.94649, 0.479722, 52.2794, 0, -0.000976562, 0, -0.0507812, 0.320312, -9.77539, 12.2.2021 17:51:17.742
966, 1.94649, 0.479722, 52.2794, 0, 0.000976562, 0, -0.120117, 0.34082, -9.81152, 12.2.2021 17:51:17.750
967, 1.94649, 0.479722, 52.2794, 0, 0.000976562, 0.000976562, -0.0791016, 0.328125, -9.78223, 12.2.2021 17:51:17.758
968, 1.94649, 0.479722, 52.2794, 0, -0.000976562, 0, -0.0771484, 0.296875, -9.7832, 12.2.2021 17:51:17.766
969, 1.94649, 0.479722, 52.2794, -0.000976562, 0.00195312, 0.000976562, -0.115234, 0.311523, -9.80859, 12.2.2021 17:51:17.774
970, 1.94649, 0.479722, 52.2794, -0.00195312, -0.000976562, 0.000976562, -0.0126953, 0.306641, -9.81738, 12.2.2021 17:51:17.782
971, 1.94649, 0.479722, 52.2794, -0.000976562, 0.000976562, 0.000976562, -0.0917969, 0.323242, -9.80078, 12.2.2021 17:51:17.791
972, 1.94649, 0.479722, 52.2794, -0.000976562, -0.000976562, 0, -0.0927734, 0.317383, -9.75391, 12.2.2021 17:51:17.798
973, 1.94649, 0.479722, 52.2794, 0, -0.000976562, 0, -0.0322266, 0.316406, -9.80957, 12.2.2021 17:51:17.806
974, 1.94649, 0.479722, 52.2794, 0, 0, -0.000976562, -0.12207, 0.316406, -9.80762, 12.2.2021 17:51:17.814
975, 1.94957, 0.473444, 52.2795, -0.000976562, -0.000976562, -0.000976562, -0.0722656, 0.304688, -9.81641, 12.2.2021 17:51:17.822
976, 1.94957, 0.473444, 52.2795, -0.000976562, 0, 0, -0.0644531, 0.336914, -9.75879, 12.2.2021 17:51:17.830
977, 1.94957, 0.473444, 52.2795, -0.000976562, -0.000976562, -0.000976562, -0.148438, 0.353516, -9.77148, 12.2.2021 17:51:17.838
978, 1.94957, 0.473444, 52.2795, -0.000976562, -0.000976562, -0.000976562, -0.0605469, 0.337891, -9.80078, 12.2.2021 17:51:17.846
979, 1.94957, 0.473444, 52.2795, 0, -0.000976562, -0.000976562, -0.0771484, 0.345703, -9.81445, 12.2.2021 17:51:17.854
980, 1.94957, 0.473444, 52.2795, -0.000976562, 0, 0, -0.110352, 0.330078, -9.79395, 12.2.2021 17:51:17.862
981, 1.94957, 0.473444, 52.2795, -0.000976562, -0.000976562, -0.000976562, -0.0341797, 0.279297, -9.77441, 12.2.2021 17:51:17.870
982, 1.94957, 0.473444, 52.2795, 0, -0.000976562, -0.000976562, -0.138672, 0.336914, -9.7666, 12.2.2021 17:51:17.878
983, 1.94957, 0.473444, 52.2795, 0, -0.000976562, -0.000976562, -0.0839844, 0.337891, -9.80273, 12.2.2021 17:51:17.886
984, 1.94957, 0.473444, 52.2795, -0.000976562, -0.000976562, -0.000976562, -0.0576172, 0.325195, -9.78223, 12.2.2021 17:51:17.894
985, 1.94957, 0.473444, 52.2795, -0.000976562, -0.000976562, -0.00195312, -0.118164, 0.353516, -9.83008, 12.2.2021 17:51:17.902
986, 1.94957, 0.473444, 52.2795, 0, -0.000976562, -0.00195312, -0.0439453, 0.333984, -9.82324, 12.2.2021 17:51:17.910
987, 1.94957, 0.473444, 52.2795, 0.000976562, -0.000976562, -0.000976562, -0.0908203, 0.330078, -9.78906, 12.2.2021 17:51:17.918
988, 1.94957, 0.473444, 52.2795, 0, 0, -0.000976562, -0.09375, 0.34668, -9.78125, 12.2.2021 17:51:17.926
989, 1.94957, 0.473444, 52.2795, -0.000976562, -0.000976562, -0.000976562, -0.0517578, 0.336914, -9.84668, 12.2.2021 17:51:17.934
990, 1.94957, 0.473444, 52.2795, -0.000976562, 0, 0.000976562, -0.126953, 0.325195, -9.77246, 12.2.2021 17:51:17.942
991, 1.94957, 0.473444, 52.2795, 0, 0, -0.000976562, -0.0898438, 0.34082, -9.8291, 12.2.2021 17:51:17.950
992, 1.94957, 0.473444, 52.2795, 0, 0, -0.000976562, -0.0332031, 0.351562, -9.86035, 12.2.2021 17:51:17.958
993, 1.94957, 0.473444, 52.2795, 0, -0.000976562, -0.000976562, -0.103516, 0.330078, -9.78906, 12.2.2021 17:51:17.966
994, 1.94329, 0.470363, 52.2796, 0, 0, -0.000976562, -0.0742188, 0.323242, -9.78711, 12.2.2021 17:51:17.974
995, 1.94329, 0.470363, 52.2796, -0.000976562, -0.000976562, -0.000976562, -0.0839844, 0.306641, -9.7832, 12.2.2021 17:51:17.982
996, 1.94329, 0.470363, 52.2796, 0, 0, -0.000976562, -0.112305, 0.332031, -9.77734, 12.2.2021 17:51:17.990
997, 1.94329, 0.470363, 52.2796, 0, 0, -0.000976562, -0.0126953, 0.344727, -9.7832, 12.2.2021 17:51:17.998
998, 1.94329, 0.470363, 52.2796, -0.000976562, 0, 0, -0.134766, 0.337891, -9.80273, 12.2.2021 17:51:18.006
999, 1.94329, 0.470363, 52.2796, -0.000976562, 0, 0, -0.0742188, 0.355469, -9.76074, 12.2.2021 17:51:18.014
1000, 1.94329, 0.470363, 52.2796, 0, 0, -0.000976562, -0.0644531, 0.318359, -9.78711, 12.2.2021 17:51:18.022
1001, 1.94329, 0.470363, 52.2796, 0, 0, -0.00195312, -0.118164, 0.352539, -9.80957, 12.2.2021 17:51:18.030
1002, 1.94329, 0.470363, 52.2796, -0.000976562, -0.000976562, -0.00195312, -0.0488281, 0.321289, -9.7998, 12.2.2021 17:51:18.038
1003, 1.94329, 0.470363, 52.2796, 0, 0, -0.00195312, -0.0791016, 0.321289, -9.79883, 12.2.2021 17:51:18.046
1004, 1.94329, 0.470363, 52.2796, 0, -0.000976562, -0.00195312, -0.0986328, 0.369141, -9.81152, 12.2.2021 17:51:18.054
1005, 1.94329, 0.470363, 52.2796, 0, -0.000976562, -0.000976562, -0.0507812, 0.329102, -9.81836, 12.2.2021 17:51:18.062
1006, 1.94329, 0.470363, 52.2796, 0, -0.000976562, 0, -0.114258, 0.330078, -9.76953, 12.2.2021 17:51:18.070
1007, 1.94329, 0.470363, 52.2796, 0, 0, 0, -0.0458984, 0.30957, -9.81152, 12.2.2021 17:51:18.078
1008, 1.94329, 0.470363, 52.2796, 0, 0, 0, -0.0302734, 0.319336, -9.82617, 12.2.2021 17:51:18.086
1009, 1.94299, 0.470337, 52.2716, -0.000976562, -0.000976562, 0, -0.131836, 0.352539, -9.81348, 12.2.2021 17:51:18.094
1010, 1.94317, 0.470218, 52.2677, 0, 0, 0, -0.0478516, 0.318359, -9.78809, 12.2.2021 17:51:18.102
1011, 1.94317, 0.470218, 52.2677, 0, -0.000976562, 0, -0.0800781, 0.331055, -9.82227, 12.2.2021 17:51:18.108
1012, 1.94317, 0.470218, 52.2677, -0.000976562, -0.000976562, -0.000976562, -0.12207, 0.329102, -9.80957, 12.2.2021 17:51:18.116
1013, 1.94317, 0.470218, 52.2677, 0, 0, 0, -0.0527344, 0.318359, -9.78516, 12.2.2021 17:51:18.124
1014, 1.94317, 0.470218, 52.2677, -0.000976562, 0, -0.000976562, -0.12207, 0.325195, -9.78418, 12.2.2021 17:51:18.132
1015, 1.94317, 0.470218, 52.2677, 0, -0.000976562, -0.000976562, -0.09375, 0.338867, -9.81738, 12.2.2021 17:51:18.140
1016, 1.94317, 0.470218, 52.2677, 0, 0, 0, -0.0458984, 0.325195, -9.7666, 12.2.2021 17:51:18.148
1017, 1.94317, 0.470218, 52.2677, 0, 0, 0, -0.134766, 0.324219, -9.82129, 12.2.2021 17:51:18.156
1018, 1.94317, 0.470218, 52.2677, 0, -0.00195312, 0, -0.0703125, 0.34082, -9.81055, 12.2.2021 17:51:18.164
1019, 1.94317, 0.470218, 52.2677, 0, -0.000976562, 0, -0.0605469, 0.308594, -9.78516, 12.2.2021 17:51:18.172
1020, 1.94317, 0.470218, 52.2677, 0, -0.000976562, -0.000976562, -0.124023, 0.34668, -9.77637, 12.2.2021 17:51:18.180
1021, 1.94317, 0.470218, 52.2677, -0.000976562, -0.000976562, -0.000976562, -0.0175781, 0.342773, -9.79492, 12.2.2021 17:51:18.188
1022, 1.94317, 0.470218, 52.2677, 0, 0, 0, -0.0869141, 0.328125, -9.80371, 12.2.2021 17:51:18.196
1023, 1.94317, 0.470218, 52.2677, 0.000976562, -0.000976562, 0, -0.0966797, 0.311523, -9.81055, 12.2.2021 17:51:18.204
1024, 1.94317, 0.470218, 52.2677, -0.000976562, 0, -0.000976562, -0.0537109, 0.314453, -9.8252, 12.2.2021 17:51:18.212
1025, 1.94317, 0.470218, 52.2677, -0.000976562, -0.000976562, 0, -0.136719, 0.328125, -9.79102, 12.2.2021 17:51:18.220
1026, 1.94317, 0.470218, 52.2677, -0.000976562, -0.000976562, -0.000976562, -0.0625, 0.333984, -9.81543, 12.2.2021 17:51:18.228
1027, 1.94317, 0.470218, 52.2677, 0, -0.000976562, 0, -0.0800781, 0.310547, -9.83496, 12.2.2021 17:51:18.236
1028, 1.94317, 0.470218, 52.2677, 0, -0.000976562, 0, -0.138672, 0.339844, -9.7832, 12.2.2021 17:51:18.244
1029, 1.94317, 0.470218, 52.2677, 0, -0.000976562, -0.000976562, -0.0439453, 0.328125, -9.79688, 12.2.2021 17:51:18.252
1030, 1.94317, 0.470218, 52.2677, 0, 0, 0, -0.107422, 0.328125, -9.77734, 12.2.2021 17:51:18.260
1031, 1.94317, 0.470218, 52.2677, -0.000976562, -0.000976562, 0, -0.105469, 0.352539, -9.80469, 12.2.2021 17:51:18.268
1032, 1.94317, 0.470218, 52.2677, 0, -0.000976562, -0.000976562, -0.0126953, 0.316406, -9.79785, 12.2.2021 17:51:18.276
1033, 1.94317, 0.470218, 52.2677, -0.000976562, -0.000976562, 0, -0.115234, 0.344727, -9.79492, 12.2.2021 17:51:18.284
1034, 1.94317, 0.470218, 52.2677, -0.00195312, 0, 0, -0.0742188, 0.318359, -9.80176, 12.2.2021 17:51:18.292
1035, 1.94317, 0.470218, 52.2677, -0.000976562, -0.000976562, -0.000976562, -0.0605469, 0.296875, -9.80273, 12.2.2021 17:51:18.300
1036, 1.94299, 0.470337, 52.2716, 0, -0.00195312, 0, -0.115234, 0.326172, -9.81445, 12.2.2021 17:51:18.308
1037, 1.94299, 0.470337, 52.2716, 0, -0.000976562, 0, -0.0439453, 0.316406, -9.81152, 12.2.2021 17:51:18.316
1038, 1.94021, 0.476641, 52.2796, 0, -0.000976562, 0, -0.0751953, 0.329102, -9.82031, 12.2.2021 17:51:18.324
1039, 1.94021, 0.476641, 52.2796, 0, -0.000976562, 0, -0.0771484, 0.370117, -9.83301, 12.2.2021 17:51:18.332
1040, 1.94021, 0.476641, 52.2796, -0.000976562, 0, 0, -0.0722656, 0.335938, -9.80566, 12.2.2021 17:51:18.340
1041, 1.94329, 0.470363, 52.2796, -0.000976562, 0, -0.000976562, -0.136719, 0.317383, -9.81738, 12.2.2021 17:51:18.348
1042, 1.94329, 0.470363, 52.2796, -0.000976562, -0.000976562, -0.000976562, -0.0703125, 0.347656, -9.80273, 12.2.2021 17:51:18.356
1043, 1.94329, 0.470363, 52.2796, 0, -0.000976562, 0, -0.0615234, 0.34668, -9.84375, 12.2.2021 17:51:18.364
1044, 1.94329, 0.470363, 52.2796, -0.000976562, -0.000976562, 0, -0.130859, 0.334961, -9.85254, 12.2.2021 17:51:18.372
1045, 1.94329, 0.470363, 52.2796, -0.000976562, 0, 0, -0.0488281, 0.331055, -9.80371, 12.2.2021 17:51:18.380
1046, 1.94329, 0.470363, 52.2796, 0, 0, 0, -0.103516, 0.349609, -9.7998, 12.2.2021 17:51:18.388
1047, 1.94329, 0.470363, 52.2796, 0, 0, 0, -0.0869141, 0.349609, -9.79785, 12.2.2021 17:51:18.396
1048, 1.94329, 0.470363, 52.2796, -0.000976562, -0.000976562, -0.000976562, -0.0439453, 0.321289, -9.79297, 12.2.2021 17:51:18.404
1049, 1.94329, 0.470363, 52.2796, 0, 0, -0.000976562, -0.124023, 0.34668, -9.77637, 12.2.2021 17:51:18.412
1050, 1.94311, 0.470482, 52.2835, 0, 0, 0, -0.0498047, 0.320312, -9.76172, 12.2.2021 17:51:18.420
1051, 1.94311, 0.470482, 52.2835, -0.000976562, 0, 0, -0.0556641, 0.34082, -9.80566, 12.2.2021 17:51:18.428
1052, 1.94311, 0.470482, 52.2835, -0.00195312, -0.000976562, 0, -0.117188, 0.354492, -9.79297, 12.2.2021 17:51:18.436
1053, 1.94311, 0.470482, 52.2835, -0.000976562, -0.000976562, -0.000976562, -0.0214844, 0.328125, -9.7832, 12.2.2021 17:51:18.444
1054, 1.94311, 0.470482, 52.2835, 0, -0.000976562, 0, -0.0605469, 0.330078, -9.79199, 12.2.2021 17:51:18.452
1055, 1.94311, 0.470482, 52.2835, -0.000976562, -0.000976562, -0.000976562, -0.115234, 0.364258, -9.80859, 12.2.2021 17:51:18.460
1056, 1.94311, 0.470482, 52.2835, -0.000976562, 0, 0, -0.0380859, 0.325195, -9.78027, 12.2.2021 17:51:18.468
1057, 1.94311, 0.470482, 52.2835, 0, -0.000976562, 0, -0.115234, 0.342773, -9.78809, 12.2.2021 17:51:18.476
1058, 1.94311, 0.470482, 52.2835, 0, -0.000976562, 0, -0.0771484, 0.351562, -9.79102, 12.2.2021 17:51:18.484
1059, 1.94311, 0.470482, 52.2835, -0.000976562, -0.000976562, 0, -0.0371094, 0.329102, -9.81641, 12.2.2021 17:51:18.492
1060, 1.94311, 0.470482, 52.2835, -0.000976562, 0, -0.000976562, -0.133789, 0.336914, -9.75781, 12.2.2021 17:51:18.500
