Seq, Rot x, Rot y, Rot z, Vel x, Vel y, Vel z, Acc x, Acc y, Acc z, Time(m.d.y h:m:s.ms)
0, 1.81997, 359.531, 195.26, -0.000976562, 0, -0.000976562, 0.115234, 0.291992, -9.70605, 1.25.2022 18:37:31.049
1, 1.81904, 359.538, 195.26, -0.000976562, 0, -0.000976562, 0.0292969, 0.326172, -9.72461, 1.25.2022 18:37:31.055
2, 1.81904, 359.538, 195.26, 0, 0, 0, 0.0888672, 0.337891, -9.72559, 1.25.2022 18:37:31.063
3, 1.81904, 359.538, 195.26, -0.000976562, -0.000976562, -0.000976562, 0.0693359, 0.30957, -9.73535, 1.25.2022 18:37:31.071
4, 1.81904, 359.538, 195.26, -0.000976562, -0.000976562, 0, 0.0439453, 0.3125, -9.69531, 1.25.2022 18:37:31.079
5, 1.81904, 359.538, 195.26, -0.000976562, -0.000976562, -0.000976562, 0.112305, 0.291992, -9.71289, 1.25.2022 18:37:31.087
6, 1.81904, 359.538, 195.26, 0, -0.000976562, -0.000976562, 0.0732422, 0.322266, -9.68066, 1.25.2022 18:37:31.095
7, 1.81904, 359.538, 195.26, -0.00195312, -0.000976562, -0.000976562, 0.0566406, 0.319336, -9.67578, 1.25.2022 18:37:31.103
8, 1.81904, 359.538, 195.26, -0.000976562, -0.000976562, -0.00195312, 0.135742, 0.321289, -9.74316, 1.25.2022 18:37:31.111
9, 1.81904, 359.538, 195.26, -0.000976562, -0.000976562, -0.000976562, 0.0410156, 0.326172, -9.7373, 1.25.2022 18:37:31.119
10, 1.81811, 359.545, 195.26, -0.000976562, -0.000976562, -0.000976562, 0.0839844, 0.303711, -9.71484, 1.25.2022 18:37:31.127
11, 1.82504, 359.546, 195.26, -0.000976562, -0.000976562, -0.000976562, 0.103516, 0.291992, -9.72266, 1.25.2022 18:37:31.135
12, 1.82504, 359.546, 195.26, 0, -0.000976562, -0.000976562, 0.0644531, 0.308594, -9.72363, 1.25.2022 18:37:31.143
13, 1.82504, 359.546, 195.26, 0, -0.000976562, -0.000976562, 0.09375, 0.287109, -9.71289, 1.25.2022 18:37:31.151
14, 1.82504, 359.546, 195.26, 0, -0.000976562, -0.000976562, 0.0625, 0.314453, -9.74707, 1.25.2022 18:37:31.159
15, 1.82504, 359.546, 195.26, -0.000976562, -0.00195312, -0.000976562, 0.0595703, 0.327148, -9.76074, 1.25.2022 18:37:31.167
16, 1.82504, 359.546, 195.26, 0, 0, 0.000976562, 0.130859, 0.28125, -9.75586, 1.25.2022 18:37:31.175
17, 1.82504, 359.546, 195.26, 0, 0, -0.000976562, 0.0478516, 0.333984, -9.75391, 1.25.2022 18:37:31.183
18, 1.82504, 359.546, 195.26, -0.000976562, -0.000976562, -0.000976562, 0.0771484, 0.285156, -9.72656, 1.25.2022 18:37:31.191
19, 1.82504, 359.546, 195.26, -0.000976562, -0.000976562, -0.000976562, 0.0791016, 0.321289, -9.72363, 1.25.2022 18:37:31.199
20, 1.82504, 359.546, 195.26, -0.000976562, -0.000976562, 0.000976562, 0.0458984, 0.330078, -9.7207, 1.25.2022 18:37:31.207
21, 1.82504, 359.546, 195.26, 0, -0.000976562, 0.000976562, 0.131836, 0.298828, -9.71094, 1.25.2022 18:37:31.215
22, 1.82504, 359.546, 195.26, 0, -0.000976562, -0.000976562, 0.0888672, 0.286133, -9.69629, 1.25.2022 18:37:31.223
23, 1.82504, 359.546, 195.26, -0.000976562, 0, -0.000976562, 0.0458984, 0.318359, -9.69922, 1.25.2022 18:37:31.231
24, 1.82504, 359.546, 195.26, -0.000976562, -0.000976562, 0.000976562, 0.145508, 0.307617, -9.75781, 1.25.2022 18:37:31.239
25, 1.82504, 359.546, 195.26, -0.000976562, 0, -0.000976562, 0.0527344, 0.331055, -9.75391, 1.25.2022 18:37:31.247
26, 1.82504, 359.546, 195.26, 0, -0.00195312, -0.000976562, 0.100586, 0.310547, -9.70801, 1.25.2022 18:37:31.255
27, 1.82504, 359.546, 195.26, 0, 0, -0.000976562, 0.0849609, 0.300781, -9.68848, 1.25.2022 18:37:31.263
28, 1.82504, 359.546, 195.26, -0.000976562, -0.000976562, -0.000976562, 0.0341797, 0.321289, -9.73438, 1.25.2022 18:37:31.271
29, 1.82504, 359.546, 195.26, -0.000976562, -0.000976562, -0.000976562, 0.135742, 0.27832, -9.74023, 1.25.2022 18:37:31.279
30, 1.82504, 359.546, 195.26, -0.000976562, -0.000976562, -0.000976562, 0.0839844, 0.303711, -9.70312, 1.25.2022 18:37:31.287
31, 1.82504, 359.546, 195.26, -0.000976562, -0.000976562, 0.000976562, 0.0507812, 0.298828, -9.68848, 1.25.2022 18:37:31.295
32, 1.81813, 359.545, 195.252, -0.000976562, -0.000976562, -0.000976562, 0.12207, 0.267578, -9.69727, 1.25.2022 18:37:31.303
33, 1.81813, 359.545, 195.252, -0.000976562, -0.000976562, 0.000976562, 0.0576172, 0.328125, -9.71875, 1.25.2022 18:37:31.311
34, 1.81905, 359.538, 195.252, -0.000976562, 0, -0.000976562, 0.0771484, 0.325195, -9.69238, 1.25.2022 18:37:31.319
35, 1.81905, 359.538, 195.252, 0, -0.000976562, -0.000976562, 0.0986328, 0.275391, -9.70605, 1.25.2022 18:37:31.327
36, 1.81905, 359.538, 195.252, -0.000976562, -0.000976562, -0.000976562, 0.0322266, 0.318359, -9.71387, 1.25.2022 18:37:31.335
37, 1.81905, 359.538, 195.252, -0.000976562, 0, 0.000976562, 0.118164, 0.318359, -9.70508, 1.25.2022 18:37:31.343
38, 1.81905, 359.538, 195.252, -0.000976562, -0.000976562, -0.000976562, 0.046875, 0.286133, -9.68848, 1.25.2022 18:37:31.351
39, 1.81905, 359.538, 195.252, -0.000976562, -0.000976562, -0.000976562, 0.0693359, 0.30957, -9.73047, 1.25.2022 18:37:31.359
40, 1.81905, 359.538, 195.252, -0.000976562, -0.000976562, -0.000976562, 0.138672, 0.27832, -9.74707, 1.25.2022 18:37:31.367
41, 1.81905, 359.538, 195.252, -0.00195312, -0.000976562, -0.000976562, 0.0263672, 0.302734, -9.74023, 1.25.2022 18:37:31.375
42, 1.81905, 359.538, 195.252, -0.000976562, -0.000976562, -0.000976562, 0.0820312, 0.334961, -9.71387, 1.25.2022 18:37:31.383
43, 1.81905, 359.538, 195.252, -0.000976562, -0.000976562, -0.000976562, 0.125, 0.293945, -9.70117, 1.25.2022 18:37:31.391
44, 1.81905, 359.538, 195.252, 0, -0.000976562, -0.000976562, 0.0751953, 0.307617, -9.68652, 1.25.2022 18:37:31.399
45, 1.81213, 359.537, 195.252, 0, -0.000976562, -0.000976562, 0.172852, 0.293945, -9.7041, 1.25.2022 18:37:31.407
46, 1.81305, 359.53, 195.253, -0.000976562, 0, -0.000976562, 0.0673828, 0.296875, -9.73145, 1.25.2022 18:37:31.415
47, 1.81305, 359.53, 195.253, -0.000976562, -0.00195312, -0.000976562, 0.0664062, 0.326172, -9.75195, 1.25.2022 18:37:31.423
48, 1.81305, 359.53, 195.253, -0.000976562, -0.000976562, -0.000976562, 0.133789, 0.293945, -9.71387, 1.25.2022 18:37:31.431
49, 1.81305, 359.53, 195.253, -0.000976562, -0.00195312, -0.000976562, 0.03125, 0.319336, -9.73242, 1.25.2022 18:37:31.439
50, 1.81305, 359.53, 195.253, 0, -0.00195312, 0, 0.0859375, 0.333008, -9.73242, 1.25.2022 18:37:31.447
51, 1.81305, 359.53, 195.253, 0, -0.000976562, -0.000976562, 0.0625, 0.291016, -9.74805, 1.25.2022 18:37:31.455
52, 1.81305, 359.53, 195.253, -0.000976562, -0.000976562, -0.000976562, -0.00878906, 0.330078, -9.71973, 1.25.2022 18:37:31.463
53, 1.81305, 359.53, 195.253, -0.000976562, -0.000976562, -0.000976562, 0.0810547, 0.296875, -9.72949, 1.25.2022 18:37:31.471
54, 1.81304, 359.53, 195.26, 0, -0.000976562, -0.000976562, 0.0693359, 0.285156, -9.72949, 1.25.2022 18:37:31.479
55, 1.81304, 359.53, 195.26, -0.00195312, 0, -0.000976562, 0.0537109, 0.296875, -9.70215, 1.25.2022 18:37:31.487
56, 1.81304, 359.53, 195.26, -0.000976562, -0.000976562, -0.000976562, 0.0986328, 0.303711, -9.70117, 1.25.2022 18:37:31.495
57, 1.81304, 359.53, 195.26, -0.000976562, -0.000976562, -0.000976562, 0.0507812, 0.323242, -9.71875, 1.25.2022 18:37:31.503
58, 1.81304, 359.53, 195.26, 0, -0.000976562, -0.000976562, 0.0839844, 0.289062, -9.71289, 1.25.2022 18:37:31.511
59, 1.80611, 359.529, 195.26, -0.000976562, -0.00195312, 0, 0.0888672, 0.316406, -9.72852, 1.25.2022 18:37:31.519
60, 1.80613, 359.529, 195.253, -0.000976562, -0.000976562, 0, 0.0458984, 0.313477, -9.7207, 1.25.2022 18:37:31.527
61, 1.80613, 359.529, 195.253, -0.000976562, -0.000976562, 0, 0.124023, 0.304688, -9.73633, 1.25.2022 18:37:31.535
62, 1.80613, 359.529, 195.253, -0.000976562, -0.000976562, -0.000976562, 0.103516, 0.308594, -9.72168, 1.25.2022 18:37:31.543
63, 1.80613, 359.529, 195.253, -0.000976562, -0.000976562, -0.000976562, 0.0625, 0.342773, -9.72461, 1.25.2022 18:37:31.551
64, 1.80613, 359.529, 195.253, 0, -0.000976562, -0.000976562, 0.114258, 0.30957, -9.74316, 1.25.2022 18:37:31.559
65, 1.80613, 359.529, 195.253, -0.000976562, -0.000976562, -0.000976562, 0.0253906, 0.327148, -9.69141, 1.25.2022 18:37:31.567
66, 1.8052, 359.536, 195.252, -0.000976562, -0.000976562, 0, 0.0703125, 0.318359, -9.70508, 1.25.2022 18:37:31.575
67, 1.81213, 359.537, 195.252, -0.000976562, 0, 0, 0.104492, 0.30957, -9.76172, 1.25.2022 18:37:31.583
68, 1.81213, 359.537, 195.252, -0.000976562, -0.00195312, -0.000976562, 0.0175781, 0.323242, -9.72461, 1.25.2022 18:37:31.591
69, 1.81213, 359.537, 195.252, 0, -0.000976562, -0.000976562, 0.113281, 0.303711, -9.70996, 1.25.2022 18:37:31.599
70, 1.81213, 359.537, 195.252, -0.000976562, -0.00195312, -0.000976562, 0.0615234, 0.300781, -9.75977, 1.25.2022 18:37:31.607
71, 1.81213, 359.537, 195.252, -0.000976562, -0.00195312, 0, 0.0742188, 0.318359, -9.73047, 1.25.2022 18:37:31.615
72, 1.81213, 359.537, 195.252, 0, -0.000976562, -0.000976562, 0.125, 0.310547, -9.69824, 1.25.2022 18:37:31.623
73, 1.81213, 359.537, 195.252, -0.000976562, -0.000976562, -0.000976562, 0.03125, 0.331055, -9.73438, 1.25.2022 18:37:31.631
74, 1.81213, 359.537, 195.252, -0.000976562, -0.000976562, -0.000976562, 0.0703125, 0.332031, -9.68555, 1.25.2022 18:37:31.639
75, 1.81213, 359.537, 195.252, -0.000976562, 0, -0.000976562, 0.0673828, 0.307617, -9.69336, 1.25.2022 18:37:31.647
76, 1.81213, 359.537, 195.252, -0.000976562, 0, -0.000976562, 0.0654297, 0.317383, -9.67383, 1.25.2022 18:37:31.655
77, 1.81905, 359.538, 195.252, -0.000976562, 0.000976562, -0.000976562, 0.145508, 0.296875, -9.72754, 1.25.2022 18:37:31.663
78, 1.81905, 359.538, 195.252, -0.00195312, 0, -0.000976562, 0.0625, 0.302734, -9.74707, 1.25.2022 18:37:31.669
79, 1.81904, 359.538, 195.26, -0.000976562, 0, -0.00195312, 0.0556641, 0.337891, -9.72949, 1.25.2022 18:37:31.677
80, 1.81904, 359.538, 195.26, 0, 0, -0.000976562, 0.125, 0.276367, -9.69043, 1.25.2022 18:37:31.685
81, 1.81904, 359.538, 195.26, -0.000976562, 0, -0.000976562, 0.03125, 0.271484, -9.73633, 1.25.2022 18:37:31.693
82, 1.81811, 359.545, 195.26, -0.000976562, 0, -0.000976562, 0.0986328, 0.296875, -9.71289, 1.25.2022 18:37:31.701
83, 1.81811, 359.545, 195.26, 0, 0, -0.000976562, 0.110352, 0.289062, -9.71094, 1.25.2022 18:37:31.709
84, 1.81904, 359.538, 195.26, -0.000976562, 0.000976562, -0.000976562, 0.0292969, 0.321289, -9.72559, 1.25.2022 18:37:31.717
85, 1.81904, 359.538, 195.26, -0.000976562, 0, -0.000976562, 0.111328, 0.288086, -9.66406, 1.25.2022 18:37:31.725
86, 1.81904, 359.538, 195.26, 0, 0, 0, 0.0722656, 0.301758, -9.72852, 1.25.2022 18:37:31.733
87, 1.81904, 359.538, 195.26, 0, 0, -0.000976562, 0.0507812, 0.303711, -9.69727, 1.25.2022 18:37:31.741
88, 1.81904, 359.538, 195.26, 0, 0, -0.000976562, 0.115234, 0.303711, -9.69434, 1.25.2022 18:37:31.749
89, 1.81904, 359.538, 195.26, 0, 0, -0.000976562, 0.0390625, 0.334961, -9.72461, 1.25.2022 18:37:31.757
90, 1.81904, 359.538, 195.26, 0, 0, -0.000976562, 0.0908203, 0.321289, -9.74512, 1.25.2022 18:37:31.765
91, 1.81904, 359.538, 195.26, -0.000976562, 0, -0.000976562, 0.129883, 0.287109, -9.71582, 1.25.2022 18:37:31.773
92, 1.81904, 359.538, 195.26, 0, 0, -0.000976562, 0.0488281, 0.320312, -9.70703, 1.25.2022 18:37:31.781
93, 1.81904, 359.538, 195.26, -0.000976562, 0, 0, 0.12207, 0.313477, -9.71484, 1.25.2022 18:37:31.789
94, 1.81904, 359.538, 195.26, -0.000976562, 0, -0.00195312, 0.100586, 0.293945, -9.71094, 1.25.2022 18:37:31.797
95, 1.81904, 359.538, 195.26, -0.000976562, 0.000976562, -0.000976562, 0.0488281, 0.333984, -9.68457, 1.25.2022 18:37:31.805
96, 1.81904, 359.538, 195.26, -0.000976562, 0, -0.000976562, 0.0986328, 0.290039, -9.71973, 1.25.2022 18:37:31.813
97, 1.81904, 359.538, 195.26, -0.00195312, 0.000976562, -0.000976562, 0.0214844, 0.307617, -9.74902, 1.25.2022 18:37:31.821
98, 1.81904, 359.538, 195.26, -0.00195312, 0, -0.000976562, 0.09375, 0.321289, -9.7334, 1.25.2022 18:37:31.829
99, 1.81904, 359.538, 195.26, -0.000976562, 0.000976562, -0.00195312, 0.0820312, 0.293945, -9.69629, 1.25.2022 18:37:31.837
100, 1.81904, 359.538, 195.26, -0.000976562, 0.000976562, -0.00195312, 0.0175781, 0.323242, -9.72461, 1.25.2022 18:37:31.845
101, 1.81904, 359.538, 195.26, 0, 0, -0.000976562, 0.129883, 0.305664, -9.68457, 1.25.2022 18:37:31.853
102, 1.81904, 359.538, 195.26, 0, 0, -0.000976562, 0.0566406, 0.310547, -9.76367, 1.25.2022 18:37:31.861
103, 1.81904, 359.538, 195.26, -0.000976562, 0, -0.000976562, 0.0742188, 0.324219, -9.74512, 1.25.2022 18:37:31.869
104, 1.81904, 359.538, 195.26, -0.000976562, 0, -0.000976562, 0.120117, 0.277344, -9.69727, 1.25.2022 18:37:31.877
105, 1.81904, 359.538, 195.26, 0, -0.000976562, 0, 0.0322266, 0.300781, -9.67383, 1.25.2022 18:37:31.885
106, 1.81904, 359.538, 195.26, -0.000976562, -0.00195312, 0, 0.0673828, 0.318359, -9.70508, 1.25.2022 18:37:31.893
107, 1.81904, 359.538, 195.26, 0, -0.000976562, 0, 0.0898438, 0.300781, -9.68457, 1.25.2022 18:37:31.901
108, 1.81904, 359.538, 195.26, -0.000976562, -0.000976562, 0.000976562, 0.03125, 0.335938, -9.72949, 1.25.2022 18:37:31.909
109, 1.81904, 359.538, 195.26, -0.000976562, -0.000976562, 0.000976562, 0.12207, 0.297852, -9.74609, 1.25.2022 18:37:31.917
110, 1.81904, 359.538, 195.26, -0.000976562, -0.000976562, 0, 0.0722656, 0.306641, -9.7334, 1.25.2022 18:37:31.925
111, 1.81904, 359.538, 195.26, -0.000976562, -0.00195312, 0, 0.103516, 0.316406, -9.72363, 1.25.2022 18:37:31.933
112, 1.81904, 359.538, 195.26, -0.000976562, -0.000976562, 0.000976562, 0.126953, 0.296875, -9.72461, 1.25.2022 18:37:31.941
113, 1.81904, 359.538, 195.26, -0.000976562, -0.000976562, -0.00195312, 0.0341797, 0.298828, -9.71191, 1.25.2022 18:37:31.949
114, 1.81904, 359.538, 195.26, -0.000976562, -0.00195312, 0, 0.0791016, 0.339844, -9.70898, 1.25.2022 18:37:31.957
115, 1.81904, 359.538, 195.26, 0, -0.000976562, 0, 0.09375, 0.308594, -9.71191, 1.25.2022 18:37:31.965
116, 1.81904, 359.538, 195.26, -0.000976562, 0, 0, 0.0458984, 0.339844, -9.70605, 1.25.2022 18:37:31.973
117, 1.81904, 359.538, 195.26, 0, -0.000976562, -0.00195312, 0.143555, 0.304688, -9.75098, 1.25.2022 18:37:31.981
118, 1.81904, 359.538, 195.26, 0, -0.000976562, 0, 0.0400391, 0.293945, -9.77344, 1.25.2022 18:37:31.989
119, 1.81904, 359.538, 195.26, -0.000976562, -0.000976562, 0, 0.0439453, 0.331055, -9.72559, 1.25.2022 18:37:31.997
120, 1.81904, 359.538, 195.26, 0, -0.000976562, -0.00195312, 0.143555, 0.291992, -9.72754, 1.25.2022 18:37:32.005
121, 1.81904, 359.538, 195.26, -0.000976562, -0.000976562, 0, 0.0429688, 0.321289, -9.74707, 1.25.2022 18:37:32.013
122, 1.81904, 359.538, 195.26, -0.000976562, -0.000976562, 0, 0.0957031, 0.302734, -9.74805, 1.25.2022 18:37:32.021
123, 1.81904, 359.538, 195.26, -0.000976562, 0, 0, 0.0859375, 0.294922, -9.73145, 1.25.2022 18:37:32.029
124, 1.81904, 359.538, 195.26, -0.000976562, -0.000976562, 0.000976562, 0.0332031, 0.304688, -9.74902, 1.25.2022 18:37:32.037
125, 1.81904, 359.538, 195.26, -0.000976562, -0.000976562, 0, 0.105469, 0.290039, -9.73242, 1.25.2022 18:37:32.045
126, 1.81904, 359.538, 195.26, -0.000976562, -0.000976562, 0, 0.0810547, 0.304688, -9.73145, 1.25.2022 18:37:32.053
127, 1.81904, 359.538, 195.26, -0.00195312, -0.000976562, 0, 0.0673828, 0.328125, -9.73926, 1.25.2022 18:37:32.061
128, 1.81904, 359.538, 195.26, 0, -0.00195312, -0.00195312, 0.126953, 0.30957, -9.74316, 1.25.2022 18:37:32.069
129, 1.81904, 359.538, 195.26, -0.000976562, -0.000976562, 0, 0.0322266, 0.289062, -9.70703, 1.25.2022 18:37:32.077
130, 1.81904, 359.538, 195.26, -0.000976562, -0.000976562, 0, 0.0888672, 0.300781, -9.70312, 1.25.2022 18:37:32.085
131, 1.81904, 359.538, 195.26, -0.000976562, -0.000976562, 0, 0.0810547, 0.288086, -9.72949, 1.25.2022 18:37:32.093
132, 1.81904, 359.538, 195.26, -0.000976562, 0, 0, 0.0361328, 0.337891, -9.71582, 1.25.2022 18:37:32.101
133, 1.81904, 359.538, 195.26, -0.000976562, -0.000976562, 0, 0.0957031, 0.291992, -9.72266, 1.25.2022 18:37:32.109
134, 1.81904, 359.538, 195.26, -0.000976562, -0.000976562, 0, 0.0556641, 0.308594, -9.70703, 1.25.2022 18:37:32.117
135, 1.81904, 359.538, 195.26, -0.00195312, -0.000976562, 0, 0.0458984, 0.352539, -9.72461, 1.25.2022 18:37:32.125
136, 1.81904, 359.538, 195.26, -0.00195312, -0.000976562, 0, 0.125, 0.291992, -9.71777, 1.25.2022 18:37:32.133
137, 1.81904, 359.538, 195.26, -0.00195312, 0.00195312, 0, 0.0273438, 0.325195, -9.70117, 1.25.2022 18:37:32.141
138, 1.81904, 359.538, 195.26, -0.000976562, 0.000976562, 0, 0.103516, 0.31543, -9.70801, 1.25.2022 18:37:32.149
139, 1.81904, 359.538, 195.26, -0.000976562, -0.000976562, 0.000976562, 0.0839844, 0.291992, -9.71973, 1.25.2022 18:37:32.157
140, 1.81904, 359.538, 195.26, 0.000976562, -0.000976562, -0.000976562, 0.0439453, 0.323242, -9.71582, 1.25.2022 18:37:32.165
141, 1.81904, 359.538, 195.26, -0.000976562, 0.000976562, 0, 0.133789, 0.306641, -9.71973, 1.25.2022 18:37:32.173
142, 1.81904, 359.538, 195.26, -0.00195312, 0.000976562, 0.000976562, 0.0458984, 0.323242, -9.71582, 1.25.2022 18:37:32.181
143, 1.81904, 359.538, 195.26, -0.000976562, -0.000976562, 0, 0.0830078, 0.317383, -9.75879, 1.25.2022 18:37:32.189
144, 1.81904, 359.538, 195.26, -0.000976562, -0.000976562, 0, 0.12207, 0.289062, -9.69922, 1.25.2022 18:37:32.197
145, 1.81904, 359.538, 195.26, -0.000976562, -0.000976562, -0.000976562, 0.00976562, 0.306641, -9.71582, 1.25.2022 18:37:32.205
146, 1.81904, 359.538, 195.26, 0.000976562, 0.000976562, 0, 0.0966797, 0.326172, -9.67383, 1.25.2022 18:37:32.213
147, 1.81904, 359.538, 195.26, -0.000976562, -0.000976562, -0.000976562, 0.0869141, 0.28418, -9.70801, 1.25.2022 18:37:32.221
148, 1.81904, 359.538, 195.26, -0.000976562, -0.000976562, -0.00195312, 0.0507812, 0.323242, -9.71875, 1.25.2022 18:37:32.229
149, 1.81904, 359.538, 195.26, -0.000976562, 0.000976562, 0, 0.129883, 0.28418, -9.69922, 1.25.2022 18:37:32.237
150, 1.81904, 359.538, 195.26, 0.000976562, -0.000976562, -0.000976562, 0.0605469, 0.295898, -9.69824, 1.25.2022 18:37:32.245
151, 1.81904, 359.538, 195.26, -0.000976562, -0.000976562, -0.000976562, 0.0712891, 0.321289, -9.64746, 1.25.2022 18:37:32.253
152, 1.81904, 359.538, 195.26, -0.000976562, -0.000976562, 0, 0.115234, 0.296875, -9.70605, 1.25.2022 18:37:32.261
153, 1.81904, 359.538, 195.26, -0.000976562, -0.00195312, -0.000976562, 0.0253906, 0.322266, -9.68945, 1.25.2022 18:37:32.269
154, 1.81904, 359.538, 195.26, -0.000976562, -0.00195312, -0.000976562, 0.110352, 0.308594, -9.72168, 1.25.2022 18:37:32.277
155, 1.81904, 359.538, 195.26, -0.000976562, -0.000976562, -0.000976562, 0.0917969, 0.298828, -9.69629, 1.25.2022 18:37:32.285
156, 1.81904, 359.538, 195.26, 0.000976562, -0.000976562, -0.000976562, 0.0458984, 0.318359, -9.73047, 1.25.2022 18:37:32.293
157, 1.81904, 359.538, 195.26, -0.000976562, -0.000976562, 0, 0.148438, 0.318359, -9.70801, 1.25.2022 18:37:32.301
158, 1.81904, 359.538, 195.26, -0.000976562, -0.000976562, -0.00195312, 0.0341797, 0.311523, -9.7373, 1.25.2022 18:37:32.309
159, 1.81904, 359.538, 195.26, 0.000976562, 0.000976562, 0, 0.0361328, 0.288086, -9.74023, 1.25.2022 18:37:32.317
160, 1.81904, 359.538, 195.26, 0.000976562, -0.000976562, -0.000976562, 0.12207, 0.269531, -9.69727, 1.25.2022 18:37:32.325
161, 1.81904, 359.538, 195.26, -0.000976562, -0.000976562, -0.000976562, 0.0341797, 0.323242, -9.71094, 1.25.2022 18:37:32.333
162, 1.81904, 359.538, 195.26, -0.000976562, -0.000976562, 0.000976562, 0.0849609, 0.30957, -9.6748, 1.25.2022 18:37:32.341
163, 1.81904, 359.538, 195.26, -0.000976562, -0.000976562, 0.000976562, 0.09375, 0.316406, -9.71875, 1.25.2022 18:37:32.349
164, 1.81904, 359.538, 195.26, -0.000976562, -0.000976562, 0.000976562, 0.0439453, 0.328125, -9.70605, 1.25.2022 18:37:32.357
165, 1.81904, 359.538, 195.26, -0.000976562, -0.000976562, 0, 0.146484, 0.291992, -9.71582, 1.25.2022 18:37:32.365
166, 1.81904, 359.538, 195.26, -0.000976562, -0.000976562, 0.000976562, 0.0507812, 0.298828, -9.71191, 1.25.2022 18:37:32.373
167, 1.81904, 359.538, 195.26, -0.000976562, -0.000976562, -0.000976562, 0.0654297, 0.314453, -9.67871, 1.25.2022 18:37:32.381
168, 1.81904, 359.538, 195.26, 0.000976562, -0.000976562, -0.000976562, 0.0830078, 0.292969, -9.75977, 1.25.2022 18:37:32.389
169, 1.81904, 359.538, 195.26, 0, -0.000976562, -0.00195312, 0.0244141, 0.325195, -9.7041, 1.25.2022 18:37:32.397
170, 1.81811, 359.545, 195.26, 0, 0, -0.000976562, 0.0771484, 0.305664, -9.70508, 1.25.2022 18:37:32.405
171, 1.81811, 359.545, 195.26, 0, 0, -0.00195312, 0.0888672, 0.306641, -9.72656, 1.25.2022 18:37:32.413
172, 1.81811, 359.545, 195.26, -0.000976562, -0.000976562, -0.000976562, 0.0644531, 0.342773, -9.74121, 1.25.2022 18:37:32.421
173, 1.81811, 359.545, 195.26, -0.000976562, -0.000976562, -0.000976562, 0.100586, 0.301758, -9.71973, 1.25.2022 18:37:32.429
174, 1.81811, 359.545, 195.26, -0.000976562, -0.000976562, -0.000976562, 0.0498047, 0.302734, -9.75, 1.25.2022 18:37:32.437
175, 1.81811, 359.545, 195.26, -0.000976562, -0.000976562, -0.000976562, 0.0791016, 0.31543, -9.71387, 1.25.2022 18:37:32.445
176, 1.81811, 359.545, 195.26, -0.000976562, -0.000976562, 0, 0.115234, 0.294922, -9.72949, 1.25.2022 18:37:32.453
177, 1.81811, 359.545, 195.26, -0.000976562, -0.00195312, 0, 0.0341797, 0.322266, -9.69922, 1.25.2022 18:37:32.461
178, 1.81811, 359.545, 195.26, -0.000976562, -0.00195312, -0.000976562, 0.112305, 0.311523, -9.74121, 1.25.2022 18:37:32.469
179, 1.81811, 359.545, 195.26, -0.000976562, -0.00195312, -0.000976562, 0.0722656, 0.292969, -9.73828, 1.25.2022 18:37:32.477
180, 1.81811, 359.545, 195.26, -0.000976562, 0, -0.000976562, 0.0419922, 0.336914, -9.69434, 1.25.2022 18:37:32.485
181, 1.81811, 359.545, 195.26, -0.000976562, 0, -0.000976562, 0.107422, 0.306641, -9.72656, 1.25.2022 18:37:32.493
182, 1.81811, 359.545, 195.26, -0.000976562, -0.000976562, -0.000976562, 0.0654297, 0.306641, -9.71875, 1.25.2022 18:37:32.501
183, 1.81811, 359.545, 195.26, -0.000976562, -0.000976562, -0.000976562, 0.0771484, 0.336914, -9.71094, 1.25.2022 18:37:32.509
184, 1.81811, 359.545, 195.26, -0.00195312, 0, -0.000976562, 0.108398, 0.313477, -9.70996, 1.25.2022 18:37:32.517
185, 1.81811, 359.545, 195.26, -0.000976562, 0, -0.000976562, 0.0224609, 0.322266, -9.67969, 1.25.2022 18:37:32.525
186, 1.81811, 359.545, 195.26, 0, 0, -0.000976562, 0.12207, 0.294922, -9.73926, 1.25.2022 18:37:32.533
187, 1.81811, 359.545, 195.26, -0.00195312, 0, -0.00195312, 0.105469, 0.30957, -9.7334, 1.25.2022 18:37:32.541
188, 1.81811, 359.545, 195.26, -0.000976562, 0, -0.000976562, 0.0390625, 0.334961, -9.7041, 1.25.2022 18:37:32.549
189, 1.81811, 359.545, 195.26, -0.000976562, -0.000976562, -0.000976562, 0.124023, 0.30957, -9.74316, 1.25.2022 18:37:32.557
190, 1.82504, 359.546, 195.26, -0.000976562, -0.00195312, -0.000976562, 0.0673828, 0.318359, -9.72852, 1.25.2022 18:37:32.565
191, 1.82504, 359.546, 195.26, -0.000976562, -0.000976562, -0.000976562, 0.0722656, 0.311523, -9.74023, 1.25.2022 18:37:32.573
192, 1.82504, 359.546, 195.26, -0.000976562, -0.000976562, -0.000976562, 0.112305, 0.301758, -9.73145, 1.25.2022 18:37:32.581
193, 1.82504, 359.546, 195.26, -0.000976562, -0.000976562, -0.000976562, 0.0341797, 0.293945, -9.70508, 1.25.2022 18:37:32.589
194, 1.82504, 359.546, 195.26, -0.000976562, -0.000976562, -0.000976562, 0.115234, 0.308594, -9.72949, 1.25.2022 18:37:32.597
195, 1.82504, 359.546, 195.26, -0.000976562, -0.000976562, -0.000976562, 0.0869141, 0.31543, -9.7002, 1.25.2022 18:37:32.605
196, 1.82504, 359.546, 195.26, -0.000976562, -0.00195312, -0.000976562, 0.0703125, 0.295898, -9.69336, 1.25.2022 18:37:32.613
197, 1.82504, 359.546, 195.26, -0.00195312, -0.000976562, -0.000976562, 0.143555, 0.291992, -9.7207, 1.25.2022 18:37:32.621
198, 1.82504, 359.546, 195.26, -0.000976562, -0.000976562, -0.000976562, 0.0429688, 0.313477, -9.72754, 1.25.2022 18:37:32.629
199, 1.82504, 359.546, 195.26, -0.000976562, -0.000976562, -0.000976562, 0.0576172, 0.328125, -9.72559, 1.25.2022 18:37:32.637
200, 1.82597, 359.539, 195.26, -0.000976562, -0.000976562, -0.000976562, 0.0898438, 0.274414, -9.67773, 1.25.2022 18:37:32.643
201, 1.82597, 359.539, 195.26, -0.00195312, -0.000976562, 0, 0.0488281, 0.302734, -9.68066, 1.25.2022 18:37:32.653
202, 1.82597, 359.539, 195.26, 0, -0.000976562, -0.000976562, 0.0996094, 0.288086, -9.6748, 1.25.2022 18:37:32.659
203, 1.82597, 359.539, 195.26, 0, -0.00195312, 0.000976562, 0.0859375, 0.301758, -9.73828, 1.25.2022 18:37:32.667
204, 1.82597, 359.539, 195.26, 0, -0.000976562, -0.000976562, 0.0341797, 0.337891, -9.72754, 1.25.2022 18:37:32.675
205, 1.82597, 359.539, 195.26, 0, -0.000976562, -0.000976562, 0.131836, 0.308594, -9.71289, 1.25.2022 18:37:32.683
206, 1.82597, 359.539, 195.26, 0, -0.000976562, -0.00195312, 0.0390625, 0.313477, -9.7207, 1.25.2022 18:37:32.691
207, 1.82597, 359.539, 195.26, 0, -0.000976562, -0.000976562, 0.0673828, 0.323242, -9.71582, 1.25.2022 18:37:32.699
208, 1.82597, 359.539, 195.26, 0, -0.000976562, 0.000976562, 0.107422, 0.288086, -9.74121, 1.25.2022 18:37:32.707
209, 1.82597, 359.539, 195.26, 0, -0.000976562, -0.000976562, 0.0410156, 0.333008, -9.72461, 1.25.2022 18:37:32.715
210, 1.82597, 359.539, 195.26, 0.000976562, -0.000976562, -0.000976562, 0.133789, 0.301758, -9.71777, 1.25.2022 18:37:32.723
211, 1.82597, 359.539, 195.26, 0.000976562, -0.000976562, -0.000976562, 0.0908203, 0.296875, -9.72168, 1.25.2022 18:37:32.731
212, 1.82597, 359.539, 195.26, 0.000976562, -0.000976562, -0.00195312, 0.0410156, 0.299805, -9.7373, 1.25.2022 18:37:32.739
213, 1.82597, 359.539, 195.26, 0, -0.00195312, -0.000976562, 0.128906, 0.290039, -9.73242, 1.25.2022 18:37:32.747
214, 1.82597, 359.539, 195.26, 0, -0.000976562, -0.000976562, 0.0537109, 0.301758, -9.70703, 1.25.2022 18:37:32.755
215, 1.82597, 359.539, 195.26, 0, -0.000976562, 0.000976562, 0.0693359, 0.319336, -9.74023, 1.25.2022 18:37:32.763
216, 1.82597, 359.539, 195.26, 0.000976562, -0.000976562, -0.000976562, 0.0966797, 0.298828, -9.69141, 1.25.2022 18:37:32.771
217, 1.81904, 359.538, 195.26, 0, -0.000976562, -0.000976562, 0.0292969, 0.325195, -9.69434, 1.25.2022 18:37:32.779
218, 1.81904, 359.538, 195.26, 0, 0, -0.00195312, 0.0917969, 0.310547, -9.68164, 1.25.2022 18:37:32.787
219, 1.81904, 359.538, 195.26, 0, -0.000976562, -0.000976562, 0.0888672, 0.28418, -9.69922, 1.25.2022 18:37:32.795
220, 1.81904, 359.538, 195.26, 0.000976562, -0.000976562, -0.000976562, 0.0292969, 0.314453, -9.73047, 1.25.2022 18:37:32.803
221, 1.81904, 359.538, 195.26, 0.000976562, -0.000976562, -0.000976562, 0.115234, 0.298828, -9.71973, 1.25.2022 18:37:32.811
222, 1.81904, 359.538, 195.26, 0.000976562, -0.000976562, -0.000976562, 0.03125, 0.335938, -9.73438, 1.25.2022 18:37:32.819
223, 1.81904, 359.538, 195.26, 0, -0.000976562, -0.000976562, 0.0839844, 0.310547, -9.69824, 1.25.2022 18:37:32.827
224, 1.81904, 359.538, 195.26, 0, -0.000976562, 0.000976562, 0.0898438, 0.261719, -9.67383, 1.25.2022 18:37:32.835
225, 1.81904, 359.538, 195.26, 0.000976562, -0.000976562, -0.000976562, 0.0410156, 0.318359, -9.71094, 1.25.2022 18:37:32.843
226, 1.81904, 359.538, 195.26, 0, -0.000976562, 0.000976562, 0.126953, 0.273438, -9.73242, 1.25.2022 18:37:32.851
227, 1.81904, 359.538, 195.26, 0, -0.000976562, -0.000976562, 0.105469, 0.288086, -9.74414, 1.25.2022 18:37:32.859
228, 1.81211, 359.537, 195.26, 0, 0, -0.00195312, 0.0605469, 0.313477, -9.7002, 1.25.2022 18:37:32.867
229, 1.81211, 359.537, 195.26, 0, 0, 0, 0.112305, 0.302734, -9.74316, 1.25.2022 18:37:32.875
230, 1.81211, 359.537, 195.26, 0, -0.000976562, -0.000976562, 0.0703125, 0.318359, -9.71387, 1.25.2022 18:37:32.883
231, 1.81211, 359.537, 195.26, 0, -0.000976562, -0.000976562, 0.0742188, 0.304688, -9.74023, 1.25.2022 18:37:32.891
232, 1.81211, 359.537, 195.26, 0, -0.000976562, -0.000976562, 0.100586, 0.287109, -9.70605, 1.25.2022 18:37:32.899
233, 1.81211, 359.537, 195.26, -0.000976562, -0.000976562, -0.000976562, 0.0292969, 0.308594, -9.71094, 1.25.2022 18:37:32.907
234, 1.81211, 359.537, 195.26, -0.000976562, -0.000976562, -0.000976562, 0.0878906, 0.314453, -9.75195, 1.25.2022 18:37:32.915
235, 1.81211, 359.537, 195.26, -0.000976562, -0.000976562, -0.000976562, 0.0673828, 0.280273, -9.73633, 1.25.2022 18:37:32.923
236, 1.81211, 359.537, 195.26, -0.000976562, -0.000976562, -0.000976562, 0.0458984, 0.337891, -9.71777, 1.25.2022 18:37:32.931
237, 1.81211, 359.537, 195.26, -0.00195312, -0.000976562, -0.000976562, 0.117188, 0.295898, -9.75781, 1.25.2022 18:37:32.939
238, 1.80518, 359.536, 195.26, 0, -0.000976562, -0.00195312, 0.0546875, 0.3125, -9.77051, 1.25.2022 18:37:32.947
239, 1.80518, 359.536, 195.26, -0.000976562, -0.000976562, -0.000976562, 0.0878906, 0.3125, -9.75684, 1.25.2022 18:37:32.955
240, 1.80518, 359.536, 195.26, -0.000976562, 0.000976562, 0.000976562, 0.102539, 0.283203, -9.73242, 1.25.2022 18:37:32.963
241, 1.80518, 359.536, 195.26, -0.000976562, -0.000976562, 0.000976562, 0.0224609, 0.305664, -9.7041, 1.25.2022 18:37:32.971
242, 1.80518, 359.536, 195.26, -0.000976562, -0.000976562, -0.000976562, 0.131836, 0.288086, -9.7373, 1.25.2022 18:37:32.979
243, 1.80518, 359.536, 195.26, -0.000976562, -0.000976562, -0.000976562, 0.107422, 0.316406, -9.7334, 1.25.2022 18:37:32.987
244, 1.80518, 359.536, 195.26, -0.000976562, -0.000976562, -0.000976562, 0.0488281, 0.350586, -9.67969, 1.25.2022 18:37:32.995
245, 1.80518, 359.536, 195.26, -0.000976562, -0.000976562, -0.000976562, 0.107422, 0.301758, -9.72461, 1.25.2022 18:37:33.003
246, 1.80518, 359.536, 195.26, -0.00195312, -0.000976562, 0.000976562, 0.0556641, 0.314453, -9.73535, 1.25.2022 18:37:33.011
247, 1.80518, 359.536, 195.26, -0.000976562, -0.000976562, -0.000976562, 0.09375, 0.330078, -9.7168, 1.25.2022 18:37:33.019
248, 1.80518, 359.536, 195.26, -0.000976562, 0.000976562, 0, 0.0986328, 0.272461, -9.69727, 1.25.2022 18:37:33.027
249, 1.80518, 359.536, 195.26, -0.000976562, 0.000976562, 0, 0.0292969, 0.323242, -9.72461, 1.25.2022 18:37:33.035
250, 1.80518, 359.536, 195.26, -0.00195312, 0.000976562, 0.000976562, 0.125, 0.306641, -9.71777, 1.25.2022 18:37:33.043
251, 1.80518, 359.536, 195.26, -0.000976562, 0.000976562, 0, 0.0742188, 0.299805, -9.72852, 1.25.2022 18:37:33.051
252, 1.80518, 359.536, 195.26, -0.000976562, -0.000976562, -0.000976562, 0.0761719, 0.294922, -9.74121, 1.25.2022 18:37:33.059
253, 1.80518, 359.536, 195.26, 0, -0.000976562, -0.000976562, 0.147461, 0.290039, -9.66211, 1.25.2022 18:37:33.067
254, 1.80518, 359.536, 195.26, 0, -0.000976562, -0.00195312, 0.0195312, 0.306641, -9.71387, 1.25.2022 18:37:33.075
255, 1.80518, 359.536, 195.26, 0, -0.00195312, -0.00195312, 0.0888672, 0.333008, -9.72852, 1.25.2022 18:37:33.083
256, 1.80518, 359.536, 195.26, 0, -0.000976562, -0.000976562, 0.0996094, 0.28418, -9.76465, 1.25.2022 18:37:33.091
257, 1.80518, 359.536, 195.26, 0, -0.000976562, -0.00195312, 0.0380859, 0.305664, -9.75684, 1.25.2022 18:37:33.099
258, 1.80518, 359.536, 195.26, 0, -0.000976562, -0.00195312, 0.100586, 0.308594, -9.72168, 1.25.2022 18:37:33.107
259, 1.80518, 359.536, 195.26, -0.000976562, 0.000976562, 0.000976562, 0.0751953, 0.317383, -9.67871, 1.25.2022 18:37:33.115
260, 1.80518, 359.536, 195.26, -0.000976562, -0.00195312, -0.000976562, 0.0673828, 0.306641, -9.72363, 1.25.2022 18:37:33.123
261, 1.80518, 359.536, 195.26, -0.000976562, -0.000976562, 0.000976562, 0.124023, 0.297852, -9.75586, 1.25.2022 18:37:33.131
262, 1.80518, 359.536, 195.26, -0.00195312, -0.000976562, 0.000976562, 0.0439453, 0.332031, -9.69238, 1.25.2022 18:37:33.139
263, 1.80611, 359.529, 195.26, -0.00195312, -0.000976562, 0.000976562, 0.0576172, 0.331055, -9.74219, 1.25.2022 18:37:33.147
264, 1.80611, 359.529, 195.26, -0.00195312, -0.00195312, -0.000976562, 0.0791016, 0.282227, -9.71289, 1.25.2022 18:37:33.155
265, 1.80518, 359.536, 195.26, -0.000976562, -0.00195312, -0.000976562, -0.00683594, 0.333008, -9.71973, 1.25.2022 18:37:33.163
266, 1.80518, 359.536, 195.26, 0.000976562, -0.000976562, -0.000976562, 0.106445, 0.310547, -9.69141, 1.25.2022 18:37:33.171
267, 1.80518, 359.536, 195.26, -0.000976562, -0.000976562, -0.000976562, 0.0585938, 0.310547, -9.70215, 1.25.2022 18:37:33.179
268, 1.80518, 359.536, 195.26, -0.000976562, -0.00195312, -0.00195312, 0.0205078, 0.336914, -9.70117, 1.25.2022 18:37:33.187
269, 1.80518, 359.536, 195.26, -0.00195312, -0.000976562, -0.000976562, 0.0976562, 0.288086, -9.74121, 1.25.2022 18:37:33.195
270, 1.80518, 359.536, 195.26, -0.000976562, 0.000976562, -0.000976562, 0.0556641, 0.310547, -9.69531, 1.25.2022 18:37:33.203
271, 1.80518, 359.536, 195.26, -0.000976562, 0.000976562, -0.000976562, 0.0712891, 0.299805, -9.74512, 1.25.2022 18:37:33.211
272, 1.80518, 359.536, 195.26, 0.000976562, -0.000976562, -0.000976562, 0.0810547, 0.294922, -9.72949, 1.25.2022 18:37:33.219
273, 1.80518, 359.536, 195.26, -0.000976562, -0.000976562, -0.000976562, 0.0146484, 0.329102, -9.74121, 1.25.2022 18:37:33.227
274, 1.81118, 359.544, 195.259, -0.000976562, -0.00195312, -0.000976562, 0.123047, 0.308594, -9.69824, 1.25.2022 18:37:33.235
275, 1.81118, 359.544, 195.259, -0.000976562, -0.00195312, 0, 0.0751953, 0.298828, -9.7002, 1.25.2022 18:37:33.243
276, 1.81118, 359.544, 195.259, 0.000976562, -0.000976562, -0.000976562, 0.0488281, 0.318359, -9.71094, 1.25.2022 18:37:33.251
277, 1.81118, 359.544, 195.259, 0.000976562, -0.000976562, -0.000976562, 0.133789, 0.307617, -9.76074, 1.25.2022 18:37:33.259
278, 1.81118, 359.544, 195.259, 0.000976562, -0.000976562, -0.000976562, 0.0478516, 0.291992, -9.72852, 1.25.2022 18:37:33.267
279, 1.81026, 359.551, 195.259, 0.000976562, -0.00195312, -0.000976562, 0.0839844, 0.308594, -9.70996, 1.25.2022 18:37:33.275
280, 1.81026, 359.551, 195.259, -0.00195312, -0.000976562, 0.000976562, 0.0703125, 0.303711, -9.71484, 1.25.2022 18:37:33.283
281, 1.81026, 359.551, 195.259, -0.000976562, -0.000976562, 0, 0.0224609, 0.321289, -9.71777, 1.25.2022 18:37:33.291
282, 1.81026, 359.551, 195.259, -0.00195312, -0.00195312, 0, 0.0986328, 0.293945, -9.68945, 1.25.2022 18:37:33.299
283, 1.81026, 359.551, 195.259, -0.00195312, -0.00195312, -0.000976562, 0.0888672, 0.27832, -9.74414, 1.25.2022 18:37:33.307
284, 1.80933, 359.558, 195.259, -0.00195312, -0.000976562, -0.000976562, 0.0507812, 0.323242, -9.70898, 1.25.2022 18:37:33.315
285, 1.80933, 359.558, 195.259, -0.00195312, -0.000976562, -0.000976562, 0.112305, 0.308594, -9.72656, 1.25.2022 18:37:33.323
286, 1.80933, 359.558, 195.259, 0.000976562, -0.00195312, -0.000976562, 0.0449219, 0.333984, -9.75781, 1.25.2022 18:37:33.331
287, 1.80933, 359.558, 195.259, 0.000976562, -0.00195312, -0.00195312, 0.0908203, 0.318359, -9.73047, 1.25.2022 18:37:33.339
288, 1.80933, 359.558, 195.259, -0.000976562, -0.000976562, -0.00195312, 0.108398, 0.291992, -9.71777, 1.25.2022 18:37:33.347
289, 1.81626, 359.559, 195.259, -0.000976562, -0.000976562, 0, 0.0175781, 0.332031, -9.70117, 1.25.2022 18:37:33.355
290, 1.81626, 359.559, 195.259, -0.000976562, 0.000976562, -0.000976562, 0.117188, 0.313477, -9.72461, 1.25.2022 18:37:33.363
291, 1.81626, 359.559, 195.259, -0.000976562, -0.000976562, -0.000976562, 0.0869141, 0.293945, -9.70508, 1.25.2022 18:37:33.371
292, 1.81626, 359.559, 195.259, -0.000976562, -0.000976562, -0.000976562, 0.0458984, 0.317383, -9.69434, 1.25.2022 18:37:33.379
293, 1.81626, 359.559, 195.259, -0.000976562, 0.000976562, -0.000976562, 0.15332, 0.298828, -9.72266, 1.25.2022 18:37:33.387
294, 1.81626, 359.559, 195.259, -0.000976562, -0.000976562, 0, 0.0371094, 0.333984, -9.6875, 1.25.2022 18:37:33.395
295, 1.81626, 359.559, 195.259, -0.00195312, -0.000976562, -0.000976562, 0.0820312, 0.310547, -9.71191, 1.25.2022 18:37:33.403
296, 1.81626, 359.559, 195.259, -0.000976562, -0.000976562, -0.00195312, 0.0947266, 0.292969, -9.68164, 1.25.2022 18:37:33.411
297, 1.81626, 359.559, 195.259, -0.000976562, 0, -0.000976562, 0.0380859, 0.311523, -9.73242, 1.25.2022 18:37:33.419
298, 1.81626, 359.559, 195.259, -0.000976562, 0, -0.000976562, 0.115234, 0.313477, -9.71777, 1.25.2022 18:37:33.427
299, 1.81626, 359.559, 195.259, -0.000976562, 0, -0.000976562, 0.0527344, 0.290039, -9.72168, 1.25.2022 18:37:33.435
300, 1.81626, 359.559, 195.259, 0.000976562, 0, -0.000976562, 0.0410156, 0.279297, -9.7002, 1.25.2022 18:37:33.443
301, 1.81626, 359.559, 195.259, -0.000976562, 0.000976562, -0.00195312, 0.115234, 0.287109, -9.71777, 1.25.2022 18:37:33.451
302, 1.81626, 359.559, 195.259, -0.000976562, 0, -0.000976562, 0.0273438, 0.290039, -9.71387, 1.25.2022 18:37:33.459
303, 1.81626, 359.559, 195.259, -0.000976562, 0.000976562, -0.000976562, 0.0742188, 0.326172, -9.74219, 1.25.2022 18:37:33.467
304, 1.81626, 359.559, 195.259, -0.000976562, 0, -0.000976562, 0.107422, 0.290039, -9.73633, 1.25.2022 18:37:33.475
305, 1.81626, 359.559, 195.259, -0.000976562, 0, -0.00195312, 0.0380859, 0.326172, -9.73926, 1.25.2022 18:37:33.483
306, 1.81626, 359.559, 195.259, -0.000976562, 0, -0.000976562, 0.143555, 0.304688, -9.74121, 1.25.2022 18:37:33.491
307, 1.81626, 359.559, 195.259, 0.00195312, 0, 0, 0.0693359, 0.271484, -9.75098, 1.25.2022 18:37:33.499
308, 1.81626, 359.559, 195.259, -0.000976562, 0, -0.000976562, 0.100586, 0.31543, -9.71484, 1.25.2022 18:37:33.507
309, 1.81626, 359.559, 195.259, -0.000976562, 0, -0.000976562, 0.151367, 0.27832, -9.67676, 1.25.2022 18:37:33.515
310, 1.80933, 359.558, 195.259, -0.000976562, 0, -0.000976562, 0.0507812, 0.308594, -9.70703, 1.25.2022 18:37:33.523
311, 1.80933, 359.558, 195.259, -0.000976562, 0, -0.000976562, 0.113281, 0.333008, -9.71484, 1.25.2022 18:37:33.531
312, 1.80933, 359.558, 195.259, -0.000976562, 0, -0.000976562, 0.110352, 0.308594, -9.71777, 1.25.2022 18:37:33.539
313, 1.81026, 359.551, 195.259, -0.000976562, 0, 0.000976562, 0.0244141, 0.313477, -9.71777, 1.25.2022 18:37:33.547
314, 1.81026, 359.551, 195.259, -0.000976562, 0.000976562, 0.000976562, 0.12207, 0.296875, -9.73438, 1.25.2022 18:37:33.555
315, 1.81026, 359.551, 195.259, -0.000976562, 0.000976562, -0.000976562, 0.0712891, 0.294922, -9.74316, 1.25.2022 18:37:33.563
316, 1.81026, 359.551, 195.259, -0.00195312, 0, -0.000976562, 0.0654297, 0.303711, -9.7168, 1.25.2022 18:37:33.571
317, 1.81118, 359.544, 195.259, -0.000976562, 0.000976562, -0.00195312, 0.139648, 0.291016, -9.69727, 1.25.2022 18:37:33.579
318, 1.81118, 359.544, 195.259, -0.000976562, 0, -0.000976562, 0.0722656, 0.317383, -9.68848, 1.25.2022 18:37:33.587
319, 1.81118, 359.544, 195.259, -0.000976562, 0, -0.000976562, 0.09375, 0.308594, -9.71191, 1.25.2022 18:37:33.595
320, 1.80425, 359.543, 195.259, -0.000976562, 0, -0.000976562, 0.0957031, 0.302734, -9.75, 1.25.2022 18:37:33.603
321, 1.80425, 359.543, 195.259, -0.000976562, 0, -0.000976562, 0.0410156, 0.304688, -9.72363, 1.25.2022 18:37:33.611
322, 1.80518, 359.536, 195.26, -0.000976562, 0, 0.000976562, 0.12207, 0.270508, -9.71191, 1.25.2022 18:37:33.617
323, 1.80518, 359.536, 195.26, -0.000976562, -0.000976562, -0.000976562, 0.0556641, 0.289062, -9.70801, 1.25.2022 18:37:33.625
324, 1.80518, 359.536, 195.26, -0.000976562, 0, -0.00195312, 0.0478516, 0.328125, -9.72266, 1.25.2022 18:37:33.633
325, 1.80518, 359.536, 195.26, 0.000976562, 0.000976562, -0.000976562, 0.124023, 0.283203, -9.74219, 1.25.2022 18:37:33.641
326, 1.80518, 359.536, 195.26, -0.000976562, 0, -0.000976562, 0.0107422, 0.313477, -9.71094, 1.25.2022 18:37:33.649
327, 1.80611, 359.529, 195.26, -0.000976562, 0, -0.000976562, 0.0810547, 0.301758, -9.73633, 1.25.2022 18:37:33.657
328, 1.79918, 359.528, 195.26, -0.000976562, 0, -0.000976562, 0.102539, 0.292969, -9.75586, 1.25.2022 18:37:33.665
329, 1.79918, 359.528, 195.26, -0.000976562, -0.00195312, -0.000976562, 0.0439453, 0.305664, -9.67578, 1.25.2022 18:37:33.673
330, 1.79918, 359.528, 195.26, -0.000976562, -0.00195312, -0.000976562, 0.145508, 0.308594, -9.72461, 1.25.2022 18:37:33.681
331, 1.79918, 359.528, 195.26, -0.000976562, 0, 0, 0.0595703, 0.317383, -9.74902, 1.25.2022 18:37:33.689
332, 1.79918, 359.528, 195.26, 0, -0.000976562, -0.000976562, 0.0439453, 0.328125, -9.71582, 1.25.2022 18:37:33.697
333, 1.79918, 359.528, 195.26, -0.000976562, -0.000976562, -0.000976562, 0.143555, 0.306641, -9.72461, 1.25.2022 18:37:33.705
334, 1.79918, 359.528, 195.26, -0.000976562, -0.000976562, -0.000976562, 0.0410156, 0.323242, -9.71094, 1.25.2022 18:37:33.713
335, 1.79918, 359.528, 195.26, -0.000976562, -0.000976562, 0.000976562, 0.0644531, 0.304688, -9.74023, 1.25.2022 18:37:33.721
336, 1.79918, 359.528, 195.26, -0.000976562, -0.000976562, 0.000976562, 0.110352, 0.291992, -9.72754, 1.25.2022 18:37:33.729
337, 1.79918, 359.528, 195.26, 0.000976562, -0.000976562, 0.000976562, 0.0175781, 0.323242, -9.72266, 1.25.2022 18:37:33.737
338, 1.79918, 359.528, 195.26, 0, -0.000976562, -0.000976562, 0.128906, 0.316406, -9.72168, 1.25.2022 18:37:33.745
339, 1.79918, 359.528, 195.26, 0, 0, 0, 0.0703125, 0.293945, -9.70801, 1.25.2022 18:37:33.753
340, 1.79225, 359.527, 195.26, -0.000976562, -0.000976562, -0.000976562, 0.0439453, 0.326172, -9.72266, 1.25.2022 18:37:33.761
341, 1.79918, 359.528, 195.26, -0.000976562, -0.000976562, -0.000976562, 0.125, 0.303711, -9.72266, 1.25.2022 18:37:33.769
342, 1.79918, 359.528, 195.26, -0.000976562, -0.000976562, -0.000976562, 0.0175781, 0.328125, -9.73145, 1.25.2022 18:37:33.777
343, 1.79918, 359.528, 195.26, -0.000976562, 0, 0, 0.09375, 0.313477, -9.70508, 1.25.2022 18:37:33.785
344, 1.79918, 359.528, 195.26, -0.00195312, 0, 0, 0.0888672, 0.310547, -9.70996, 1.25.2022 18:37:33.793
345, 1.79918, 359.528, 195.26, -0.00195312, -0.000976562, 0, 0.0175781, 0.318359, -9.71094, 1.25.2022 18:37:33.801
346, 1.79918, 359.528, 195.26, 0, -0.000976562, -0.000976562, 0.113281, 0.31543, -9.70996, 1.25.2022 18:37:33.809
347, 1.79918, 359.528, 195.26, 0, -0.000976562, -0.000976562, 0.0722656, 0.305664, -9.68848, 1.25.2022 18:37:33.817
348, 1.79918, 359.528, 195.26, -0.000976562, -0.00195312, -0.000976562, 0.0800781, 0.3125, -9.68164, 1.25.2022 18:37:33.825
349, 1.79918, 359.528, 195.26, -0.000976562, -0.000976562, 0.000976562, 0.125, 0.279297, -9.69434, 1.25.2022 18:37:33.833
350, 1.79918, 359.528, 195.26, -0.000976562, -0.000976562, 0.000976562, 0.0371094, 0.34375, -9.68457, 1.25.2022 18:37:33.841
351, 1.79918, 359.528, 195.26, -0.000976562, -0.000976562, -0.000976562, 0.0839844, 0.294922, -9.72168, 1.25.2022 18:37:33.849
352, 1.80611, 359.529, 195.26, 0.000976562, -0.000976562, 0.000976562, 0.0742188, 0.290039, -9.71484, 1.25.2022 18:37:33.857
353, 1.80611, 359.529, 195.26, 0, -0.00195312, -0.000976562, 0.0263672, 0.327148, -9.77246, 1.25.2022 18:37:33.865
354, 1.80518, 359.536, 195.26, 0, -0.000976562, -0.000976562, 0.105469, 0.307617, -9.74609, 1.25.2022 18:37:33.873
355, 1.80518, 359.536, 195.26, 0, -0.000976562, -0.000976562, 0.0625, 0.330078, -9.71875, 1.25.2022 18:37:33.881
356, 1.80518, 359.536, 195.26, 0, -0.000976562, -0.000976562, 0.0488281, 0.330078, -9.71387, 1.25.2022 18:37:33.889
357, 1.80518, 359.536, 195.26, 0, -0.000976562, -0.000976562, 0.117188, 0.292969, -9.73926, 1.25.2022 18:37:33.897
358, 1.80518, 359.536, 195.26, -0.000976562, -0.000976562, -0.000976562, 0.0449219, 0.3125, -9.75879, 1.25.2022 18:37:33.905
359, 1.80518, 359.536, 195.26, 0, -0.000976562, -0.000976562, 0.0888672, 0.313477, -9.72168, 1.25.2022 18:37:33.913
360, 1.80518, 359.536, 195.26, -0.000976562, -0.000976562, -0.000976562, 0.0869141, 0.292969, -9.67676, 1.25.2022 18:37:33.921
361, 1.80518, 359.536, 195.26, -0.000976562, -0.000976562, -0.000976562, 0.0341797, 0.349609, -9.71484, 1.25.2022 18:37:33.929
362, 1.80518, 359.536, 195.26, 0, -0.00195312, -0.000976562, 0.118164, 0.298828, -9.69922, 1.25.2022 18:37:33.937
363, 1.81118, 359.544, 195.259, 0, -0.000976562, -0.000976562, 0.0732422, 0.314453, -9.67871, 1.25.2022 18:37:33.945
364, 1.81118, 359.544, 195.259, -0.000976562, -0.000976562, -0.000976562, 0.0800781, 0.302734, -9.68848, 1.25.2022 18:37:33.953
365, 1.81118, 359.544, 195.259, 0, -0.000976562, -0.000976562, 0.134766, 0.292969, -9.68262, 1.25.2022 18:37:33.961
366, 1.81118, 359.544, 195.259, -0.000976562, -0.000976562, -0.000976562, 0.0244141, 0.318359, -9.70898, 1.25.2022 18:37:33.969
367, 1.81118, 359.544, 195.259, -0.000976562, -0.000976562, -0.000976562, 0.0908203, 0.304688, -9.7334, 1.25.2022 18:37:33.977
368, 1.81118, 359.544, 195.259, -0.000976562, -0.000976562, -0.000976562, 0.0839844, 0.311523, -9.72656, 1.25.2022 18:37:33.985
369, 1.81118, 359.544, 195.259, -0.000976562, 0.000976562, -0.000976562, 0.0351562, 0.329102, -9.67578, 1.25.2022 18:37:33.993
370, 1.81118, 359.544, 195.259, -0.000976562, 0.000976562, -0.000976562, 0.134766, 0.305664, -9.6875, 1.25.2022 18:37:34.001
371, 1.81811, 359.545, 195.26, -0.000976562, 0.000976562, -0.000976562, 0.0917969, 0.328125, -9.71191, 1.25.2022 18:37:34.009
372, 1.81811, 359.545, 195.26, -0.000976562, -0.000976562, -0.000976562, 0.0292969, 0.303711, -9.69727, 1.25.2022 18:37:34.017
373, 1.81811, 359.545, 195.26, -0.000976562, -0.000976562, -0.000976562, 0.103516, 0.301758, -9.72168, 1.25.2022 18:37:34.025
374, 1.81811, 359.545, 195.26, -0.000976562, -0.000976562, -0.000976562, 0.0195312, 0.292969, -9.73047, 1.25.2022 18:37:34.033
375, 1.81811, 359.545, 195.26, -0.000976562, -0.000976562, -0.00195312, 0.0820312, 0.303711, -9.70996, 1.25.2022 18:37:34.041
376, 1.81811, 359.545, 195.26, 0, -0.000976562, -0.000976562, 0.0917969, 0.308594, -9.69531, 1.25.2022 18:37:34.049
377, 1.81811, 359.545, 195.26, 0, -0.000976562, -0.000976562, 0.0292969, 0.344727, -9.71777, 1.25.2022 18:37:34.057
378, 1.81811, 359.545, 195.26, -0.00195312, -0.000976562, 0, 0.115234, 0.307617, -9.69336, 1.25.2022 18:37:34.065
379, 1.81811, 359.545, 195.26, -0.000976562, -0.000976562, -0.000976562, 0.0380859, 0.296875, -9.73047, 1.25.2022 18:37:34.073
380, 1.82504, 359.546, 195.26, -0.000976562, -0.00195312, 0, 0.0585938, 0.314453, -9.67871, 1.25.2022 18:37:34.081
381, 1.82504, 359.546, 195.26, 0, -0.000976562, -0.000976562, 0.123047, 0.298828, -9.69629, 1.25.2022 18:37:34.089
382, 1.82504, 359.546, 195.26, 0, -0.000976562, -0.00195312, 0.0429688, 0.297852, -9.74219, 1.25.2022 18:37:34.097
383, 1.82504, 359.546, 195.26, -0.000976562, -0.000976562, -0.000976562, 0.0976562, 0.311523, -9.73828, 1.25.2022 18:37:34.105
384, 1.82504, 359.546, 195.26, -0.00195312, -0.00195312, -0.000976562, 0.0869141, 0.328125, -9.70898, 1.25.2022 18:37:34.113
385, 1.82504, 359.546, 195.26, 0, -0.000976562, -0.000976562, 0.0556641, 0.320312, -9.71387, 1.25.2022 18:37:34.121
386, 1.82411, 359.553, 195.259, 0, -0.000976562, -0.000976562, 0.131836, 0.327148, -9.70312, 1.25.2022 18:37:34.129
387, 1.82411, 359.553, 195.259, -0.000976562, -0.000976562, -0.000976562, 0.0585938, 0.310547, -9.68066, 1.25.2022 18:37:34.137
388, 1.82411, 359.553, 195.259, -0.000976562, -0.000976562, -0.000976562, 0.0703125, 0.313477, -9.71191, 1.25.2022 18:37:34.145
389, 1.82411, 359.553, 195.259, 0, -0.000976562, -0.00195312, 0.143555, 0.275391, -9.70898, 1.25.2022 18:37:34.153
390, 1.82411, 359.553, 195.259, -0.000976562, -0.00195312, -0.00195312, 0.0351562, 0.319336, -9.67578, 1.25.2022 18:37:34.161
391, 1.82411, 359.553, 195.259, -0.00195312, -0.000976562, -0.00195312, 0.0859375, 0.307617, -9.74512, 1.25.2022 18:37:34.169
392, 1.82411, 359.553, 195.259, -0.00195312, -0.000976562, -0.000976562, 0.0957031, 0.27832, -9.73242, 1.25.2022 18:37:34.177
393, 1.82411, 359.553, 195.259, -0.000976562, 0.000976562, 0.000976562, 0.0419922, 0.322266, -9.69922, 1.25.2022 18:37:34.185
394, 1.83197, 359.547, 195.26, -0.000976562, -0.000976562, 0, 0.12207, 0.293945, -9.70801, 1.25.2022 18:37:34.193
395, 1.83197, 359.547, 195.26, -0.000976562, -0.000976562, 0, 0.0693359, 0.303711, -9.71875, 1.25.2022 18:37:34.201
396, 1.83197, 359.547, 195.26, -0.00195312, 0, 0, 0.0605469, 0.334961, -9.69727, 1.25.2022 18:37:34.209
397, 1.83197, 359.547, 195.26, -0.000976562, -0.00195312, 0, 0.117188, 0.316406, -9.7334, 1.25.2022 18:37:34.217
398, 1.83197, 359.547, 195.26, -0.000976562, -0.000976562, 0, 0.03125, 0.326172, -9.74414, 1.25.2022 18:37:34.225
399, 1.83197, 359.547, 195.26, -0.000976562, -0.000976562, 0, 0.0986328, 0.289062, -9.70312, 1.25.2022 18:37:34.233
400, 1.83197, 359.547, 195.26, -0.000976562, -0.000976562, 0, 0.0908203, 0.3125, -9.74805, 1.25.2022 18:37:34.241
401, 1.83197, 359.547, 195.26, -0.000976562, -0.00195312, 0, 0.0390625, 0.308594, -9.72363, 1.25.2022 18:37:34.249
402, 1.83197, 359.547, 195.26, -0.000976562, -0.000976562, 0.000976562, 0.115234, 0.301758, -9.71973, 1.25.2022 18:37:34.257
403, 1.83197, 359.547, 195.26, -0.000976562, -0.000976562, 0.000976562, 0.0751953, 0.291992, -9.70801, 1.25.2022 18:37:34.265
404, 1.83197, 359.547, 195.26, -0.000976562, 0.000976562, 0, 0.0625, 0.329102, -9.75391, 1.25.2022 18:37:34.273
405, 1.83197, 359.547, 195.26, -0.000976562, 0.000976562, 0.000976562, 0.0986328, 0.301758, -9.70801, 1.25.2022 18:37:34.281
406, 1.83197, 359.547, 195.26, -0.000976562, -0.000976562, 0, 0.0302734, 0.307617, -9.67578, 1.25.2022 18:37:34.289
407, 1.83197, 359.547, 195.26, -0.000976562, 0, -0.00195312, 0.0771484, 0.293945, -9.70801, 1.25.2022 18:37:34.297
408, 1.82504, 359.546, 195.26, 0, -0.000976562, 0, 0.0986328, 0.273438, -9.7207, 1.25.2022 18:37:34.305
409, 1.82504, 359.546, 195.26, -0.000976562, -0.000976562, 0, 0.0361328, 0.306641, -9.71875, 1.25.2022 18:37:34.313
410, 1.82504, 359.546, 195.26, -0.000976562, -0.000976562, 0, 0.15332, 0.306641, -9.72559, 1.25.2022 18:37:34.321
411, 1.82504, 359.546, 195.26, 0, -0.000976562, 0, 0.0537109, 0.291016, -9.68848, 1.25.2022 18:37:34.329
412, 1.82504, 359.546, 195.26, -0.000976562, -0.00195312, 0, 0.0380859, 0.324219, -9.76074, 1.25.2022 18:37:34.337
413, 1.82504, 359.546, 195.26, -0.000976562, -0.00195312, -0.00195312, 0.112305, 0.30957, -9.73145, 1.25.2022 18:37:34.345
414, 1.82504, 359.546, 195.26, -0.00195312, 0, -0.00195312, 0.0273438, 0.325195, -9.7041, 1.25.2022 18:37:34.353
415, 1.82504, 359.546, 195.26, -0.000976562, -0.000976562, 0.000976562, 0.103516, 0.308594, -9.71289, 1.25.2022 18:37:34.361
416, 1.82504, 359.546, 195.26, -0.000976562, -0.00195312, 0, 0.0771484, 0.295898, -9.68652, 1.25.2022 18:37:34.369
417, 1.82504, 359.546, 195.26, -0.000976562, -0.000976562, 0, 0.0605469, 0.323242, -9.72363, 1.25.2022 18:37:34.377
418, 1.82504, 359.546, 195.26, -0.000976562, -0.000976562, 0, 0.109375, 0.286133, -9.75586, 1.25.2022 18:37:34.385
419, 1.82504, 359.546, 195.26, 0, -0.00195312, -0.00195312, 0.0537109, 0.310547, -9.7041, 1.25.2022 18:37:34.393
420, 1.82504, 359.546, 195.26, -0.000976562, -0.000976562, 0, 0.0507812, 0.337891, -9.7207, 1.25.2022 18:37:34.401
421, 1.81811, 359.545, 195.26, -0.000976562, -0.000976562, 0, 0.110352, 0.306641, -9.74316, 1.25.2022 18:37:34.409
422, 1.81811, 359.545, 195.26, 0, -0.000976562, 0, 0.0292969, 0.295898, -9.69238, 1.25.2022 18:37:34.417
423, 1.81811, 359.545, 195.26, -0.000976562, -0.00195312, 0.000976562, 0.09375, 0.301758, -9.72656, 1.25.2022 18:37:34.425
424, 1.81811, 359.545, 195.26, -0.000976562, -0.000976562, 0, 0.107422, 0.30957, -9.75977, 1.25.2022 18:37:34.433
425, 1.81811, 359.545, 195.26, -0.000976562, 0, -0.00195312, 0.0537109, 0.332031, -9.69727, 1.25.2022 18:37:34.441
426, 1.81811, 359.545, 195.26, -0.000976562, 0, 0, 0.15332, 0.295898, -9.7041, 1.25.2022 18:37:34.449
427, 1.81811, 359.545, 195.26, -0.000976562, 0, 0, 0.0507812, 0.308594, -9.7207, 1.25.2022 18:37:34.457
428, 1.81811, 359.545, 195.26, 0.000976562, 0.000976562, 0, 0.0634766, 0.356445, -9.70117, 1.25.2022 18:37:34.465
429, 1.81811, 359.545, 195.26, 0.000976562, 0.000976562, 0, 0.113281, 0.302734, -9.67773, 1.25.2022 18:37:34.473
430, 1.81811, 359.545, 195.26, -0.000976562, 0, 0.000976562, 0.0146484, 0.335938, -9.72656, 1.25.2022 18:37:34.481
431, 1.81811, 359.545, 195.26, -0.000976562, 0.000976562, 0, 0.107422, 0.311523, -9.72656, 1.25.2022 18:37:34.489
432, 1.81811, 359.545, 195.26, 0.000976562, 0, -0.000976562, 0.0722656, 0.303711, -9.69531, 1.25.2022 18:37:34.497
433, 1.81811, 359.545, 195.26, -0.000976562, 0.000976562, 0, 0.0537109, 0.320312, -9.69043, 1.25.2022 18:37:34.505
434, 1.81811, 359.545, 195.26, -0.000976562, 0, 0.000976562, 0.125, 0.325195, -9.7002, 1.25.2022 18:37:34.513
435, 1.81811, 359.545, 195.26, 0.000976562, 0, -0.000976562, 0.0654297, 0.311523, -9.71387, 1.25.2022 18:37:34.521
436, 1.81811, 359.545, 195.26, -0.00195312, 0, -0.00195312, 0.0585938, 0.318359, -9.7002, 1.25.2022 18:37:34.529
437, 1.81811, 359.545, 195.26, -0.000976562, -0.000976562, -0.000976562, 0.115234, 0.296875, -9.70801, 1.25.2022 18:37:34.537
438, 1.82504, 359.546, 195.26, -0.00195312, 0, 0, 0.0126953, 0.282227, -9.7002, 1.25.2022 18:37:34.545
439, 1.82504, 359.546, 195.26, -0.000976562, -0.000976562, -0.000976562, 0.0703125, 0.303711, -9.70996, 1.25.2022 18:37:34.553
440, 1.82504, 359.546, 195.26, 0.000976562, 0, -0.000976562, 0.102539, 0.294922, -9.73145, 1.25.2022 18:37:34.561
441, 1.82504, 359.546, 195.26, -0.00195312, 0, 0, 0.0507812, 0.342773, -9.72461, 1.25.2022 18:37:34.569
442, 1.82504, 359.546, 195.26, 0.000976562, -0.000976562, -0.000976562, 0.126953, 0.3125, -9.69824, 1.25.2022 18:37:34.577
443, 1.82504, 359.546, 195.26, -0.000976562, -0.000976562, -0.000976562, 0.0556641, 0.291016, -9.69531, 1.25.2022 18:37:34.583
444, 1.82504, 359.546, 195.26, 0.000976562, 0, -0.000976562, 0.0751953, 0.31543, -9.69727, 1.25.2022 18:37:34.591
445, 1.82504, 359.546, 195.26, -0.000976562, 0, 0, 0.120117, 0.298828, -9.72266, 1.25.2022 18:37:34.599
446, 1.82504, 359.546, 195.26, -0.000976562, 0.000976562, 0, 0.00585938, 0.368164, -9.70215, 1.25.2022 18:37:34.607
447, 1.82504, 359.546, 195.26, -0.000976562, 0.000976562, 0.000976562, 0.117188, 0.328125, -9.71484, 1.25.2022 18:37:34.615
448, 1.82504, 359.546, 195.26, -0.000976562, 0.000976562, 0, 0.0791016, 0.290039, -9.72461, 1.25.2022 18:37:34.623
449, 1.82504, 359.546, 195.26, -0.000976562, 0, 0, 0.0175781, 0.339844, -9.70996, 1.25.2022 18:37:34.631
450, 1.82504, 359.546, 195.26, -0.000976562, 0, 0, 0.128906, 0.304688, -9.73438, 1.25.2022 18:37:34.639
451, 1.82504, 359.546, 195.26, -0.000976562, 0, 0, 0.0673828, 0.303711, -9.7168, 1.25.2022 18:37:34.647
452, 1.82504, 359.546, 195.26, -0.000976562, -0.000976562, -0.000976562, 0.0820312, 0.31543, -9.68848, 1.25.2022 18:37:34.655
453, 1.83197, 359.547, 195.26, -0.000976562, 0, -0.00195312, 0.100586, 0.298828, -9.71777, 1.25.2022 18:37:34.663
454, 1.83197, 359.547, 195.26, -0.000976562, 0, 0.000976562, 0.0195312, 0.30957, -9.74609, 1.25.2022 18:37:34.671
455, 1.83197, 359.547, 195.26, -0.000976562, 0, 0, 0.103516, 0.320312, -9.70508, 1.25.2022 18:37:34.679
456, 1.83197, 359.547, 195.26, -0.000976562, 0, 0, 0.0957031, 0.275391, -9.71777, 1.25.2022 18:37:34.687
457, 1.83197, 359.547, 195.26, -0.000976562, -0.000976562, -0.000976562, 0.0380859, 0.304688, -9.74023, 1.25.2022 18:37:34.695
458, 1.83197, 359.547, 195.26, -0.000976562, -0.000976562, -0.000976562, 0.118164, 0.310547, -9.70605, 1.25.2022 18:37:34.703
459, 1.83197, 359.547, 195.26, -0.000976562, -0.000976562, 0.000976562, 0.0517578, 0.322266, -9.6709, 1.25.2022 18:37:34.711
460, 1.83197, 359.547, 195.26, 0, -0.000976562, -0.000976562, 0.0800781, 0.330078, -9.70215, 1.25.2022 18:37:34.719
461, 1.83197, 359.547, 195.26, 0, -0.000976562, -0.000976562, 0.115234, 0.277344, -9.7041, 1.25.2022 18:37:34.727
462, 1.83197, 359.547, 195.26, 0, -0.000976562, -0.000976562, 0.0263672, 0.328125, -9.72754, 1.25.2022 18:37:34.735
463, 1.83197, 359.547, 195.26, 0, -0.000976562, -0.000976562, 0.09375, 0.313477, -9.70508, 1.25.2022 18:37:34.743
464, 1.83197, 359.547, 195.26, -0.000976562, -0.000976562, -0.000976562, 0.0673828, 0.286133, -9.69336, 1.25.2022 18:37:34.751
465, 1.83197, 359.547, 195.26, -0.000976562, -0.000976562, -0.000976562, 0.0537109, 0.305664, -9.67871, 1.25.2022 18:37:34.759
466, 1.83197, 359.547, 195.26, -0.000976562, -0.000976562, -0.000976562, 0.143555, 0.303711, -9.70117, 1.25.2022 18:37:34.767
467, 1.83197, 359.547, 195.26, -0.000976562, -0.000976562, -0.000976562, 0.0644531, 0.316406, -9.74219, 1.25.2022 18:37:34.775
468, 1.83197, 359.547, 195.26, -0.000976562, -0.000976562, -0.000976562, 0.0556641, 0.306641, -9.71875, 1.25.2022 18:37:34.783
469, 1.83197, 359.547, 195.26, -0.000976562, -0.000976562, -0.000976562, 0.0693359, 0.319336, -9.73535, 1.25.2022 18:37:34.791
470, 1.83197, 359.547, 195.26, -0.000976562, -0.000976562, -0.000976562, 0.0390625, 0.313477, -9.72754, 1.25.2022 18:37:34.799
471, 1.83197, 359.547, 195.26, -0.000976562, -0.000976562, -0.000976562, 0.103516, 0.330078, -9.70215, 1.25.2022 18:37:34.807
472, 1.83197, 359.547, 195.26, -0.000976562, -0.000976562, -0.000976562, 0.105469, 0.334961, -9.7168, 1.25.2022 18:37:34.815
473, 1.83197, 359.547, 195.26, -0.000976562, -0.000976562, -0.000976562, 0.0585938, 0.330078, -9.70215, 1.25.2022 18:37:34.823
474, 1.83197, 359.547, 195.26, 0, -0.00195312, -0.000976562, 0.125, 0.296875, -9.71094, 1.25.2022 18:37:34.831
475, 1.83197, 359.547, 195.26, -0.000976562, -0.000976562, -0.000976562, 0.0585938, 0.296875, -9.70312, 1.25.2022 18:37:34.839
476, 1.83197, 359.547, 195.26, 0, 0.000976562, -0.000976562, 0.0556641, 0.320312, -9.70215, 1.25.2022 18:37:34.847
477, 1.83197, 359.547, 195.26, -0.000976562, 0.000976562, -0.000976562, 0.105469, 0.282227, -9.71094, 1.25.2022 18:37:34.855
478, 1.83197, 359.547, 195.26, -0.00195312, -0.000976562, -0.000976562, 0.0390625, 0.342773, -9.72266, 1.25.2022 18:37:34.863
479, 1.83197, 359.547, 195.26, -0.000976562, -0.000976562, -0.00195312, 0.105469, 0.313477, -9.70996, 1.25.2022 18:37:34.871
480, 1.83197, 359.547, 195.26, -0.000976562, -0.000976562, -0.00195312, 0.0976562, 0.292969, -9.74609, 1.25.2022 18:37:34.879
481, 1.83197, 359.547, 195.26, -0.000976562, 0.000976562, -0.000976562, 0.0439453, 0.339844, -9.71973, 1.25.2022 18:37:34.887
482, 1.83197, 359.547, 195.26, -0.000976562, -0.000976562, 0.000976562, 0.144531, 0.30957, -9.6709, 1.25.2022 18:37:34.895
483, 1.83197, 359.547, 195.26, 0, -0.000976562, 0.000976562, 0.0839844, 0.303711, -9.7168, 1.25.2022 18:37:34.903
484, 1.83197, 359.547, 195.26, 0, -0.000976562, -0.000976562, 0.0527344, 0.306641, -9.7168, 1.25.2022 18:37:34.911
485, 1.83197, 359.547, 195.26, 0, -0.000976562, -0.00195312, 0.115234, 0.298828, -9.72266, 1.25.2022 18:37:34.919
486, 1.83289, 359.54, 195.26, -0.000976562, -0.000976562, -0.000976562, 0.00585938, 0.344727, -9.70996, 1.25.2022 18:37:34.927
487, 1.83289, 359.54, 195.26, -0.000976562, -0.000976562, -0.000976562, 0.103516, 0.308594, -9.70508, 1.25.2022 18:37:34.935
488, 1.83289, 359.54, 195.26, -0.000976562, 0.000976562, -0.000976562, 0.101562, 0.327148, -9.70215, 1.25.2022 18:37:34.943
489, 1.83289, 359.54, 195.26, -0.000976562, -0.000976562, 0, 0.0390625, 0.328125, -9.71289, 1.25.2022 18:37:34.951
490, 1.83289, 359.54, 195.26, -0.000976562, -0.000976562, 0, 0.12207, 0.318359, -9.72168, 1.25.2022 18:37:34.959
491, 1.83289, 359.54, 195.26, -0.00195312, -0.000976562, 0, 0.0322266, 0.334961, -9.70801, 1.25.2022 18:37:34.967
492, 1.83982, 359.541, 195.26, -0.00195312, -0.000976562, 0, 0.03125, 0.321289, -9.72559, 1.25.2022 18:37:34.975
493, 1.83982, 359.541, 195.26, -0.000976562, -0.000976562, 0, 0.0908203, 0.307617, -9.74512, 1.25.2022 18:37:34.983
494, 1.83982, 359.541, 195.26, -0.00195312, -0.000976562, 0, 0.0371094, 0.34375, -9.69434, 1.25.2022 18:37:34.991
495, 1.83982, 359.541, 195.26, -0.000976562, -0.000976562, 0.000976562, 0.0966797, 0.3125, -9.6748, 1.25.2022 18:37:34.999
496, 1.83982, 359.541, 195.26, -0.000976562, -0.000976562, 0, 0.0703125, 0.305664, -9.70508, 1.25.2022 18:37:35.007
497, 1.83982, 359.541, 195.26, 0, 0, 0.000976562, 0.0498047, 0.332031, -9.7627, 1.25.2022 18:37:35.015
498, 1.83982, 359.541, 195.26, 0, -0.000976562, -0.000976562, 0.12207, 0.295898, -9.7041, 1.25.2022 18:37:35.023
499, 1.84675, 359.542, 195.26, -0.000976562, -0.000976562, 0, 0.0488281, 0.302734, -9.68848, 1.25.2022 18:37:35.031
500, 1.84675, 359.542, 195.26, -0.000976562, -0.000976562, 0, 0.0810547, 0.331055, -9.73242, 1.25.2022 18:37:35.039
501, 1.84675, 359.542, 195.26, -0.000976562, -0.00195312, -0.000976562, 0.100586, 0.292969, -9.74609, 1.25.2022 18:37:35.047
502, 1.84675, 359.542, 195.26, -0.000976562, -0.000976562, 0, 0.0244141, 0.344727, -9.71289, 1.25.2022 18:37:35.055
503, 1.84582, 359.549, 195.26, -0.000976562, -0.000976562, 0, 0.120117, 0.320312, -9.70508, 1.25.2022 18:37:35.063
504, 1.84582, 359.549, 195.26, -0.000976562, -0.000976562, 0, 0.09375, 0.306641, -9.72461, 1.25.2022 18:37:35.071
505, 1.85275, 359.55, 195.26, -0.00195312, 0, 0, 0.0341797, 0.348633, -9.69141, 1.25.2022 18:37:35.079
506, 1.85275, 359.55, 195.26, -0.000976562, -0.000976562, 0, 0.12207, 0.30957, -9.74121, 1.25.2022 18:37:35.087
507, 1.85275, 359.55, 195.26, -0.000976562, -0.000976562, 0, 0.0673828, 0.323242, -9.71191, 1.25.2022 18:37:35.095
508, 1.85275, 359.55, 195.26, -0.00195312, -0.000976562, 0, 0.0703125, 0.298828, -9.70508, 1.25.2022 18:37:35.103
509, 1.85275, 359.55, 195.26, -0.000976562, -0.000976562, 0, 0.114258, 0.288086, -9.74121, 1.25.2022 18:37:35.111
510, 1.85275, 359.55, 195.26, -0.000976562, -0.000976562, 0, 0.0078125, 0.339844, -9.71973, 1.25.2022 18:37:35.119
511, 1.85275, 359.55, 195.26, -0.000976562, -0.000976562, -0.00195312, 0.0859375, 0.299805, -9.72656, 1.25.2022 18:37:35.127
512, 1.85968, 359.55, 195.26, -0.000976562, -0.000976562, 0, 0.0820312, 0.311523, -9.71875, 1.25.2022 18:37:35.135
513, 1.85968, 359.55, 195.26, -0.00195312, 0, 0, 0.0654297, 0.323242, -9.7041, 1.25.2022 18:37:35.143
514, 1.85968, 359.55, 195.26, -0.000976562, -0.000976562, 0, 0.125, 0.289062, -9.69922, 1.25.2022 18:37:35.151
515, 1.85968, 359.55, 195.26, -0.000976562, -0.000976562, 0, 0.0449219, 0.317383, -9.75195, 1.25.2022 18:37:35.159
516, 1.85968, 359.55, 195.26, -0.000976562, 0, 0, 0.0722656, 0.298828, -9.70801, 1.25.2022 18:37:35.167
517, 1.85968, 359.55, 195.26, 0, -0.000976562, -0.000976562, 0.115234, 0.27832, -9.73047, 1.25.2022 18:37:35.175
518, 1.85968, 359.55, 195.26, -0.000976562, 0, 0.000976562, 0.0341797, 0.318359, -9.72266, 1.25.2022 18:37:35.183
519, 1.85968, 359.55, 195.26, 0, 0.00195312, 0, 0.110352, 0.294922, -9.72949, 1.25.2022 18:37:35.191
520, 1.85968, 359.55, 195.26, -0.000976562, -0.000976562, 0.000976562, 0.0791016, 0.303711, -9.72363, 1.25.2022 18:37:35.199
521, 1.85968, 359.55, 195.26, 0.000976562, -0.000976562, 0, 0.0361328, 0.323242, -9.73242, 1.25.2022 18:37:35.207
522, 1.85275, 359.55, 195.26, 0, -0.000976562, -0.000976562, 0.148438, 0.318359, -9.72949, 1.25.2022 18:37:35.215
523, 1.85275, 359.55, 195.26, 0, -0.00195312, -0.000976562, 0.0439453, 0.316406, -9.71875, 1.25.2022 18:37:35.223
524, 1.85275, 359.55, 195.26, 0.000976562, -0.000976562, -0.00195312, 0.0771484, 0.325195, -9.69043, 1.25.2022 18:37:35.231
525, 1.85275, 359.55, 195.26, 0, -0.000976562, -0.000976562, 0.112305, 0.290039, -9.72754, 1.25.2022 18:37:35.239
526, 1.85275, 359.55, 195.26, -0.00195312, -0.000976562, -0.000976562, 0.0263672, 0.313477, -9.72559, 1.25.2022 18:37:35.247
527, 1.85275, 359.55, 195.26, -0.00195312, -0.000976562, -0.00195312, 0.0917969, 0.307617, -9.69141, 1.25.2022 18:37:35.255
528, 1.85275, 359.55, 195.26, 0, -0.000976562, -0.000976562, 0.0712891, 0.294922, -9.74512, 1.25.2022 18:37:35.263
529, 1.85275, 359.55, 195.26, 0, -0.000976562, -0.00195312, 0.0292969, 0.322266, -9.69922, 1.25.2022 18:37:35.271
530, 1.85275, 359.55, 195.26, 0, -0.000976562, -0.00195312, 0.133789, 0.313477, -9.72656, 1.25.2022 18:37:35.279
531, 1.85275, 359.55, 195.26, 0, -0.000976562, -0.000976562, 0.0273438, 0.303711, -9.71582, 1.25.2022 18:37:35.287
532, 1.85275, 359.55, 195.26, 0, -0.000976562, 0, 0.0654297, 0.291016, -9.68164, 1.25.2022 18:37:35.295
533, 1.84582, 359.549, 195.26, 0, -0.000976562, -0.000976562, 0.103516, 0.277344, -9.69922, 1.25.2022 18:37:35.303
534, 1.84582, 359.549, 195.26, 0, -0.00195312, -0.000976562, 0.0263672, 0.306641, -9.7207, 1.25.2022 18:37:35.311
535, 1.84582, 359.549, 195.26, 0.000976562, -0.000976562, -0.000976562, 0.112305, 0.304688, -9.72656, 1.25.2022 18:37:35.319
536, 1.84582, 359.549, 195.26, 0, -0.000976562, -0.000976562, 0.0888672, 0.294922, -9.72461, 1.25.2022 18:37:35.327
537, 1.84582, 359.549, 195.26, 0, -0.000976562, -0.000976562, 0.0517578, 0.302734, -9.66699, 1.25.2022 18:37:35.335
538, 1.84582, 359.549, 195.26, 0, 0, -0.000976562, 0.136719, 0.241211, -9.69336, 1.25.2022 18:37:35.343
539, 1.83889, 359.548, 195.26, 0, -0.000976562, -0.000976562, 0.0771484, 0.295898, -9.68457, 1.25.2022 18:37:35.351
540, 1.83889, 359.548, 195.26, 0, 0, -0.000976562, 0.0458984, 0.322266, -9.69727, 1.25.2022 18:37:35.359
541, 1.83889, 359.548, 195.26, 0, -0.00195312, -0.000976562, 0.131836, 0.282227, -9.72754, 1.25.2022 18:37:35.367
542, 1.83889, 359.548, 195.26, 0, -0.000976562, 0, 0.0224609, 0.323242, -9.71094, 1.25.2022 18:37:35.375
543, 1.83104, 359.554, 195.259, -0.00195312, -0.00195312, -0.000976562, 0.0888672, 0.30957, -9.73633, 1.25.2022 18:37:35.383
544, 1.83104, 359.554, 195.259, -0.00195312, -0.000976562, -0.000976562, 0.0908203, 0.311523, -9.7334, 1.25.2022 18:37:35.391
545, 1.83104, 359.554, 195.259, 0, -0.000976562, -0.000976562, 0.0507812, 0.338867, -9.69238, 1.25.2022 18:37:35.399
546, 1.83104, 359.554, 195.259, 0, -0.000976562, -0.000976562, 0.136719, 0.306641, -9.72949, 1.25.2022 18:37:35.407
547, 1.83104, 359.554, 195.259, 0, -0.000976562, -0.00195312, 0.0410156, 0.321289, -9.72559, 1.25.2022 18:37:35.415
548, 1.82411, 359.553, 195.259, 0, -0.000976562, -0.00195312, 0.0693359, 0.306641, -9.73047, 1.25.2022 18:37:35.423
549, 1.82411, 359.553, 195.259, 0, -0.000976562, -0.000976562, 0.115234, 0.317383, -9.69824, 1.25.2022 18:37:35.431
550, 1.82411, 359.553, 195.259, 0, -0.000976562, -0.000976562, 0.0371094, 0.348633, -9.70117, 1.25.2022 18:37:35.439
551, 1.82411, 359.553, 195.259, 0, -0.000976562, -0.000976562, 0.115234, 0.301758, -9.73145, 1.25.2022 18:37:35.447
552, 1.82411, 359.553, 195.259, 0, -0.000976562, -0.00195312, 0.0693359, 0.342773, -9.72266, 1.25.2022 18:37:35.455
553, 1.82411, 359.553, 195.259, 0.000976562, 0, -0.000976562, 0.0371094, 0.31543, -9.70605, 1.25.2022 18:37:35.463
554, 1.82411, 359.553, 195.259, 0, 0, 0, 0.12207, 0.304688, -9.74316, 1.25.2022 18:37:35.471
555, 1.82411, 359.553, 195.259, 0, 0, 0, 0.03125, 0.30957, -9.74902, 1.25.2022 18:37:35.479
556, 1.82504, 359.546, 195.26, 0, 0, 0, 0.0810547, 0.320312, -9.77539, 1.25.2022 18:37:35.487
557, 1.82504, 359.546, 195.26, -0.00195312, 0.000976562, 0, 0.100586, 0.300781, -9.70312, 1.25.2022 18:37:35.495
558, 1.82504, 359.546, 195.26, -0.00195312, 0, 0, 0.0224609, 0.313477, -9.7207, 1.25.2022 18:37:35.503
559, 1.82504, 359.546, 195.26, 0, 0.000976562, 0, 0.123047, 0.291016, -9.6875, 1.25.2022 18:37:35.511
560, 1.82504, 359.546, 195.26, 0, 0, 0, 0.0908203, 0.298828, -9.71484, 1.25.2022 18:37:35.519
561, 1.82504, 359.546, 195.26, -0.00195312, 0, 0, 0.0527344, 0.314453, -9.7373, 1.25.2022 18:37:35.527
562, 1.82504, 359.546, 195.26, -0.00195312, 0.000976562, 0, 0.130859, 0.276367, -9.74219, 1.25.2022 18:37:35.535
563, 1.82504, 359.546, 195.26, 0, 0.000976562, 0, 0.0439453, 0.313477, -9.70215, 1.25.2022 18:37:35.543
564, 1.82504, 359.546, 195.26, -0.00195312, 0, 0, 0.109375, 0.322266, -9.75488, 1.25.2022 18:37:35.549
565, 1.82504, 359.546, 195.26, 0, 0, 0, 0.0976562, 0.300781, -9.76465, 1.25.2022 18:37:35.557
566, 1.82504, 359.546, 195.26, 0.000976562, 0, 0, 0.0273438, 0.311523, -9.71094, 1.25.2022 18:37:35.565
567, 1.82504, 359.546, 195.26, 0, 0, 0, 0.118164, 0.28125, -9.68555, 1.25.2022 18:37:35.573
568, 1.82504, 359.546, 195.26, 0, 0, 0.000976562, 0.0869141, 0.296875, -9.70801, 1.25.2022 18:37:35.581
569, 1.82504, 359.546, 195.26, 0, 0.000976562, 0, 0.0556641, 0.3125, -9.68359, 1.25.2022 18:37:35.589
570, 1.82504, 359.546, 195.26, 0.000976562, 0, -0.000976562, 0.125, 0.289062, -9.69727, 1.25.2022 18:37:35.597
571, 1.81811, 359.545, 195.26, 0.000976562, 0, 0, 0.00585938, 0.322266, -9.66797, 1.25.2022 18:37:35.605
572, 1.81904, 359.538, 195.26, -0.00195312, 0, 0, 0.0771484, 0.323242, -9.70703, 1.25.2022 18:37:35.613
573, 1.81904, 359.538, 195.26, 0, 0, 0, 0.100586, 0.28418, -9.70605, 1.25.2022 18:37:35.621
574, 1.81904, 359.538, 195.26, 0, 0.000976562, 0.000976562, 0.0175781, 0.316406, -9.7207, 1.25.2022 18:37:35.629
575, 1.81904, 359.538, 195.26, 0, 0.000976562, 0.000976562, 0.108398, 0.296875, -9.71094, 1.25.2022 18:37:35.637
576, 1.81904, 359.538, 195.26, 0, 0.000976562, 0, 0.0888672, 0.323242, -9.7168, 1.25.2022 18:37:35.645
577, 1.81904, 359.538, 195.26, 0.000976562, 0, 0, 0.0292969, 0.328125, -9.70801, 1.25.2022 18:37:35.653
578, 1.81904, 359.538, 195.26, 0, 0, 0, 0.120117, 0.257812, -9.68066, 1.25.2022 18:37:35.661
579, 1.81904, 359.538, 195.26, 0, 0, 0.000976562, 0.0556641, 0.330078, -9.71387, 1.25.2022 18:37:35.669
580, 1.81904, 359.538, 195.26, 0.000976562, 0, 0, 0.0693359, 0.333008, -9.72266, 1.25.2022 18:37:35.677
581, 1.81904, 359.538, 195.26, 0.000976562, 0, 0, 0.0703125, 0.28125, -9.67285, 1.25.2022 18:37:35.685
582, 1.81904, 359.538, 195.26, 0, -0.00195312, 0, 0.0244141, 0.313477, -9.72266, 1.25.2022 18:37:35.693
583, 1.81118, 359.544, 195.259, 0.000976562, 0, 0, 0.102539, 0.268555, -9.73242, 1.25.2022 18:37:35.701
584, 1.81118, 359.544, 195.259, 0, -0.00195312, 0, 0.0654297, 0.305664, -9.68359, 1.25.2022 18:37:35.709
585, 1.81118, 359.544, 195.259, 0.000976562, -0.000976562, -0.000976562, 0.0410156, 0.319336, -9.75098, 1.25.2022 18:37:35.717
586, 1.81118, 359.544, 195.259, -0.00195312, -0.000976562, -0.000976562, 0.129883, 0.303711, -9.7041, 1.25.2022 18:37:35.725
587, 1.81118, 359.544, 195.259, -0.000976562, -0.000976562, -0.000976562, 0.0507812, 0.318359, -9.71582, 1.25.2022 18:37:35.733
588, 1.81118, 359.544, 195.259, -0.000976562, -0.000976562, -0.000976562, 0.0625, 0.316406, -9.74707, 1.25.2022 18:37:35.741
589, 1.81118, 359.544, 195.259, -0.000976562, 0, -0.00195312, 0.09375, 0.318359, -9.7168, 1.25.2022 18:37:35.749
590, 1.81118, 359.544, 195.259, -0.00195312, -0.000976562, -0.000976562, 0.0136719, 0.338867, -9.67969, 1.25.2022 18:37:35.757
591, 1.81118, 359.544, 195.259, -0.000976562, -0.000976562, -0.000976562, 0.0888672, 0.287109, -9.70605, 1.25.2022 18:37:35.765
592, 1.81026, 359.551, 195.259, -0.00195312, -0.000976562, 0.000976562, 0.0703125, 0.325195, -9.69238, 1.25.2022 18:37:35.773
593, 1.81026, 359.551, 195.259, -0.000976562, 0, -0.000976562, 0.0478516, 0.319336, -9.74219, 1.25.2022 18:37:35.781
594, 1.81026, 359.551, 195.259, -0.00195312, -0.000976562, -0.000976562, 0.142578, 0.28418, -9.76855, 1.25.2022 18:37:35.789
595, 1.81026, 359.551, 195.259, -0.000976562, -0.00195312, 0, 0.0390625, 0.323242, -9.70898, 1.25.2022 18:37:35.797
596, 1.81026, 359.551, 195.259, -0.000976562, -0.000976562, -0.000976562, 0.0869141, 0.310547, -9.69336, 1.25.2022 18:37:35.805
597, 1.81718, 359.552, 195.259, -0.000976562, -0.000976562, -0.000976562, 0.120117, 0.291992, -9.72461, 1.25.2022 18:37:35.813
598, 1.81718, 359.552, 195.259, -0.000976562, -0.00195312, -0.00195312, 0.0244141, 0.342773, -9.74121, 1.25.2022 18:37:35.821
599, 1.81626, 359.559, 195.259, -0.000976562, -0.000976562, -0.000976562, 0.117188, 0.287109, -9.71289, 1.25.2022 18:37:35.829
600, 1.81626, 359.559, 195.259, -0.000976562, -0.000976562, -0.000976562, 0.0722656, 0.305664, -9.70508, 1.25.2022 18:37:35.837
601, 1.81626, 359.559, 195.259, -0.000976562, -0.000976562, -0.000976562, 0.0410156, 0.323242, -9.72559, 1.25.2022 18:37:35.845
602, 1.81626, 359.559, 195.259, -0.000976562, -0.000976562, -0.000976562, 0.114258, 0.291016, -9.77441, 1.25.2022 18:37:35.853
603, 1.81626, 359.559, 195.259, -0.000976562, -0.000976562, -0.00195312, 0.0390625, 0.34375, -9.68945, 1.25.2022 18:37:35.861
604, 1.81626, 359.559, 195.259, -0.000976562, -0.000976562, -0.000976562, 0.0849609, 0.322266, -9.69727, 1.25.2022 18:37:35.869
605, 1.81626, 359.559, 195.259, 0.000976562, -0.000976562, -0.000976562, 0.100586, 0.306641, -9.72949, 1.25.2022 18:37:35.877
606, 1.81626, 359.559, 195.259, 0.000976562, -0.000976562, -0.000976562, 0.0175781, 0.334961, -9.70996, 1.25.2022 18:37:35.885
607, 1.81626, 359.559, 195.259, 0.000976562, -0.000976562, -0.000976562, 0.0810547, 0.285156, -9.73438, 1.25.2022 18:37:35.893
608, 1.81626, 359.559, 195.259, 0.000976562, -0.00195312, -0.000976562, 0.0625, 0.303711, -9.71387, 1.25.2022 18:37:35.901
609, 1.81626, 359.559, 195.259, -0.000976562, 0, -0.00195312, 0.0605469, 0.332031, -9.70605, 1.25.2022 18:37:35.909
610, 1.81626, 359.559, 195.259, -0.000976562, -0.000976562, -0.000976562, 0.136719, 0.306641, -9.73633, 1.25.2022 18:37:35.917
611, 1.81626, 359.559, 195.259, -0.00195312, -0.00195312, 0, 0.0429688, 0.319336, -9.73535, 1.25.2022 18:37:35.925
612, 1.81626, 359.559, 195.259, -0.000976562, -0.000976562, -0.000976562, 0.0771484, 0.310547, -9.70508, 1.25.2022 18:37:35.933
613, 1.82318, 359.56, 195.259, -0.000976562, -0.000976562, -0.000976562, 0.102539, 0.290039, -9.74414, 1.25.2022 18:37:35.941
614, 1.82226, 359.567, 195.259, 0.000976562, -0.000976562, -0.000976562, 0.0126953, 0.327148, -9.69629, 1.25.2022 18:37:35.949
615, 1.82226, 359.567, 195.259, -0.000976562, -0.000976562, -0.000976562, 0.126953, 0.306641, -9.71484, 1.25.2022 18:37:35.957
616, 1.82226, 359.567, 195.259, -0.000976562, -0.000976562, -0.000976562, 0.0869141, 0.306641, -9.71484, 1.25.2022 18:37:35.965
617, 1.82226, 359.567, 195.259, 0.000976562, 0, -0.00195312, 0.0820312, 0.338867, -9.68555, 1.25.2022 18:37:35.973
618, 1.82226, 359.567, 195.259, -0.000976562, 0, 0, 0.138672, 0.285156, -9.73047, 1.25.2022 18:37:35.981
619, 1.82318, 359.56, 195.259, -0.000976562, 0.000976562, -0.000976562, 0.0371094, 0.332031, -9.67773, 1.25.2022 18:37:35.989
620, 1.82318, 359.56, 195.259, -0.000976562, 0.000976562, 0, 0.0849609, 0.302734, -9.68164, 1.25.2022 18:37:35.997
621, 1.82318, 359.56, 195.259, -0.000976562, 0.000976562, 0, 0.0839844, 0.290039, -9.71484, 1.25.2022 18:37:36.005
622, 1.82318, 359.56, 195.259, -0.000976562, 0, -0.00195312, 0.0244141, 0.301758, -9.73242, 1.25.2022 18:37:36.013
623, 1.82318, 359.56, 195.259, -0.000976562, -0.00195312, 0, 0.134766, 0.291992, -9.7041, 1.25.2022 18:37:36.021
624, 1.82318, 359.56, 195.259, -0.000976562, -0.00195312, 0, 0.0908203, 0.303711, -9.71973, 1.25.2022 18:37:36.029
625, 1.82318, 359.56, 195.259, -0.000976562, 0, 0, 0.0537109, 0.332031, -9.6875, 1.25.2022 18:37:36.037
626, 1.82318, 359.56, 195.259, -0.000976562, 0, 0, 0.118164, 0.293945, -9.6875, 1.25.2022 18:37:36.045
627, 1.82318, 359.56, 195.259, -0.000976562, 0, 0.000976562, 0.0292969, 0.323242, -9.71289, 1.25.2022 18:37:36.053
628, 1.82318, 359.56, 195.259, -0.000976562, 0.000976562, 0, 0.0322266, 0.308594, -9.7041, 1.25.2022 18:37:36.061
629, 1.82318, 359.56, 195.259, -0.000976562, 0.000976562, 0, 0.0869141, 0.318359, -9.7168, 1.25.2022 18:37:36.069
630, 1.82411, 359.553, 195.259, 0.000976562, 0, 0, 0.0410156, 0.301758, -9.71875, 1.25.2022 18:37:36.077
631, 1.82411, 359.553, 195.259, -0.000976562, 0, 0.000976562, 0.115234, 0.289062, -9.71289, 1.25.2022 18:37:36.085
632, 1.82411, 359.553, 195.259, -0.000976562, -0.00195312, 0, 0.0605469, 0.305664, -9.7002, 1.25.2022 18:37:36.093
633, 1.82411, 359.553, 195.259, -0.00195312, 0, 0, 0.0537109, 0.31543, -9.70898, 1.25.2022 18:37:36.101
634, 1.82411, 359.553, 195.259, -0.000976562, 0, 0, 0.107422, 0.266602, -9.76367, 1.25.2022 18:37:36.109
635, 1.82411, 359.553, 195.259, 0.000976562, 0.000976562, 0, 0.00292969, 0.326172, -9.71777, 1.25.2022 18:37:36.117
636, 1.82411, 359.553, 195.259, 0.000976562, 0, 0, 0.0908203, 0.30957, -9.73145, 1.25.2022 18:37:36.125
637, 1.82411, 359.553, 195.259, -0.000976562, 0, 0, 0.12207, 0.283203, -9.74414, 1.25.2022 18:37:36.133
638, 1.82411, 359.553, 195.259, 0.000976562, 0.000976562, -0.00195312, 0.0380859, 0.336914, -9.76758, 1.25.2022 18:37:36.141
639, 1.82411, 359.553, 195.259, -0.000976562, -0.00195312, 0, 0.103516, 0.306641, -9.72656, 1.25.2022 18:37:36.149
640, 1.82318, 359.56, 195.259, -0.000976562, 0, 0, 0.0537109, 0.291992, -9.70703, 1.25.2022 18:37:36.157
641, 1.82318, 359.56, 195.259, -0.000976562, 0, 0, 0.0771484, 0.325195, -9.7002, 1.25.2022 18:37:36.165
642, 1.82318, 359.56, 195.259, -0.000976562, -0.00195312, 0, 0.120117, 0.293945, -9.71094, 1.25.2022 18:37:36.173
643, 1.82318, 359.56, 195.259, -0.000976562, -0.00195312, 0, 0.0517578, 0.320312, -9.6875, 1.25.2022 18:37:36.181
644, 1.82318, 359.56, 195.259, 0.000976562, 0, 0, 0.101562, 0.31543, -9.7002, 1.25.2022 18:37:36.189
645, 1.81626, 359.559, 195.259, -0.000976562, -0.00195312, 0.000976562, 0.0966797, 0.295898, -9.70312, 1.25.2022 18:37:36.197
646, 1.81626, 359.559, 195.259, -0.000976562, 0, 0, 0.0585938, 0.307617, -9.68555, 1.25.2022 18:37:36.205
647, 1.81626, 359.559, 195.259, -0.000976562, 0.000976562, -0.000976562, 0.131836, 0.290039, -9.73926, 1.25.2022 18:37:36.213
648, 1.81626, 359.559, 195.259, -0.000976562, 0.000976562, 0, 0.0556641, 0.30957, -9.73535, 1.25.2022 18:37:36.221
649, 1.81626, 359.559, 195.259, -0.000976562, -0.000976562, 0.000976562, 0.0605469, 0.328125, -9.72266, 1.25.2022 18:37:36.229
650, 1.81626, 359.559, 195.259, 0, 0.000976562, 0, 0.128906, 0.270508, -9.71875, 1.25.2022 18:37:36.237
651, 1.81718, 359.552, 195.259, -0.000976562, -0.000976562, -0.000976562, 0.0585938, 0.308594, -9.7002, 1.25.2022 18:37:36.245
652, 1.81718, 359.552, 195.259, -0.000976562, -0.000976562, -0.000976562, 0.0966797, 0.279297, -9.69238, 1.25.2022 18:37:36.253
653, 1.81718, 359.552, 195.259, -0.000976562, 0.000976562, 0, 0.0888672, 0.282227, -9.71094, 1.25.2022 18:37:36.261
654, 1.81718, 359.552, 195.259, -0.000976562, -0.00195312, -0.000976562, 0.00976562, 0.324219, -9.73926, 1.25.2022 18:37:36.269
655, 1.81718, 359.552, 195.259, -0.000976562, -0.000976562, 0, 0.12207, 0.294922, -9.73242, 1.25.2022 18:37:36.277
656, 1.81026, 359.551, 195.259, -0.000976562, -0.000976562, 0.000976562, 0.0966797, 0.291992, -9.70117, 1.25.2022 18:37:36.285
657, 1.81026, 359.551, 195.259, -0.000976562, -0.000976562, -0.000976562, 0.0439453, 0.325195, -9.69727, 1.25.2022 18:37:36.293
658, 1.81026, 359.551, 195.259, -0.000976562, -0.000976562, 0, 0.144531, 0.272461, -9.69336, 1.25.2022 18:37:36.301
659, 1.81026, 359.551, 195.259, -0.000976562, -0.000976562, 0.000976562, 0.0556641, 0.323242, -9.71582, 1.25.2022 18:37:36.309
660, 1.81026, 359.551, 195.259, -0.000976562, -0.000976562, -0.000976562, 0.0820312, 0.320312, -9.71387, 1.25.2022 18:37:36.317
661, 1.81026, 359.551, 195.259, -0.00195312, -0.000976562, 0, 0.0957031, 0.291992, -9.71289, 1.25.2022 18:37:36.325
662, 1.81118, 359.544, 195.259, -0.000976562, -0.000976562, 0.000976562, 0.0439453, 0.307617, -9.69043, 1.25.2022 18:37:36.333
663, 1.81118, 359.544, 195.259, -0.000976562, -0.000976562, 0, 0.120117, 0.298828, -9.70312, 1.25.2022 18:37:36.341
664, 1.81118, 359.544, 195.259, 0, 0.000976562, 0, 0.0595703, 0.326172, -9.74707, 1.25.2022 18:37:36.349
665, 1.80425, 359.543, 195.259, 0, -0.000976562, -0.00195312, 0.0527344, 0.326172, -9.75391, 1.25.2022 18:37:36.357
666, 1.80425, 359.543, 195.259, 0, -0.000976562, -0.00195312, 0.119141, 0.304688, -9.75098, 1.25.2022 18:37:36.365
667, 1.80425, 359.543, 195.259, -0.000976562, -0.000976562, -0.000976562, 0.0175781, 0.336914, -9.69141, 1.25.2022 18:37:36.373
668, 1.80425, 359.543, 195.259, -0.000976562, -0.00195312, -0.000976562, 0.0839844, 0.296875, -9.72168, 1.25.2022 18:37:36.381
669, 1.80425, 359.543, 195.259, 0, 0.000976562, 0, 0.103516, 0.293945, -9.70605, 1.25.2022 18:37:36.389
670, 1.80425, 359.543, 195.259, 0, -0.000976562, 0.000976562, 0.0273438, 0.332031, -9.70605, 1.25.2022 18:37:36.397
671, 1.80425, 359.543, 195.259, -0.000976562, -0.000976562, 0.000976562, 0.113281, 0.310547, -9.71289, 1.25.2022 18:37:36.405
672, 1.80425, 359.543, 195.259, -0.000976562, -0.000976562, -0.000976562, 0.0634766, 0.3125, -9.68848, 1.25.2022 18:37:36.413
673, 1.80425, 359.543, 195.259, -0.000976562, -0.000976562, -0.000976562, 0.0507812, 0.318359, -9.7207, 1.25.2022 18:37:36.421
674, 1.80425, 359.543, 195.259, -0.000976562, -0.000976562, 0, 0.128906, 0.290039, -9.7207, 1.25.2022 18:37:36.429
675, 1.80425, 359.543, 195.259, -0.000976562, -0.000976562, -0.000976562, 0.0292969, 0.301758, -9.70898, 1.25.2022 18:37:36.437
676, 1.80425, 359.543, 195.259, -0.00195312, -0.000976562, 0, 0.0722656, 0.301758, -9.7168, 1.25.2022 18:37:36.445
677, 1.80425, 359.543, 195.259, -0.00195312, 0.000976562, 0, 0.0771484, 0.280273, -9.71094, 1.25.2022 18:37:36.453
678, 1.80425, 359.543, 195.259, -0.00195312, -0.000976562, -0.00195312, 0.0390625, 0.337891, -9.73145, 1.25.2022 18:37:36.461
679, 1.80425, 359.543, 195.259, -0.000976562, 0.000976562, 0, 0.139648, 0.291016, -9.69922, 1.25.2022 18:37:36.469
680, 1.80425, 359.543, 195.259, -0.000976562, -0.000976562, -0.000976562, 0.0693359, 0.314453, -9.73828, 1.25.2022 18:37:36.477
681, 1.80425, 359.543, 195.259, -0.000976562, -0.000976562, -0.000976562, 0.0527344, 0.333008, -9.73926, 1.25.2022 18:37:36.485
682, 1.80425, 359.543, 195.259, -0.000976562, -0.000976562, -0.000976562, 0.115234, 0.304688, -9.73438, 1.25.2022 18:37:36.493
683, 1.81118, 359.544, 195.259, -0.000976562, -0.000976562, 0.000976562, 0.0185547, 0.334961, -9.7998, 1.25.2022 18:37:36.501
684, 1.81118, 359.544, 195.259, -0.000976562, -0.000976562, -0.000976562, 0.0839844, 0.316406, -9.72363, 1.25.2022 18:37:36.509
685, 1.81118, 359.544, 195.259, -0.000976562, -0.000976562, -0.000976562, 0.0761719, 0.314453, -9.74219, 1.25.2022 18:37:36.517
686, 1.81118, 359.544, 195.259, 0.000976562, -0.000976562, 0.000976562, 0.0263672, 0.30957, -9.72559, 1.25.2022 18:37:36.523
687, 1.81118, 359.544, 195.259, 0.000976562, -0.000976562, -0.000976562, 0.128906, 0.285156, -9.72754, 1.25.2022 18:37:36.531
688, 1.81118, 359.544, 195.259, -0.000976562, -0.000976562, -0.000976562, 0.0947266, 0.283203, -9.66797, 1.25.2022 18:37:36.539
689, 1.81118, 359.544, 195.259, -0.000976562, -0.000976562, -0.000976562, 0.0654297, 0.306641, -9.70996, 1.25.2022 18:37:36.547
690, 1.81118, 359.544, 195.259, -0.000976562, -0.000976562, -0.000976562, 0.115234, 0.318359, -9.72461, 1.25.2022 18:37:36.555
691, 1.81118, 359.544, 195.259, -0.000976562, -0.000976562, -0.000976562, 0.0439453, 0.306641, -9.7207, 1.25.2022 18:37:36.563
692, 1.81118, 359.544, 195.259, -0.000976562, -0.000976562, -0.000976562, 0.0791016, 0.320312, -9.70703, 1.25.2022 18:37:36.571
693, 1.81118, 359.544, 195.259, -0.000976562, -0.000976562, -0.000976562, 0.0888672, 0.275391, -9.73438, 1.25.2022 18:37:36.579
694, 1.81118, 359.544, 195.259, -0.00195312, -0.000976562, -0.000976562, 0.0332031, 0.319336, -9.75098, 1.25.2022 18:37:36.587
695, 1.81118, 359.544, 195.259, -0.000976562, -0.000976562, -0.000976562, 0.148438, 0.303711, -9.7041, 1.25.2022 18:37:36.595
696, 1.81118, 359.544, 195.259, -0.000976562, -0.000976562, -0.000976562, 0.0527344, 0.30957, -9.74219, 1.25.2022 18:37:36.603
697, 1.81118, 359.544, 195.259, -0.000976562, -0.000976562, -0.00195312, 0.0527344, 0.297852, -9.74316, 1.25.2022 18:37:36.611
698, 1.81118, 359.544, 195.259, -0.000976562, -0.000976562, -0.000976562, 0.110352, 0.290039, -9.7207, 1.25.2022 18:37:36.619
699, 1.81118, 359.544, 195.259, -0.000976562, 0.00195312, 0, 0.00390625, 0.322266, -9.69629, 1.25.2022 18:37:36.627
700, 1.81118, 359.544, 195.259, -0.000976562, -0.000976562, -0.000976562, 0.0849609, 0.31543, -9.68652, 1.25.2022 18:37:36.635
701, 1.81118, 359.544, 195.259, -0.000976562, -0.000976562, -0.00195312, 0.0791016, 0.291992, -9.72461, 1.25.2022 18:37:36.643
702, 1.81026, 359.551, 195.259, -0.000976562, -0.000976562, -0.000976562, 0.0224609, 0.325195, -9.6875, 1.25.2022 18:37:36.651
703, 1.81026, 359.551, 195.259, -0.000976562, -0.000976562, -0.000976562, 0.120117, 0.310547, -9.71484, 1.25.2022 18:37:36.659
704, 1.81026, 359.551, 195.259, -0.00195312, 0, -0.000976562, 0.0410156, 0.317383, -9.75098, 1.25.2022 18:37:36.667
705, 1.81026, 359.551, 195.259, -0.000976562, -0.000976562, 0.000976562, 0.0625, 0.318359, -9.73047, 1.25.2022 18:37:36.675
706, 1.81026, 359.551, 195.259, -0.000976562, -0.000976562, -0.000976562, 0.0888672, 0.301758, -9.72656, 1.25.2022 18:37:36.683
707, 1.81026, 359.551, 195.259, -0.000976562, -0.000976562, -0.000976562, 0.0410156, 0.325195, -9.70605, 1.25.2022 18:37:36.691
708, 1.81026, 359.551, 195.259, -0.000976562, -0.000976562, 0.000976562, 0.0986328, 0.296875, -9.72461, 1.25.2022 18:37:36.699
709, 1.81026, 359.551, 195.259, -0.000976562, -0.000976562, -0.000976562, 0.106445, 0.289062, -9.68945, 1.25.2022 18:37:36.707
710, 1.81026, 359.551, 195.259, -0.000976562, -0.00195312, -0.000976562, 0.0361328, 0.303711, -9.70703, 1.25.2022 18:37:36.715
711, 1.81026, 359.551, 195.259, 0.000976562, 0, -0.000976562, 0.125, 0.296875, -9.70801, 1.25.2022 18:37:36.723
712, 1.81026, 359.551, 195.259, -0.000976562, -0.000976562, 0.000976562, 0.0439453, 0.279297, -9.68652, 1.25.2022 18:37:36.731
713, 1.80933, 359.558, 195.259, -0.000976562, -0.000976562, 0, 0.0791016, 0.326172, -9.74707, 1.25.2022 18:37:36.739
714, 1.80933, 359.558, 195.259, -0.000976562, -0.000976562, 0, 0.143555, 0.294922, -9.73438, 1.25.2022 18:37:36.747
715, 1.80933, 359.558, 195.259, -0.000976562, 0, -0.000976562, 0.0244141, 0.323242, -9.70801, 1.25.2022 18:37:36.755
716, 1.80933, 359.558, 195.259, 0.000976562, -0.000976562, -0.000976562, 0.0810547, 0.316406, -9.7334, 1.25.2022 18:37:36.763
717, 1.80933, 359.558, 195.259, -0.000976562, -0.000976562, -0.000976562, 0.0605469, 0.301758, -9.72168, 1.25.2022 18:37:36.771
718, 1.80933, 359.558, 195.259, -0.000976562, -0.000976562, -0.000976562, 0.0292969, 0.339844, -9.71094, 1.25.2022 18:37:36.779
719, 1.80933, 359.558, 195.259, -0.000976562, -0.000976562, -0.000976562, 0.129883, 0.291016, -9.68945, 1.25.2022 18:37:36.787
720, 1.80933, 359.558, 195.259, -0.000976562, -0.000976562, -0.000976562, 0.0830078, 0.3125, -9.67188, 1.25.2022 18:37:36.795
721, 1.80933, 359.558, 195.259, -0.000976562, -0.000976562, -0.000976562, 0.0458984, 0.323242, -9.73438, 1.25.2022 18:37:36.803
722, 1.80933, 359.558, 195.259, -0.000976562, -0.000976562, -0.000976562, 0.129883, 0.298828, -9.71582, 1.25.2022 18:37:36.811
723, 1.80933, 359.558, 195.259, -0.000976562, -0.000976562, -0.000976562, 0.0527344, 0.333984, -9.76074, 1.25.2022 18:37:36.819
724, 1.80933, 359.558, 195.259, -0.000976562, -0.000976562, -0.000976562, 0.0859375, 0.304688, -9.72656, 1.25.2022 18:37:36.827
725, 1.80933, 359.558, 195.259, -0.000976562, -0.000976562, -0.000976562, 0.103516, 0.28418, -9.68262, 1.25.2022 18:37:36.835
726, 1.80933, 359.558, 195.259, -0.000976562, -0.000976562, -0.000976562, 0.0458984, 0.316406, -9.71875, 1.25.2022 18:37:36.843
727, 1.80933, 359.558, 195.259, -0.000976562, -0.000976562, -0.000976562, 0.107422, 0.285156, -9.73926, 1.25.2022 18:37:36.851
728, 1.80933, 359.558, 195.259, -0.000976562, -0.000976562, -0.000976562, 0.0693359, 0.271484, -9.75977, 1.25.2022 18:37:36.859
729, 1.80933, 359.558, 195.259, -0.000976562, -0.000976562, -0.00195312, 0.0654297, 0.31543, -9.70703, 1.25.2022 18:37:36.867
730, 1.80933, 359.558, 195.259, -0.000976562, -0.00195312, -0.000976562, 0.103516, 0.285156, -9.71582, 1.25.2022 18:37:36.875
731, 1.80933, 359.558, 195.259, -0.000976562, -0.00195312, -0.00195312, 0.00976562, 0.282227, -9.71387, 1.25.2022 18:37:36.883
732, 1.80933, 359.558, 195.259, 0.000976562, -0.000976562, -0.00195312, 0.0898438, 0.3125, -9.67676, 1.25.2022 18:37:36.891
733, 1.80933, 359.558, 195.259, 0.000976562, -0.000976562, -0.000976562, 0.0771484, 0.325195, -9.71387, 1.25.2022 18:37:36.899
734, 1.80933, 359.558, 195.259, 0.000976562, -0.00195312, -0.000976562, 0.0322266, 0.330078, -9.7041, 1.25.2022 18:37:36.907
735, 1.80933, 359.558, 195.259, -0.000976562, -0.000976562, -0.000976562, 0.15332, 0.289062, -9.71875, 1.25.2022 18:37:36.915
736, 1.80933, 359.558, 195.259, -0.000976562, -0.000976562, -0.000976562, 0.0419922, 0.300781, -9.69531, 1.25.2022 18:37:36.923
737, 1.80933, 359.558, 195.259, 0.000976562, -0.000976562, -0.000976562, 0.0644531, 0.314453, -9.75, 1.25.2022 18:37:36.931
738, 1.80933, 359.558, 195.259, 0.000976562, -0.000976562, -0.000976562, 0.110352, 0.308594, -9.71973, 1.25.2022 18:37:36.939
739, 1.80933, 359.558, 195.259, -0.000976562, 0, -0.000976562, 0.0292969, 0.318359, -9.71582, 1.25.2022 18:37:36.947
740, 1.80933, 359.558, 195.259, -0.000976562, -0.000976562, -0.000976562, 0.0917969, 0.308594, -9.71484, 1.25.2022 18:37:36.955
741, 1.80933, 359.558, 195.259, -0.000976562, -0.000976562, -0.00195312, 0.103516, 0.298828, -9.70605, 1.25.2022 18:37:36.963
742, 1.8024, 359.557, 195.259, 0.000976562, -0.000976562, -0.00195312, 0.0458984, 0.326172, -9.73047, 1.25.2022 18:37:36.971
743, 1.8024, 359.557, 195.259, 0.000976562, 0.000976562, -0.00195312, 0.133789, 0.285156, -9.72559, 1.25.2022 18:37:36.979
744, 1.8024, 359.557, 195.259, -0.000976562, -0.000976562, -0.000976562, 0.0595703, 0.299805, -9.73828, 1.25.2022 18:37:36.987
745, 1.8024, 359.557, 195.259, -0.000976562, -0.00195312, -0.000976562, 0.0800781, 0.30957, -9.67676, 1.25.2022 18:37:36.995
746, 1.8024, 359.557, 195.259, -0.000976562, 0.000976562, 0.000976562, 0.124023, 0.294922, -9.72949, 1.25.2022 18:37:37.003
747, 1.8024, 359.557, 195.259, 0, 0, 0, 0.0273438, 0.313477, -9.70605, 1.25.2022 18:37:37.011
748, 1.8024, 359.557, 195.259, 0, 0, 0, 0.09375, 0.318359, -9.7334, 1.25.2022 18:37:37.019
749, 1.8024, 359.557, 195.259, -0.000976562, 0, 0, 0.0673828, 0.306641, -9.73535, 1.25.2022 18:37:37.027
750, 1.8024, 359.557, 195.259, 0, 0, 0, 0.0439453, 0.332031, -9.70605, 1.25.2022 18:37:37.035
751, 1.8024, 359.557, 195.259, -0.000976562, 0.000976562, 0, 0.128906, 0.283203, -9.73047, 1.25.2022 18:37:37.043
752, 1.80333, 359.55, 195.259, 0, 0, 0, 0.0654297, 0.321289, -9.7207, 1.25.2022 18:37:37.051
753, 1.80333, 359.55, 195.259, -0.000976562, 0, 0.000976562, 0.0742188, 0.299805, -9.73828, 1.25.2022 18:37:37.059
754, 1.80333, 359.55, 195.259, 0, 0, 0, 0.0957031, 0.285156, -9.71973, 1.25.2022 18:37:37.067
755, 1.80333, 359.55, 195.259, -0.000976562, 0, 0, 0.0214844, 0.331055, -9.73438, 1.25.2022 18:37:37.075
756, 1.80333, 359.55, 195.259, -0.00195312, 0, -0.000976562, 0.0869141, 0.311523, -9.71973, 1.25.2022 18:37:37.083
757, 1.80333, 359.55, 195.259, -0.000976562, 0, 0, 0.100586, 0.323242, -9.71875, 1.25.2022 18:37:37.091
758, 1.80333, 359.55, 195.259, -0.000976562, 0.000976562, 0, 0.0458984, 0.308594, -9.71191, 1.25.2022 18:37:37.099
759, 1.80333, 359.55, 195.259, -0.000976562, 0, 0.000976562, 0.126953, 0.300781, -9.70605, 1.25.2022 18:37:37.107
760, 1.80333, 359.55, 195.259, 0, 0, 0, 0.0390625, 0.308594, -9.71875, 1.25.2022 18:37:37.115
761, 1.80333, 359.55, 195.259, -0.000976562, 0.000976562, 0, 0.0820312, 0.305664, -9.68359, 1.25.2022 18:37:37.123
762, 1.80333, 359.55, 195.259, -0.000976562, 0, 0, 0.117188, 0.268555, -9.73535, 1.25.2022 18:37:37.131
763, 1.80333, 359.55, 195.259, -0.000976562, 0, 0.000976562, 0.0410156, 0.321289, -9.7373, 1.25.2022 18:37:37.139
764, 1.80333, 359.55, 195.259, 0, 0, 0.000976562, 0.0820312, 0.311523, -9.72168, 1.25.2022 18:37:37.147
765, 1.80333, 359.55, 195.259, -0.000976562, 0, 0, 0.0908203, 0.308594, -9.72168, 1.25.2022 18:37:37.155
766, 1.80333, 359.55, 195.259, -0.000976562, 0, 0, 0.0253906, 0.330078, -9.69141, 1.25.2022 18:37:37.163
767, 1.80333, 359.55, 195.259, -0.000976562, 0, 0, 0.12207, 0.296875, -9.71289, 1.25.2022 18:37:37.171
768, 1.80333, 359.55, 195.259, 0, 0, -0.000976562, 0.0458984, 0.313477, -9.71875, 1.25.2022 18:37:37.179
769, 1.80333, 359.55, 195.259, -0.00195312, 0, 0, 0.0800781, 0.317383, -9.67676, 1.25.2022 18:37:37.187
770, 1.80333, 359.55, 195.259, -0.000976562, 0, 0, 0.110352, 0.277344, -9.70215, 1.25.2022 18:37:37.195
771, 1.80333, 359.55, 195.259, -0.000976562, 0, 0, 0.0292969, 0.321289, -9.73242, 1.25.2022 18:37:37.203
772, 1.81026, 359.551, 195.259, -0.000976562, 0, 0, 0.0742188, 0.288086, -9.74121, 1.25.2022 18:37:37.211
773, 1.81026, 359.551, 195.259, -0.000976562, -0.00195312, 0, 0.0888672, 0.301758, -9.72656, 1.25.2022 18:37:37.219
774, 1.81026, 359.551, 195.259, -0.000976562, 0, 0, 0.0585938, 0.310547, -9.7002, 1.25.2022 18:37:37.227
775, 1.81026, 359.551, 195.259, 0, 0.000976562, 0, 0.115234, 0.260742, -9.70703, 1.25.2022 18:37:37.235
776, 1.80333, 359.55, 195.259, 0, 0, 0, 0.0625, 0.313477, -9.72363, 1.25.2022 18:37:37.243
777, 1.80333, 359.55, 195.259, -0.000976562, -0.000976562, -0.000976562, 0.0771484, 0.330078, -9.71875, 1.25.2022 18:37:37.251
778, 1.80333, 359.55, 195.259, -0.000976562, -0.000976562, -0.000976562, 0.0986328, 0.3125, -9.69824, 1.25.2022 18:37:37.259
779, 1.80333, 359.55, 195.259, 0, -0.000976562, -0.000976562, 0.0126953, 0.321289, -9.73438, 1.25.2022 18:37:37.267
780, 1.80333, 359.55, 195.259, -0.000976562, -0.000976562, -0.000976562, 0.105469, 0.317383, -9.75293, 1.25.2022 18:37:37.275
781, 1.80333, 359.55, 195.259, -0.000976562, -0.00195312, -0.000976562, 0.0722656, 0.330078, -9.70703, 1.25.2022 18:37:37.283
782, 1.80333, 359.55, 195.259, -0.000976562, -0.00195312, -0.000976562, 0.0488281, 0.313477, -9.69727, 1.25.2022 18:37:37.291
783, 1.81026, 359.551, 195.259, -0.000976562, -0.000976562, -0.000976562, 0.107422, 0.306641, -9.73145, 1.25.2022 18:37:37.299
784, 1.81026, 359.551, 195.259, -0.000976562, -0.000976562, -0.000976562, 0.0625, 0.333008, -9.73047, 1.25.2022 18:37:37.307
785, 1.81026, 359.551, 195.259, -0.000976562, -0.000976562, 0, 0.0458984, 0.310547, -9.69531, 1.25.2022 18:37:37.315
786, 1.81026, 359.551, 195.259, 0, -0.000976562, 0, 0.108398, 0.298828, -9.70605, 1.25.2022 18:37:37.323
787, 1.81026, 359.551, 195.259, -0.000976562, 0, -0.000976562, 0.0244141, 0.301758, -9.70703, 1.25.2022 18:37:37.331
788, 1.81026, 359.551, 195.259, -0.000976562, -0.000976562, 0, 0.0869141, 0.317383, -9.69336, 1.25.2022 18:37:37.339
789, 1.81026, 359.551, 195.259, 0, -0.000976562, 0, 0.0742188, 0.301758, -9.72363, 1.25.2022 18:37:37.347
790, 1.81026, 359.551, 195.259, 0, -0.000976562, -0.000976562, 0.046875, 0.34375, -9.68262, 1.25.2022 18:37:37.355
791, 1.81026, 359.551, 195.259, 0, 0, 0.000976562, 0.123047, 0.291016, -9.6875, 1.25.2022 18:37:37.363
792, 1.81026, 359.551, 195.259, 0, -0.000976562, -0.000976562, 0.0673828, 0.299805, -9.73535, 1.25.2022 18:37:37.371
793, 1.81026, 359.551, 195.259, -0.000976562, -0.00195312, -0.000976562, 0.112305, 0.331055, -9.75488, 1.25.2022 18:37:37.379
794, 1.80933, 359.558, 195.259, -0.00195312, -0.00195312, -0.00195312, 0.117188, 0.306641, -9.72949, 1.25.2022 18:37:37.387
795, 1.81626, 359.559, 195.259, -0.00195312, -0.000976562, -0.00195312, 0.0273438, 0.336914, -9.70117, 1.25.2022 18:37:37.395
796, 1.81626, 359.559, 195.259, -0.000976562, -0.000976562, -0.00195312, 0.0888672, 0.289062, -9.70801, 1.25.2022 18:37:37.403
797, 1.81626, 359.559, 195.259, -0.000976562, -0.00195312, -0.000976562, 0.0986328, 0.287109, -9.72949, 1.25.2022 18:37:37.411
798, 1.81626, 359.559, 195.259, -0.000976562, -0.00195312, 0, 0.0576172, 0.320312, -9.71582, 1.25.2022 18:37:37.419
799, 1.81626, 359.559, 195.259, -0.00195312, -0.000976562, -0.000976562, 0.105469, 0.310547, -9.70508, 1.25.2022 18:37:37.427
800, 1.81626, 359.559, 195.259, -0.000976562, -0.000976562, -0.00195312, 0.0390625, 0.293945, -9.70508, 1.25.2022 18:37:37.435
801, 1.81626, 359.559, 195.259, -0.000976562, -0.000976562, -0.000976562, 0.046875, 0.3125, -9.68359, 1.25.2022 18:37:37.443
802, 1.81626, 359.559, 195.259, -0.000976562, 0, -0.000976562, 0.100586, 0.285156, -9.71973, 1.25.2022 18:37:37.451
803, 1.81626, 359.559, 195.259, -0.000976562, -0.000976562, -0.000976562, 0.00488281, 0.292969, -9.74902, 1.25.2022 18:37:37.459
804, 1.81626, 359.559, 195.259, 0, -0.000976562, -0.000976562, 0.125, 0.311523, -9.71973, 1.25.2022 18:37:37.467
805, 1.81626, 359.559, 195.259, -0.000976562, -0.000976562, 0, 0.105469, 0.316406, -9.72168, 1.25.2022 18:37:37.475
806, 1.81626, 359.559, 195.259, 0, -0.00195312, -0.000976562, 0.0390625, 0.317383, -9.69434, 1.25.2022 18:37:37.483
807, 1.81626, 359.559, 195.259, 0, -0.000976562, 0, 0.131836, 0.270508, -9.72559, 1.25.2022 18:37:37.489
808, 1.81626, 359.559, 195.259, -0.00195312, -0.000976562, -0.000976562, 0.0244141, 0.299805, -9.72559, 1.25.2022 18:37:37.497
809, 1.81626, 359.559, 195.259, -0.00195312, -0.000976562, -0.000976562, 0.0742188, 0.334961, -9.71875, 1.25.2022 18:37:37.507
810, 1.82318, 359.56, 195.259, -0.00195312, 0, -0.000976562, 0.105469, 0.303711, -9.71484, 1.25.2022 18:37:37.513
811, 1.82318, 359.56, 195.259, -0.000976562, 0, -0.000976562, 0.0136719, 0.350586, -9.68359, 1.25.2022 18:37:37.521
812, 1.82318, 359.56, 195.259, -0.000976562, -0.000976562, 0, 0.09375, 0.285156, -9.71582, 1.25.2022 18:37:37.529
813, 1.82318, 359.56, 195.259, -0.000976562, 0, -0.000976562, 0.09375, 0.294922, -9.72949, 1.25.2022 18:37:37.537
814, 1.82318, 359.56, 195.259, -0.000976562, 0, -0.000976562, 0.0585938, 0.338867, -9.6709, 1.25.2022 18:37:37.545
815, 1.82318, 359.56, 195.259, -0.000976562, 0, -0.000976562, 0.128906, 0.299805, -9.74902, 1.25.2022 18:37:37.553
816, 1.82318, 359.56, 195.259, -0.000976562, 0, -0.000976562, 0.0625, 0.301758, -9.72363, 1.25.2022 18:37:37.561
817, 1.82318, 359.56, 195.259, -0.000976562, 0, -0.000976562, 0.0976562, 0.306641, -9.74316, 1.25.2022 18:37:37.569
818, 1.82318, 359.56, 195.259, -0.000976562, 0, -0.000976562, 0.117188, 0.297852, -9.75098, 1.25.2022 18:37:37.577
819, 1.82318, 359.56, 195.259, -0.000976562, 0, -0.000976562, 0.0458984, 0.306641, -9.71387, 1.25.2022 18:37:37.585
820, 1.81626, 359.559, 195.259, -0.000976562, 0, -0.000976562, 0.118164, 0.295898, -9.69922, 1.25.2022 18:37:37.593
821, 1.81718, 359.552, 195.259, -0.000976562, 0, -0.000976562, 0.0820312, 0.306641, -9.71484, 1.25.2022 18:37:37.601
822, 1.81718, 359.552, 195.259, -0.000976562, 0, -0.000976562, 0.0361328, 0.320312, -9.70898, 1.25.2022 18:37:37.609
823, 1.81718, 359.552, 195.259, -0.000976562, 0, -0.000976562, 0.109375, 0.266602, -9.75195, 1.25.2022 18:37:37.617
824, 1.81718, 359.552, 195.259, -0.000976562, 0, -0.000976562, 0.0273438, 0.293945, -9.70215, 1.25.2022 18:37:37.625
825, 1.81718, 359.552, 195.259, -0.000976562, 0, -0.000976562, 0.0625, 0.313477, -9.70215, 1.25.2022 18:37:37.633
826, 1.81718, 359.552, 195.259, -0.000976562, 0, -0.000976562, 0.108398, 0.295898, -9.69922, 1.25.2022 18:37:37.641
827, 1.81718, 359.552, 195.259, -0.000976562, 0.000976562, -0.000976562, 0.0292969, 0.326172, -9.73633, 1.25.2022 18:37:37.649
828, 1.81718, 359.552, 195.259, 0, 0.000976562, -0.000976562, 0.106445, 0.299805, -9.66309, 1.25.2022 18:37:37.657
829, 1.81718, 359.552, 195.259, -0.000976562, -0.000976562, -0.000976562, 0.0869141, 0.291992, -9.71289, 1.25.2022 18:37:37.665
830, 1.81718, 359.552, 195.259, 0, -0.000976562, -0.000976562, 0.0673828, 0.31543, -9.71387, 1.25.2022 18:37:37.673
831, 1.81718, 359.552, 195.259, -0.000976562, 0, -0.000976562, 0.126953, 0.287109, -9.72559, 1.25.2022 18:37:37.681
832, 1.81718, 359.552, 195.259, -0.000976562, -0.000976562, -0.000976562, 0.0439453, 0.318359, -9.72559, 1.25.2022 18:37:37.689
833, 1.81026, 359.551, 195.259, -0.000976562, 0, -0.00195312, 0.0625, 0.328125, -9.73926, 1.25.2022 18:37:37.697
834, 1.81026, 359.551, 195.259, -0.000976562, 0, -0.000976562, 0.0976562, 0.286133, -9.75586, 1.25.2022 18:37:37.705
835, 1.81026, 359.551, 195.259, -0.000976562, 0, -0.000976562, 0.0263672, 0.314453, -9.73242, 1.25.2022 18:37:37.713
836, 1.81026, 359.551, 195.259, -0.000976562, 0, -0.00195312, 0.112305, 0.313477, -9.73145, 1.25.2022 18:37:37.721
837, 1.81026, 359.551, 195.259, -0.000976562, -0.000976562, -0.000976562, 0.0820312, 0.290039, -9.71973, 1.25.2022 18:37:37.729
838, 1.81026, 359.551, 195.259, 0, 0, 0, 0.0839844, 0.342773, -9.72559, 1.25.2022 18:37:37.737
839, 1.81026, 359.551, 195.259, -0.000976562, 0, 0, 0.115234, 0.313477, -9.71484, 1.25.2022 18:37:37.745
840, 1.81026, 359.551, 195.259, -0.00195312, 0, 0, 0.0537109, 0.303711, -9.69531, 1.25.2022 18:37:37.753
841, 1.81118, 359.544, 195.259, -0.00195312, 0.000976562, -0.000976562, 0.09375, 0.320312, -9.71875, 1.25.2022 18:37:37.761
842, 1.81118, 359.544, 195.259, 0, 0.000976562, -0.000976562, 0.107422, 0.319336, -9.75488, 1.25.2022 18:37:37.769
843, 1.81118, 359.544, 195.259, -0.000976562, 0, -0.000976562, 0.0341797, 0.28125, -9.68359, 1.25.2022 18:37:37.777
844, 1.81118, 359.544, 195.259, -0.000976562, 0, -0.000976562, 0.110352, 0.290039, -9.73242, 1.25.2022 18:37:37.785
845, 1.81118, 359.544, 195.259, -0.000976562, 0, -0.000976562, 0.0820312, 0.300781, -9.70312, 1.25.2022 18:37:37.793
846, 1.81118, 359.544, 195.259, -0.000976562, 0, -0.000976562, 0.0361328, 0.339844, -9.72754, 1.25.2022 18:37:37.801
847, 1.81118, 359.544, 195.259, -0.00195312, -0.00195312, -0.000976562, 0.158203, 0.287109, -9.70898, 1.25.2022 18:37:37.809
848, 1.81118, 359.544, 195.259, -0.000976562, 0, -0.00195312, 0.0537109, 0.333984, -9.66406, 1.25.2022 18:37:37.817
849, 1.81118, 359.544, 195.259, -0.000976562, 0, -0.000976562, 0.0917969, 0.297852, -9.67285, 1.25.2022 18:37:37.825
850, 1.81118, 359.544, 195.259, 0.000976562, 0, 0.000976562, 0.112305, 0.285156, -9.71582, 1.25.2022 18:37:37.833
851, 1.81118, 359.544, 195.259, 0.000976562, 0, -0.000976562, 0.0341797, 0.294922, -9.71875, 1.25.2022 18:37:37.841
852, 1.81211, 359.537, 195.26, 0.000976562, 0, -0.000976562, 0.111328, 0.304688, -9.66504, 1.25.2022 18:37:37.849
853, 1.81211, 359.537, 195.26, -0.000976562, 0, -0.00195312, 0.0605469, 0.308594, -9.70215, 1.25.2022 18:37:37.857
854, 1.81211, 359.537, 195.26, -0.000976562, 0, -0.00195312, 0.0654297, 0.325195, -9.71387, 1.25.2022 18:37:37.865
855, 1.81211, 359.537, 195.26, 0, 0.000976562, -0.000976562, 0.108398, 0.25293, -9.68848, 1.25.2022 18:37:37.873
856, 1.81211, 359.537, 195.26, -0.000976562, 0, -0.00195312, 0.0605469, 0.333008, -9.71777, 1.25.2022 18:37:37.881
857, 1.80518, 359.536, 195.26, 0, 0.000976562, -0.000976562, 0.0869141, 0.318359, -9.70996, 1.25.2022 18:37:37.889
858, 1.80518, 359.536, 195.26, -0.000976562, 0, -0.000976562, 0.102539, 0.316406, -9.7334, 1.25.2022 18:37:37.897
859, 1.80518, 359.536, 195.26, -0.000976562, 0, -0.00195312, 0.0146484, 0.331055, -9.72266, 1.25.2022 18:37:37.905
860, 1.80518, 359.536, 195.26, -0.000976562, 0, -0.000976562, 0.131836, 0.30957, -9.74316, 1.25.2022 18:37:37.913
861, 1.80611, 359.529, 195.26, 0, 0, 0.000976562, 0.0869141, 0.303711, -9.70508, 1.25.2022 18:37:37.921
862, 1.80611, 359.529, 195.26, 0, 0.000976562, -0.000976562, 0.0576172, 0.331055, -9.72559, 1.25.2022 18:37:37.929
863, 1.80611, 359.529, 195.26, 0.000976562, 0, -0.000976562, 0.143555, 0.296875, -9.73926, 1.25.2022 18:37:37.937
864, 1.80611, 359.529, 195.26, 0.000976562, 0, -0.00195312, 0.0244141, 0.326172, -9.73242, 1.25.2022 18:37:37.945
865, 1.80611, 359.529, 195.26, -0.000976562, 0, -0.00195312, 0.0693359, 0.314453, -9.73047, 1.25.2022 18:37:37.953
866, 1.80611, 359.529, 195.26, -0.000976562, 0, -0.000976562, 0.100586, 0.298828, -9.71777, 1.25.2022 18:37:37.961
867, 1.80611, 359.529, 195.26, -0.00195312, -0.00195312, -0.000976562, 0.0556641, 0.310547, -9.70215, 1.25.2022 18:37:37.969
868, 1.81304, 359.53, 195.26, -0.000976562, -0.00195312, -0.000976562, 0.124023, 0.299805, -9.72949, 1.25.2022 18:37:37.977
869, 1.81304, 359.53, 195.26, -0.000976562, 0, -0.000976562, 0.0712891, 0.30957, -9.75195, 1.25.2022 18:37:37.985
870, 1.81304, 359.53, 195.26, -0.000976562, 0, -0.000976562, 0.0556641, 0.328125, -9.7207, 1.25.2022 18:37:37.993
871, 1.81304, 359.53, 195.26, -0.00195312, 0, -0.000976562, 0.105469, 0.303711, -9.69629, 1.25.2022 18:37:38.001
872, 1.81304, 359.53, 195.26, -0.000976562, 0, -0.00195312, 0.0556641, 0.325195, -9.7041, 1.25.2022 18:37:38.009
873, 1.81304, 359.53, 195.26, -0.000976562, -0.00195312, -0.000976562, 0.0908203, 0.316406, -9.72168, 1.25.2022 18:37:38.017
874, 1.81302, 359.53, 195.267, -0.000976562, 0, -0.000976562, 0.0839844, 0.271484, -9.73438, 1.25.2022 18:37:38.025
875, 1.81302, 359.53, 195.267, -0.000976562, -0.000976562, 0, 0.0361328, 0.342773, -9.73633, 1.25.2022 18:37:38.033
876, 1.81302, 359.53, 195.267, -0.00195312, 0, -0.000976562, 0.115234, 0.305664, -9.69629, 1.25.2022 18:37:38.041
877, 1.81302, 359.53, 195.267, -0.000976562, -0.000976562, 0, 0.0673828, 0.305664, -9.69824, 1.25.2022 18:37:38.049
878, 1.81302, 359.53, 195.267, -0.000976562, -0.000976562, 0, 0.0654297, 0.317383, -9.68359, 1.25.2022 18:37:38.057
879, 1.81302, 359.53, 195.267, -0.000976562, -0.000976562, 0, 0.138672, 0.285156, -9.72754, 1.25.2022 18:37:38.065
880, 1.81302, 359.53, 195.267, -0.000976562, -0.000976562, 0.000976562, 0.0390625, 0.306641, -9.71582, 1.25.2022 18:37:38.073
881, 1.81997, 359.531, 195.26, -0.000976562, -0.000976562, 0, 0.0947266, 0.319336, -9.66504, 1.25.2022 18:37:38.081
882, 1.81997, 359.531, 195.26, -0.000976562, -0.000976562, 0, 0.0908203, 0.285156, -9.71777, 1.25.2022 18:37:38.089
883, 1.81997, 359.531, 195.26, -0.000976562, -0.000976562, 0, 0.0507812, 0.321289, -9.7373, 1.25.2022 18:37:38.097
884, 1.81997, 359.531, 195.26, 0.000976562, -0.00195312, 0.000976562, 0.115234, 0.31543, -9.71484, 1.25.2022 18:37:38.105
885, 1.81997, 359.531, 195.26, -0.000976562, 0.000976562, 0, 0.0791016, 0.290039, -9.73633, 1.25.2022 18:37:38.113
886, 1.82089, 359.524, 195.26, -0.000976562, 0.000976562, 0.000976562, 0.0605469, 0.303711, -9.69824, 1.25.2022 18:37:38.121
887, 1.82089, 359.524, 195.26, 0.000976562, -0.000976562, 0.000976562, 0.117188, 0.283203, -9.74902, 1.25.2022 18:37:38.129
888, 1.82089, 359.524, 195.26, -0.000976562, -0.000976562, 0, 0.0419922, 0.325195, -9.69727, 1.25.2022 18:37:38.137
889, 1.82089, 359.524, 195.26, 0.000976562, -0.000976562, 0.000976562, 0.0908203, 0.287109, -9.71777, 1.25.2022 18:37:38.145
890, 1.81397, 359.523, 195.26, -0.000976562, -0.000976562, 0.000976562, 0.0878906, 0.297852, -9.75977, 1.25.2022 18:37:38.153
891, 1.81397, 359.523, 195.26, -0.000976562, -0.000976562, 0, 0.0146484, 0.326172, -9.72754, 1.25.2022 18:37:38.161
892, 1.81397, 359.523, 195.26, -0.000976562, -0.000976562, 0, 0.118164, 0.293945, -9.69434, 1.25.2022 18:37:38.169
893, 1.81397, 359.523, 195.26, -0.000976562, -0.000976562, 0, 0.0410156, 0.304688, -9.73242, 1.25.2022 18:37:38.177
894, 1.81397, 359.523, 195.26, -0.000976562, -0.000976562, 0, 0.0576172, 0.311523, -9.7373, 1.25.2022 18:37:38.185
895, 1.81397, 359.523, 195.26, 0.000976562, -0.000976562, 0, 0.125, 0.275391, -9.7207, 1.25.2022 18:37:38.193
896, 1.81304, 359.53, 195.26, -0.000976562, -0.000976562, 0, 0.0126953, 0.308594, -9.69922, 1.25.2022 18:37:38.201
897, 1.81304, 359.53, 195.26, -0.000976562, -0.000976562, 0, 0.0839844, 0.313477, -9.70215, 1.25.2022 18:37:38.209
898, 1.81304, 359.53, 195.26, -0.000976562, -0.000976562, 0, 0.101562, 0.305664, -9.69629, 1.25.2022 18:37:38.217
899, 1.81304, 359.53, 195.26, 0.000976562, -0.00195312, 0.000976562, 0.0341797, 0.348633, -9.69336, 1.25.2022 18:37:38.225
900, 1.81304, 359.53, 195.26, 0.000976562, -0.000976562, 0, 0.143555, 0.304688, -9.72949, 1.25.2022 18:37:38.233
901, 1.81304, 359.53, 195.26, -0.000976562, -0.000976562, 0, 0.0527344, 0.301758, -9.72363, 1.25.2022 18:37:38.241
902, 1.81304, 359.53, 195.26, -0.000976562, -0.000976562, 0, 0.0234375, 0.304688, -9.65234, 1.25.2022 18:37:38.249
903, 1.81304, 359.53, 195.26, -0.000976562, 0.000976562, 0, 0.128906, 0.294922, -9.72949, 1.25.2022 18:37:38.257
904, 1.81304, 359.53, 195.26, -0.000976562, 0.000976562, 0, 0.0273438, 0.325195, -9.71777, 1.25.2022 18:37:38.265
905, 1.81304, 359.53, 195.26, 0, -0.00195312, -0.000976562, 0.0976562, 0.299805, -9.73828, 1.25.2022 18:37:38.273
906, 1.81211, 359.537, 195.26, -0.000976562, -0.000976562, -0.00195312, 0.117188, 0.301758, -9.71484, 1.25.2022 18:37:38.281
907, 1.81211, 359.537, 195.26, -0.000976562, -0.000976562, -0.000976562, 0.0126953, 0.325195, -9.69434, 1.25.2022 18:37:38.289
908, 1.81211, 359.537, 195.26, -0.000976562, -0.000976562, -0.000976562, 0.12207, 0.279297, -9.69922, 1.25.2022 18:37:38.297
909, 1.81211, 359.537, 195.26, -0.000976562, -0.000976562, -0.000976562, 0.0820312, 0.298828, -9.70801, 1.25.2022 18:37:38.305
910, 1.81211, 359.537, 195.26, -0.000976562, -0.00195312, -0.000976562, 0.0791016, 0.329102, -9.74219, 1.25.2022 18:37:38.313
911, 1.81211, 359.537, 195.26, -0.000976562, -0.000976562, -0.000976562, 0.0957031, 0.318359, -9.72656, 1.25.2022 18:37:38.321
912, 1.81211, 359.537, 195.26, 0, -0.000976562, -0.00195312, 0.0595703, 0.326172, -9.7373, 1.25.2022 18:37:38.329
913, 1.81211, 359.537, 195.26, -0.000976562, -0.000976562, -0.000976562, 0.0908203, 0.321289, -9.72852, 1.25.2022 18:37:38.337
914, 1.81211, 359.537, 195.26, -0.000976562, -0.000976562, -0.000976562, 0.0898438, 0.310547, -9.68359, 1.25.2022 18:37:38.345
915, 1.81211, 359.537, 195.26, -0.000976562, -0.000976562, -0.00195312, 0.0371094, 0.323242, -9.70605, 1.25.2022 18:37:38.353
916, 1.81211, 359.537, 195.26, -0.000976562, -0.00195312, -0.00195312, 0.115234, 0.298828, -9.71484, 1.25.2022 18:37:38.361
917, 1.81211, 359.537, 195.26, -0.000976562, -0.000976562, -0.000976562, 0.0800781, 0.303711, -9.69336, 1.25.2022 18:37:38.369
918, 1.81118, 359.544, 195.259, -0.000976562, -0.000976562, -0.000976562, 0.0917969, 0.272461, -9.70117, 1.25.2022 18:37:38.377
919, 1.81211, 359.537, 195.26, -0.00195312, -0.000976562, -0.000976562, 0.131836, 0.293945, -9.7207, 1.25.2022 18:37:38.385
920, 1.81211, 359.537, 195.26, -0.000976562, 0.000976562, -0.000976562, 0.0195312, 0.314453, -9.7373, 1.25.2022 18:37:38.393
921, 1.81211, 359.537, 195.26, -0.000976562, -0.000976562, 0, 0.0820312, 0.301758, -9.71484, 1.25.2022 18:37:38.401
922, 1.81211, 359.537, 195.26, -0.00195312, -0.000976562, 0, 0.105469, 0.323242, -9.73145, 1.25.2022 18:37:38.409
923, 1.81211, 359.537, 195.26, -0.000976562, -0.000976562, -0.000976562, 0.0478516, 0.318359, -9.7207, 1.25.2022 18:37:38.417
924, 1.81211, 359.537, 195.26, 0, -0.00195312, -0.000976562, 0.128906, 0.290039, -9.72754, 1.25.2022 18:37:38.425
925, 1.81211, 359.537, 195.26, -0.000976562, -0.00195312, -0.000976562, 0.0595703, 0.283203, -9.73633, 1.25.2022 18:37:38.433
926, 1.81211, 359.537, 195.26, -0.000976562, -0.00195312, -0.000976562, 0.0390625, 0.3125, -9.69043, 1.25.2022 18:37:38.441
927, 1.81211, 359.537, 195.26, -0.000976562, -0.00195312, -0.000976562, 0.143555, 0.260742, -9.71191, 1.25.2022 18:37:38.449
928, 1.81211, 359.537, 195.26, -0.000976562, -0.00195312, -0.000976562, 0.0429688, 0.30957, -9.73047, 1.25.2022 18:37:38.457
929, 1.81211, 359.537, 195.26, -0.000976562, -0.000976562, -0.000976562, 0.105469, 0.293945, -9.70312, 1.25.2022 18:37:38.463
930, 1.81211, 359.537, 195.26, -0.000976562, 0.000976562, -0.00195312, 0.105469, 0.296875, -9.70801, 1.25.2022 18:37:38.471
931, 1.81211, 359.537, 195.26, -0.00195312, -0.000976562, -0.000976562, 0.0332031, 0.314453, -9.75586, 1.25.2022 18:37:38.479
932, 1.81211, 359.537, 195.26, 0, -0.00195312, -0.000976562, 0.115234, 0.299805, -9.73438, 1.25.2022 18:37:38.487
933, 1.81211, 359.537, 195.26, 0, -0.000976562, -0.00195312, 0.0703125, 0.317383, -9.69531, 1.25.2022 18:37:38.495
934, 1.81211, 359.537, 195.26, -0.000976562, -0.00195312, -0.000976562, 0.0634766, 0.313477, -9.69727, 1.25.2022 18:37:38.503
935, 1.80518, 359.536, 195.26, -0.000976562, -0.000976562, 0, 0.115234, 0.301758, -9.71289, 1.25.2022 18:37:38.511
936, 1.80518, 359.536, 195.26, -0.000976562, -0.000976562, -0.000976562, 0.0126953, 0.330078, -9.71777, 1.25.2022 18:37:38.519
937, 1.80518, 359.536, 195.26, 0.000976562, 0, 0.000976562, 0.0654297, 0.3125, -9.68359, 1.25.2022 18:37:38.527
938, 1.80518, 359.536, 195.26, -0.000976562, 0, 0, 0.0791016, 0.296875, -9.70801, 1.25.2022 18:37:38.535
939, 1.80518, 359.536, 195.26, -0.000976562, 0, -0.00195312, 0.0458984, 0.334961, -9.69922, 1.25.2022 18:37:38.543
940, 1.80518, 359.536, 195.26, -0.000976562, 0, -0.00195312, 0.125977, 0.288086, -9.6543, 1.25.2022 18:37:38.551
941, 1.80518, 359.536, 195.26, -0.00195312, 0.000976562, -0.000976562, 0.0654297, 0.291992, -9.7002, 1.25.2022 18:37:38.559
942, 1.80518, 359.536, 195.26, -0.000976562, 0, 0, 0.0800781, 0.347656, -9.66113, 1.25.2022 18:37:38.567
943, 1.80518, 359.536, 195.26, -0.000976562, 0, 0, 0.0888672, 0.287109, -9.71289, 1.25.2022 18:37:38.575
944, 1.80518, 359.536, 195.26, -0.00195312, 0, -0.00195312, 0.03125, 0.308594, -9.71387, 1.25.2022 18:37:38.583
945, 1.80518, 359.536, 195.26, -0.000976562, 0, 0, 0.0849609, 0.292969, -9.68164, 1.25.2022 18:37:38.591
946, 1.80518, 359.536, 195.26, 0.000976562, 0, 0.000976562, 0.100586, 0.320312, -9.70996, 1.25.2022 18:37:38.599
947, 1.80518, 359.536, 195.26, -0.000976562, 0, 0, 0.0341797, 0.31543, -9.69043, 1.25.2022 18:37:38.607
948, 1.80518, 359.536, 195.26, -0.000976562, 0.000976562, 0, 0.113281, 0.291016, -9.68945, 1.25.2022 18:37:38.615
949, 1.80518, 359.536, 195.26, -0.000976562, 0, 0, 0.0556641, 0.291016, -9.69336, 1.25.2022 18:37:38.623
950, 1.80518, 359.536, 195.26, 0.000976562, 0.000976562, 0, 0.0458984, 0.321289, -9.7207, 1.25.2022 18:37:38.631
951, 1.80518, 359.536, 195.26, -0.000976562, 0, 0, 0.103516, 0.308594, -9.71973, 1.25.2022 18:37:38.639
952, 1.80518, 359.536, 195.26, 0, 0, -0.00195312, 0.0263672, 0.323242, -9.72949, 1.25.2022 18:37:38.647
953, 1.80518, 359.536, 195.26, 0.000976562, 0, 0, 0.0820312, 0.308594, -9.72168, 1.25.2022 18:37:38.655
954, 1.80518, 359.536, 195.26, -0.000976562, 0.000976562, 0, 0.0859375, 0.296875, -9.72656, 1.25.2022 18:37:38.663
955, 1.80518, 359.536, 195.26, -0.000976562, 0.000976562, 0, 0.0195312, 0.333984, -9.75098, 1.25.2022 18:37:38.671
956, 1.80518, 359.536, 195.26, 0.000976562, 0, 0, 0.108398, 0.308594, -9.70801, 1.25.2022 18:37:38.679
957, 1.80518, 359.536, 195.26, 0.000976562, 0, 0, 0.0585938, 0.305664, -9.67676, 1.25.2022 18:37:38.687
958, 1.80425, 359.543, 195.259, -0.000976562, 0, 0, 0.0556641, 0.327148, -9.69043, 1.25.2022 18:37:38.695
959, 1.80425, 359.543, 195.259, -0.000976562, 0, 0, 0.108398, 0.300781, -9.70312, 1.25.2022 18:37:38.703
960, 1.80425, 359.543, 195.259, -0.000976562, 0.000976562, 0, 0.0390625, 0.31543, -9.70898, 1.25.2022 18:37:38.711
961, 1.80425, 359.543, 195.259, -0.000976562, 0, 0.000976562, 0.0625, 0.306641, -9.72168, 1.25.2022 18:37:38.719
962, 1.81118, 359.544, 195.259, -0.000976562, 0, 0, 0.0908203, 0.302734, -9.76172, 1.25.2022 18:37:38.727
963, 1.81118, 359.544, 195.259, 0.000976562, 0, 0, 0.0341797, 0.316406, -9.72266, 1.25.2022 18:37:38.735
964, 1.81118, 359.544, 195.259, -0.000976562, -0.000976562, 0, 0.112305, 0.301758, -9.71777, 1.25.2022 18:37:38.743
965, 1.81026, 359.551, 195.259, -0.000976562, 0, 0, 0.0742188, 0.296875, -9.7168, 1.25.2022 18:37:38.751
966, 1.81026, 359.551, 195.259, -0.000976562, 0.000976562, -0.000976562, 0.0722656, 0.303711, -9.7002, 1.25.2022 18:37:38.759
967, 1.81026, 359.551, 195.259, -0.000976562, 0.000976562, 0, 0.12207, 0.306641, -9.71777, 1.25.2022 18:37:38.767
968, 1.81026, 359.551, 195.259, -0.000976562, 0.000976562, 0, 0.0224609, 0.351562, -9.71973, 1.25.2022 18:37:38.775
969, 1.81026, 359.551, 195.259, -0.000976562, -0.000976562, 0, 0.0673828, 0.318359, -9.70703, 1.25.2022 18:37:38.783
970, 1.81026, 359.551, 195.259, -0.000976562, -0.000976562, 0.000976562, 0.112305, 0.291992, -9.71582, 1.25.2022 18:37:38.791
971, 1.81026, 359.551, 195.259, -0.000976562, -0.000976562, 0, 0.0390625, 0.330078, -9.71094, 1.25.2022 18:37:38.799
972, 1.81026, 359.551, 195.259, -0.000976562, -0.00195312, 0, 0.146484, 0.311523, -9.71973, 1.25.2022 18:37:38.807
973, 1.81026, 359.551, 195.259, -0.000976562, -0.000976562, 0, 0.0957031, 0.285156, -9.73145, 1.25.2022 18:37:38.815
974, 1.81718, 359.552, 195.259, 0, -0.00195312, 0.000976562, 0.0771484, 0.334961, -9.7207, 1.25.2022 18:37:38.823
975, 1.81718, 359.552, 195.259, -0.000976562, -0.000976562, 0, 0.110352, 0.291992, -9.72266, 1.25.2022 18:37:38.831
976, 1.81626, 359.559, 195.259, 0, -0.00195312, 0, 0.0175781, 0.335938, -9.73438, 1.25.2022 18:37:38.839
977, 1.81626, 359.559, 195.259, -0.000976562, -0.000976562, 0, 0.117188, 0.339844, -9.7168, 1.25.2022 18:37:38.847
978, 1.81626, 359.559, 195.259, -0.00195312, -0.000976562, 0, 0.100586, 0.325195, -9.70996, 1.25.2022 18:37:38.855
979, 1.81718, 359.552, 195.259, -0.000976562, -0.000976562, 0.000976562, 0.0507812, 0.303711, -9.69727, 1.25.2022 18:37:38.863
980, 1.81718, 359.552, 195.259, -0.000976562, -0.000976562, 0, 0.124023, 0.291992, -9.72754, 1.25.2022 18:37:38.871
981, 1.81718, 359.552, 195.259, -0.000976562, -0.000976562, 0, 0.0537109, 0.341797, -9.68457, 1.25.2022 18:37:38.879
982, 1.82411, 359.553, 195.259, -0.000976562, -0.000976562, 0, 0.0722656, 0.313477, -9.71387, 1.25.2022 18:37:38.887
983, 1.82411, 359.553, 195.259, -0.000976562, -0.000976562, 0, 0.120117, 0.265625, -9.7207, 1.25.2022 18:37:38.895
984, 1.82411, 359.553, 195.259, -0.000976562, -0.000976562, 0, 0.0576172, 0.304688, -9.74707, 1.25.2022 18:37:38.903
985, 1.82411, 359.553, 195.259, -0.000976562, -0.000976562, 0, 0.101562, 0.314453, -9.68359, 1.25.2022 18:37:38.911
986, 1.82411, 359.553, 195.259, -0.000976562, -0.000976562, 0, 0.0976562, 0.296875, -9.73633, 1.25.2022 18:37:38.919
987, 1.82411, 359.553, 195.259, 0, -0.000976562, 0, 0.0488281, 0.295898, -9.7002, 1.25.2022 18:37:38.927
988, 1.82411, 359.553, 195.259, -0.000976562, -0.000976562, 0, 0.12207, 0.285156, -9.7373, 1.25.2022 18:37:38.935
989, 1.82504, 359.546, 195.26, -0.000976562, -0.000976562, -0.000976562, 0.0625, 0.316406, -9.72363, 1.25.2022 18:37:38.943
990, 1.82504, 359.546, 195.26, -0.000976562, -0.000976562, 0, 0.0625, 0.295898, -9.69824, 1.25.2022 18:37:38.951
991, 1.82504, 359.546, 195.26, -0.00195312, -0.000976562, 0, 0.120117, 0.274414, -9.70215, 1.25.2022 18:37:38.959
992, 1.82504, 359.546, 195.26, -0.000976562, -0.000976562, 0, 0.0341797, 0.328125, -9.7207, 1.25.2022 18:37:38.967
993, 1.82504, 359.546, 195.26, -0.000976562, -0.000976562, 0, 0.0859375, 0.324219, -9.74219, 1.25.2022 18:37:38.975
994, 1.82504, 359.546, 195.26, -0.000976562, -0.000976562, -0.000976562, 0.0791016, 0.30957, -9.73535, 1.25.2022 18:37:38.983
995, 1.82504, 359.546, 195.26, -0.00195312, -0.00195312, 0, 0.0263672, 0.316406, -9.74219, 1.25.2022 18:37:38.991
996, 1.82504, 359.546, 195.26, -0.00195312, -0.000976562, -0.000976562, 0.124023, 0.294922, -9.74902, 1.25.2022 18:37:38.999
997, 1.82504, 359.546, 195.26, -0.00195312, -0.000976562, -0.000976562, 0.0722656, 0.301758, -9.72363, 1.25.2022 18:37:39.007
998, 1.82504, 359.546, 195.26, -0.000976562, -0.000976562, 0, 0.0742188, 0.294922, -9.74805, 1.25.2022 18:37:39.015
999, 1.82597, 359.539, 195.26, 0, 0, 0, 0.120117, 0.301758, -9.72754, 1.25.2022 18:37:39.023
1000, 1.82597, 359.539, 195.26, -0.00195312, 0, -0.000976562, 0.0107422, 0.330078, -9.68945, 1.25.2022 18:37:39.031
1001, 1.82597, 359.539, 195.26, 0, 0, -0.000976562, 0.0917969, 0.310547, -9.7002, 1.25.2022 18:37:39.039
1002, 1.82597, 359.539, 195.26, 0.000976562, 0, 0, 0.0957031, 0.307617, -9.74805, 1.25.2022 18:37:39.047
1003, 1.82597, 359.539, 195.26, 0, 0, 0, 0.0341797, 0.344727, -9.70801, 1.25.2022 18:37:39.055
1004, 1.82597, 359.539, 195.26, 0, 0.000976562, 0, 0.120117, 0.313477, -9.72949, 1.25.2022 18:37:39.063
1005, 1.82597, 359.539, 195.26, 0, 0, 0.000976562, 0.0605469, 0.325195, -9.71094, 1.25.2022 18:37:39.071
1006, 1.82597, 359.539, 195.26, 0, 0, 0.000976562, 0.0869141, 0.297852, -9.68164, 1.25.2022 18:37:39.079
1007, 1.82597, 359.539, 195.26, 0, 0, 0, 0.112305, 0.301758, -9.72656, 1.25.2022 18:37:39.087
1008, 1.81904, 359.538, 195.26, 0.000976562, 0, -0.00195312, 0.0263672, 0.334961, -9.72266, 1.25.2022 18:37:39.095
1009, 1.81904, 359.538, 195.26, 0.000976562, 0, 0, 0.136719, 0.325195, -9.69336, 1.25.2022 18:37:39.103
1010, 1.81904, 359.538, 195.26, 0.000976562, 0, 0, 0.0810547, 0.285156, -9.72656, 1.25.2022 18:37:39.111
1011, 1.81904, 359.538, 195.26, 0, 0, 0, 0.0224609, 0.328125, -9.72266, 1.25.2022 18:37:39.119
1012, 1.81904, 359.538, 195.26, 0.000976562, 0.000976562, 0.000976562, 0.12207, 0.291992, -9.70605, 1.25.2022 18:37:39.127
1013, 1.81904, 359.538, 195.26, 0, 0, 0, 0.0341797, 0.321289, -9.73438, 1.25.2022 18:37:39.135
1014, 1.81904, 359.538, 195.26, 0, 0, -0.000976562, 0.0478516, 0.319336, -9.74414, 1.25.2022 18:37:39.143
1015, 1.81904, 359.538, 195.26, -0.00195312, 0, -0.000976562, 0.108398, 0.306641, -9.71973, 1.25.2022 18:37:39.151
1016, 1.82597, 359.539, 195.26, 0, 0, 0.000976562, 0.0224609, 0.347656, -9.71973, 1.25.2022 18:37:39.159
1017, 1.82597, 359.539, 195.26, 0, 0, 0.000976562, 0.115234, 0.320312, -9.71484, 1.25.2022 18:37:39.167
1018, 1.82597, 359.539, 195.26, 0.000976562, 0, 0, 0.0761719, 0.304688, -9.73828, 1.25.2022 18:37:39.175
1019, 1.82597, 359.539, 195.26, 0.000976562, 0, 0, 0.0458984, 0.289062, -9.70703, 1.25.2022 18:37:39.183
1020, 1.82597, 359.539, 195.26, 0, 0, 0, 0.12207, 0.298828, -9.71094, 1.25.2022 18:37:39.191
