Seq, Rot x, Rot y, Rot z, Vel x, Vel y, Vel z, Acc x, Acc y, Acc z, Time(m.d.y h:m:s.ms)
0, 2.17991, 359.574, 172.357, 0, 0.000976562, 0, 0.0556641, 0.375977, -9.72852, 1.25.2022 18:33:1.236
1, 2.17986, 359.574, 172.35, 0, 0, 0, 0.0537109, 0.387695, -9.70996, 1.25.2022 18:33:1.240
2, 2.17939, 359.567, 172.35, 0, 0, 0, 0.0917969, 0.366211, -9.71777, 1.25.2022 18:33:1.246
3, 2.17939, 359.567, 172.35, 0, -0.000976562, 0, 0.0400391, 0.367188, -9.66699, 1.25.2022 18:33:1.254
4, 2.17939, 359.567, 172.35, 0, 0, -0.000976562, 0.0986328, 0.385742, -9.71777, 1.25.2022 18:33:1.262
5, 2.17939, 359.567, 172.35, 0.000976562, -0.000976562, -0.000976562, 0.0917969, 0.358398, -9.70898, 1.25.2022 18:33:1.270
6, 2.17939, 359.567, 172.35, -0.000976562, 0, -0.000976562, 0.0556641, 0.363281, -9.68945, 1.25.2022 18:33:1.278
7, 2.17939, 359.567, 172.35, -0.000976562, -0.000976562, -0.000976562, 0.100586, 0.355469, -9.75391, 1.25.2022 18:33:1.286
8, 2.17939, 359.567, 172.35, 0, -0.000976562, 0, 0.0576172, 0.385742, -9.7168, 1.25.2022 18:33:1.294
9, 2.17939, 359.567, 172.35, 0, 0, -0.000976562, 0.0673828, 0.392578, -9.71875, 1.25.2022 18:33:1.302
10, 2.17939, 359.567, 172.35, 0, -0.000976562, -0.000976562, 0.102539, 0.371094, -9.73633, 1.25.2022 18:33:1.310
11, 2.17893, 359.56, 172.35, 0, -0.000976562, -0.000976562, -0.0166016, 0.390625, -9.74414, 1.25.2022 18:33:1.318
12, 2.17893, 359.56, 172.35, 0.000976562, -0.000976562, -0.00195312, 0.105469, 0.364258, -9.72754, 1.25.2022 18:33:1.326
13, 2.17898, 359.56, 172.357, 0, -0.000976562, -0.00195312, 0.0820312, 0.363281, -9.71094, 1.25.2022 18:33:1.334
14, 2.17944, 359.567, 172.357, 0, -0.000976562, -0.000976562, 0.0341797, 0.375, -9.69727, 1.25.2022 18:33:1.342
15, 2.17944, 359.567, 172.357, 0.000976562, -0.00195312, -0.000976562, 0.141602, 0.353516, -9.70508, 1.25.2022 18:33:1.350
16, 2.17944, 359.567, 172.357, 0.000976562, 0, -0.000976562, 0.0556641, 0.375, -9.69336, 1.25.2022 18:33:1.358
17, 2.17944, 359.567, 172.357, 0.000976562, -0.000976562, -0.00195312, 0.0771484, 0.392578, -9.71191, 1.25.2022 18:33:1.366
18, 2.17944, 359.567, 172.357, 0.000976562, -0.000976562, -0.00195312, 0.0556641, 0.358398, -9.68652, 1.25.2022 18:33:1.374
19, 2.17944, 359.567, 172.357, 0, -0.00195312, -0.000976562, 0.00976562, 0.364258, -9.72363, 1.25.2022 18:33:1.382
20, 2.17944, 359.567, 172.357, 0.000976562, -0.000976562, -0.000976562, 0.0888672, 0.37793, -9.72461, 1.25.2022 18:33:1.390
21, 2.17944, 359.567, 172.357, 0.000976562, -0.000976562, -0.000976562, 0.0537109, 0.368164, -9.70312, 1.25.2022 18:33:1.398
22, 2.17944, 359.567, 172.357, 0, -0.000976562, -0.000976562, 0.0634766, 0.382812, -9.7002, 1.25.2022 18:33:1.406
23, 2.17944, 359.567, 172.357, 0, -0.000976562, -0.000976562, 0.103516, 0.356445, -9.69922, 1.25.2022 18:33:1.414
24, 2.17944, 359.567, 172.357, 0, -0.000976562, 0, 0.0253906, 0.351562, -9.69629, 1.25.2022 18:33:1.422
25, 2.17944, 359.567, 172.357, 0, -0.000976562, 0, 0.0419922, 0.370117, -9.69336, 1.25.2022 18:33:1.430
26, 2.17991, 359.574, 172.357, 0, -0.000976562, -0.000976562, 0.0839844, 0.356445, -9.71582, 1.25.2022 18:33:1.438
27, 2.17991, 359.574, 172.357, 0, -0.000976562, -0.000976562, 0.0175781, 0.383789, -9.73535, 1.25.2022 18:33:1.446
28, 2.17991, 359.574, 172.357, 0, 0, -0.000976562, 0.120117, 0.368164, -9.71387, 1.25.2022 18:33:1.454
29, 2.17991, 359.574, 172.357, -0.000976562, 0, -0.000976562, 0.0742188, 0.364258, -9.73438, 1.25.2022 18:33:1.462
30, 2.17991, 359.574, 172.357, 0, -0.000976562, -0.00195312, 0.0556641, 0.366211, -9.72168, 1.25.2022 18:33:1.470
31, 2.17991, 359.574, 172.357, 0, -0.000976562, -0.000976562, 0.117188, 0.347656, -9.74023, 1.25.2022 18:33:1.478
32, 2.17991, 359.574, 172.357, 0, -0.000976562, -0.000976562, 0.03125, 0.362305, -9.72852, 1.25.2022 18:33:1.486
33, 2.18038, 359.581, 172.356, 0, -0.000976562, -0.000976562, 0.0488281, 0.361328, -9.72168, 1.25.2022 18:33:1.494
34, 2.18038, 359.581, 172.356, 0, -0.00195312, -0.00195312, 0.0917969, 0.368164, -9.71582, 1.25.2022 18:33:1.502
35, 2.18038, 359.581, 172.356, 0, 0, 0, 0.0292969, 0.395508, -9.73242, 1.25.2022 18:33:1.510
36, 2.18038, 359.581, 172.356, -0.000976562, -0.000976562, 0, 0.110352, 0.369141, -9.74414, 1.25.2022 18:33:1.518
37, 2.18038, 359.581, 172.356, -0.000976562, -0.000976562, -0.000976562, 0.0791016, 0.388672, -9.73633, 1.25.2022 18:33:1.526
38, 2.18038, 359.581, 172.356, -0.000976562, -0.000976562, 0, 0.0263672, 0.375977, -9.73047, 1.25.2022 18:33:1.534
39, 2.18038, 359.581, 172.356, -0.000976562, -0.00195312, 0, 0.101562, 0.34668, -9.69043, 1.25.2022 18:33:1.542
40, 2.18038, 359.581, 172.356, -0.000976562, -0.000976562, 0, 0.0488281, 0.373047, -9.69824, 1.25.2022 18:33:1.550
41, 2.18084, 359.588, 172.356, -0.000976562, -0.000976562, 0, 0.0693359, 0.366211, -9.72949, 1.25.2022 18:33:1.558
42, 2.18084, 359.588, 172.356, -0.000976562, 0, 0, 0.102539, 0.355469, -9.74902, 1.25.2022 18:33:1.566
43, 2.18084, 359.588, 172.356, -0.00195312, -0.000976562, 0.000976562, 0.0273438, 0.361328, -9.70703, 1.25.2022 18:33:1.574
44, 2.18084, 359.588, 172.356, -0.000976562, -0.000976562, 0.000976562, 0.125, 0.336914, -9.71484, 1.25.2022 18:33:1.582
45, 2.18084, 359.588, 172.356, 0, 0, 0, 0.0927734, 0.352539, -9.74902, 1.25.2022 18:33:1.590
46, 2.18084, 359.588, 172.356, 0, -0.000976562, 0, 0.015625, 0.389648, -9.70898, 1.25.2022 18:33:1.598
47, 2.17387, 359.588, 172.356, 0, -0.000976562, 0, 0.125, 0.365234, -9.68555, 1.25.2022 18:33:1.606
48, 2.17387, 359.588, 172.356, -0.000976562, -0.00195312, -0.00195312, 0.0556641, 0.37793, -9.70996, 1.25.2022 18:33:1.614
49, 2.17387, 359.588, 172.356, -0.00195312, -0.000976562, 0, 0.0732422, 0.375, -9.69141, 1.25.2022 18:33:1.622
50, 2.1734, 359.581, 172.356, -0.000976562, -0.000976562, 0, 0.0966797, 0.368164, -9.70801, 1.25.2022 18:33:1.630
51, 2.1734, 359.581, 172.356, -0.000976562, -0.000976562, 0, 0.0292969, 0.373047, -9.71875, 1.25.2022 18:33:1.638
52, 2.1734, 359.581, 172.356, -0.000976562, -0.000976562, 0, 0.117188, 0.366211, -9.7373, 1.25.2022 18:33:1.646
53, 2.1734, 359.581, 172.356, -0.000976562, -0.000976562, 0.000976562, 0.0683594, 0.351562, -9.69434, 1.25.2022 18:33:1.654
54, 2.1734, 359.581, 172.356, -0.000976562, -0.000976562, 0, 0.0292969, 0.368164, -9.70703, 1.25.2022 18:33:1.662
55, 2.1734, 359.581, 172.356, -0.000976562, -0.000976562, -0.000976562, 0.115234, 0.333008, -9.7334, 1.25.2022 18:33:1.670
56, 2.1734, 359.581, 172.356, -0.00195312, -0.000976562, 0, 0.0146484, 0.366211, -9.7168, 1.25.2022 18:33:1.678
57, 2.1734, 359.581, 172.356, -0.000976562, 0, -0.000976562, 0.0507812, 0.390625, -9.73535, 1.25.2022 18:33:1.686
58, 2.1734, 359.581, 172.356, -0.00195312, -0.000976562, 0, 0.0751953, 0.34375, -9.69922, 1.25.2022 18:33:1.694
59, 2.1734, 359.581, 172.356, -0.000976562, -0.000976562, 0, 0.0195312, 0.375977, -9.70898, 1.25.2022 18:33:1.702
60, 2.1734, 359.581, 172.356, -0.00195312, 0, 0.000976562, 0.0947266, 0.335938, -9.66211, 1.25.2022 18:33:1.710
61, 2.1734, 359.581, 172.356, -0.00195312, -0.000976562, 0, 0.102539, 0.397461, -9.73828, 1.25.2022 18:33:1.718
62, 2.1734, 359.581, 172.356, -0.000976562, -0.00195312, 0.000976562, 0.0605469, 0.378906, -9.73145, 1.25.2022 18:33:1.726
63, 2.1734, 359.581, 172.356, 0, -0.000976562, 0, 0.103516, 0.34668, -9.69238, 1.25.2022 18:33:1.734
64, 2.1734, 359.581, 172.356, -0.000976562, -0.00195312, 0, 0.0273438, 0.380859, -9.7207, 1.25.2022 18:33:1.742
65, 2.1734, 359.581, 172.356, 0, -0.000976562, 0.000976562, 0.0917969, 0.368164, -9.71289, 1.25.2022 18:33:1.750
66, 2.1734, 359.581, 172.356, -0.000976562, -0.000976562, 0, 0.115234, 0.370117, -9.69922, 1.25.2022 18:33:1.758
67, 2.1734, 359.581, 172.356, 0, 0, -0.000976562, 0.00292969, 0.368164, -9.7041, 1.25.2022 18:33:1.766
68, 2.1734, 359.581, 172.356, -0.00195312, 0, -0.000976562, 0.113281, 0.370117, -9.68066, 1.25.2022 18:33:1.774
69, 2.1734, 359.581, 172.356, 0.000976562, 0, -0.00195312, 0.0722656, 0.361328, -9.70605, 1.25.2022 18:33:1.782
70, 2.1734, 359.581, 172.356, 0.000976562, -0.00195312, -0.00195312, 0.0585938, 0.365234, -9.69629, 1.25.2022 18:33:1.790
71, 2.1734, 359.581, 172.356, 0, 0, -0.000976562, 0.110352, 0.368164, -9.71777, 1.25.2022 18:33:1.798
72, 2.1734, 359.581, 172.356, 0, 0, -0.000976562, 0.0224609, 0.358398, -9.70703, 1.25.2022 18:33:1.806
73, 2.1734, 359.581, 172.356, 0, 0, -0.000976562, 0.0703125, 0.375, -9.68652, 1.25.2022 18:33:1.814
74, 2.1734, 359.581, 172.356, 0, -0.00195312, -0.000976562, 0.120117, 0.34375, -9.69336, 1.25.2022 18:33:1.822
75, 2.1734, 359.581, 172.356, 0, 0.000976562, -0.000976562, 0.0410156, 0.357422, -9.7334, 1.25.2022 18:33:1.830
76, 2.16643, 359.582, 172.356, 0, 0, -0.000976562, 0.128906, 0.380859, -9.74121, 1.25.2022 18:33:1.838
77, 2.16643, 359.582, 172.356, 0, 0, -0.000976562, 0.0654297, 0.365234, -9.69629, 1.25.2022 18:33:1.846
78, 2.16643, 359.582, 172.356, 0, 0, -0.000976562, 0.0507812, 0.369141, -9.72461, 1.25.2022 18:33:1.854
79, 2.16643, 359.582, 172.356, 0, 0, -0.000976562, 0.123047, 0.365234, -9.70215, 1.25.2022 18:33:1.862
80, 2.16597, 359.575, 172.357, 0, 0, -0.000976562, 0.0341797, 0.380859, -9.71387, 1.25.2022 18:33:1.870
81, 2.16597, 359.575, 172.357, 0, 0, -0.000976562, 0.0849609, 0.367188, -9.67969, 1.25.2022 18:33:1.878
82, 2.16597, 359.575, 172.357, -0.00195312, 0, -0.000976562, 0.0849609, 0.348633, -9.69434, 1.25.2022 18:33:1.886
83, 2.16597, 359.575, 172.357, -0.00195312, -0.000976562, 0.000976562, 0.0439453, 0.368164, -9.70996, 1.25.2022 18:33:1.894
84, 2.16597, 359.575, 172.357, 0, -0.000976562, 0.000976562, 0.117188, 0.366211, -9.72559, 1.25.2022 18:33:1.902
85, 2.16597, 359.575, 172.357, 0, 0, -0.000976562, 0.0751953, 0.348633, -9.70117, 1.25.2022 18:33:1.910
86, 2.16597, 359.575, 172.357, 0, 0, -0.000976562, 0.0390625, 0.375977, -9.73535, 1.25.2022 18:33:1.918
87, 2.1655, 359.568, 172.357, 0, 0.000976562, -0.000976562, 0.0742188, 0.361328, -9.72266, 1.25.2022 18:33:1.926
88, 2.1655, 359.568, 172.357, 0, 0, -0.000976562, 0.0273438, 0.384766, -9.7041, 1.25.2022 18:33:1.934
89, 2.1655, 359.568, 172.357, 0, 0, -0.000976562, 0.09375, 0.375, -9.70605, 1.25.2022 18:33:1.942
90, 2.1655, 359.568, 172.357, 0, 0, -0.000976562, 0.0839844, 0.344727, -9.71875, 1.25.2022 18:33:1.950
91, 2.1655, 359.568, 172.357, 0, 0, -0.000976562, 0.0175781, 0.375977, -9.7207, 1.25.2022 18:33:1.958
92, 2.1655, 359.568, 172.357, 0, 0.000976562, -0.000976562, 0.136719, 0.37793, -9.72266, 1.25.2022 18:33:1.966
93, 2.1655, 359.568, 172.357, 0, 0, -0.000976562, 0.0654297, 0.359375, -9.72266, 1.25.2022 18:33:1.974
94, 2.1655, 359.568, 172.357, 0, -0.000976562, 0.000976562, 0.0478516, 0.369141, -9.72852, 1.25.2022 18:33:1.982
95, 2.1655, 359.568, 172.357, 0, 0, -0.000976562, 0.134766, 0.384766, -9.71094, 1.25.2022 18:33:1.990
96, 2.1655, 359.568, 172.357, 0, 0, -0.000976562, 0.0292969, 0.378906, -9.74219, 1.25.2022 18:33:1.998
97, 2.1655, 359.568, 172.357, 0, 0, -0.000976562, 0.0576172, 0.354492, -9.73145, 1.25.2022 18:33:2.006
98, 2.1655, 359.568, 172.357, 0, 0, -0.000976562, 0.0839844, 0.345703, -9.7373, 1.25.2022 18:33:2.012
99, 2.1655, 359.568, 172.357, 0, -0.000976562, -0.000976562, 0.0292969, 0.363281, -9.69824, 1.25.2022 18:33:2.022
100, 2.1655, 359.568, 172.357, 0, -0.000976562, -0.000976562, 0.118164, 0.351562, -9.71191, 1.25.2022 18:33:2.028
101, 2.1655, 359.568, 172.357, -0.00195312, -0.000976562, -0.000976562, 0.0791016, 0.361328, -9.71582, 1.25.2022 18:33:2.036
102, 2.1655, 359.568, 172.357, 0, -0.000976562, -0.000976562, 0.0849609, 0.386719, -9.68848, 1.25.2022 18:33:2.044
103, 2.1655, 359.568, 172.357, 0, -0.000976562, 0.000976562, 0.134766, 0.363281, -9.69043, 1.25.2022 18:33:2.052
104, 2.1655, 359.568, 172.357, 0, -0.000976562, -0.000976562, 0.0224609, 0.381836, -9.67871, 1.25.2022 18:33:2.060
105, 2.1655, 359.568, 172.357, 0, -0.000976562, -0.000976562, 0.0947266, 0.370117, -9.6748, 1.25.2022 18:33:2.068
106, 2.1655, 359.568, 172.357, 0, -0.000976562, 0.000976562, 0.0771484, 0.389648, -9.70996, 1.25.2022 18:33:2.076
107, 2.17247, 359.567, 172.357, 0, 0.000976562, 0, 0.0283203, 0.37207, -9.75684, 1.25.2022 18:33:2.084
108, 2.17247, 359.567, 172.357, 0, -0.000976562, -0.000976562, 0.129883, 0.353516, -9.70508, 1.25.2022 18:33:2.092
109, 2.17201, 359.56, 172.357, -0.00195312, 0.000976562, 0, 0.0439453, 0.356445, -9.72461, 1.25.2022 18:33:2.100
110, 2.17201, 359.56, 172.357, -0.00195312, -0.000976562, -0.000976562, 0.0644531, 0.369141, -9.73145, 1.25.2022 18:33:2.108
111, 2.17201, 359.56, 172.357, -0.00195312, -0.000976562, 0.000976562, 0.0986328, 0.341797, -9.71191, 1.25.2022 18:33:2.116
112, 2.17201, 359.56, 172.357, -0.00195312, -0.000976562, -0.000976562, 0.0146484, 0.347656, -9.72656, 1.25.2022 18:33:2.124
113, 2.17201, 359.56, 172.357, -0.00195312, -0.000976562, -0.000976562, 0.0771484, 0.363281, -9.70117, 1.25.2022 18:33:2.132
114, 2.17201, 359.56, 172.357, 0, -0.000976562, -0.00195312, 0.0839844, 0.374023, -9.73633, 1.25.2022 18:33:2.140
115, 2.17201, 359.56, 172.357, 0.000976562, -0.000976562, -0.000976562, 0.0253906, 0.37793, -9.69531, 1.25.2022 18:33:2.148
116, 2.17201, 359.56, 172.357, 0.000976562, -0.000976562, -0.000976562, 0.15332, 0.361328, -9.72559, 1.25.2022 18:33:2.156
117, 2.17201, 359.56, 172.357, 0, -0.000976562, -0.000976562, 0.0537109, 0.358398, -9.70605, 1.25.2022 18:33:2.164
118, 2.17201, 359.56, 172.357, 0, -0.000976562, -0.000976562, 0.0517578, 0.373047, -9.68848, 1.25.2022 18:33:2.172
119, 2.17201, 359.56, 172.357, 0, -0.00195312, -0.000976562, 0.126953, 0.354492, -9.7168, 1.25.2022 18:33:2.180
120, 2.16503, 359.561, 172.357, 0, -0.00195312, -0.000976562, 0.0458984, 0.394531, -9.71582, 1.25.2022 18:33:2.188
121, 2.16503, 359.561, 172.357, 0, -0.000976562, -0.000976562, 0.0888672, 0.37793, -9.72168, 1.25.2022 18:33:2.196
122, 2.16503, 359.561, 172.357, 0, -0.000976562, -0.000976562, 0.0664062, 0.388672, -9.75684, 1.25.2022 18:33:2.204
123, 2.17201, 359.56, 172.357, -0.00195312, -0.000976562, -0.00195312, 0.0410156, 0.414062, -9.71289, 1.25.2022 18:33:2.212
124, 2.17201, 359.56, 172.357, 0, -0.00195312, -0.000976562, 0.129883, 0.368164, -9.69727, 1.25.2022 18:33:2.220
125, 2.17201, 359.56, 172.357, 0, -0.000976562, -0.000976562, 0.0839844, 0.371094, -9.71777, 1.25.2022 18:33:2.228
126, 2.17201, 359.56, 172.357, 0, -0.000976562, -0.000976562, 0.107422, 0.362305, -9.74414, 1.25.2022 18:33:2.236
127, 2.17201, 359.56, 172.357, 0, -0.000976562, -0.000976562, 0.110352, 0.357422, -9.74707, 1.25.2022 18:33:2.244
128, 2.17201, 359.56, 172.357, 0, -0.000976562, 0.000976562, 0.03125, 0.366211, -9.72656, 1.25.2022 18:33:2.252
129, 2.17201, 359.56, 172.357, 0.000976562, -0.000976562, -0.000976562, 0.0986328, 0.375977, -9.71289, 1.25.2022 18:33:2.260
130, 2.17201, 359.56, 172.357, 0, -0.000976562, -0.000976562, 0.0966797, 0.360352, -9.68457, 1.25.2022 18:33:2.268
131, 2.17851, 359.553, 172.357, 0, 0, -0.000976562, 0.0585938, 0.392578, -9.71191, 1.25.2022 18:33:2.276
132, 2.17851, 359.553, 172.357, 0, 0.000976562, -0.000976562, 0.128906, 0.362305, -9.7373, 1.25.2022 18:33:2.284
133, 2.17851, 359.553, 172.357, -0.000976562, 0.000976562, 0.000976562, 0.0654297, 0.375977, -9.71484, 1.25.2022 18:33:2.292
134, 2.17851, 359.553, 172.357, 0, 0.000976562, -0.000976562, 0.0527344, 0.359375, -9.74316, 1.25.2022 18:33:2.300
135, 2.17805, 359.546, 172.357, 0, 0, -0.000976562, 0.119141, 0.360352, -9.74902, 1.25.2022 18:33:2.308
136, 2.17805, 359.546, 172.357, 0, 0, 0.000976562, 0.0224609, 0.370117, -9.68359, 1.25.2022 18:33:2.316
137, 2.17799, 359.546, 172.35, 0, 0, 0.000976562, 0.0849609, 0.379883, -9.69141, 1.25.2022 18:33:2.324
138, 2.17799, 359.546, 172.35, 0, 0, -0.000976562, 0.100586, 0.378906, -9.74609, 1.25.2022 18:33:2.332
139, 2.17799, 359.546, 172.35, 0, 0, -0.000976562, 0.00585938, 0.382812, -9.69922, 1.25.2022 18:33:2.340
140, 2.17799, 359.546, 172.35, -0.000976562, 0, -0.000976562, 0.108398, 0.334961, -9.7168, 1.25.2022 18:33:2.348
141, 2.17799, 359.546, 172.35, 0, 0, -0.000976562, 0.0419922, 0.361328, -9.70312, 1.25.2022 18:33:2.356
142, 2.18496, 359.545, 172.35, 0, 0.000976562, -0.000976562, 0.03125, 0.392578, -9.72754, 1.25.2022 18:33:2.364
143, 2.18496, 359.545, 172.35, -0.000976562, 0, -0.000976562, 0.0878906, 0.360352, -9.66797, 1.25.2022 18:33:2.372
144, 2.18496, 359.545, 172.35, 0, 0, 0.000976562, 0.0253906, 0.370117, -9.67676, 1.25.2022 18:33:2.380
145, 2.18496, 359.545, 172.35, -0.000976562, 0, -0.000976562, 0.0869141, 0.373047, -9.70605, 1.25.2022 18:33:2.388
146, 2.18496, 359.545, 172.35, 0, 0, -0.000976562, 0.0917969, 0.356445, -9.70117, 1.25.2022 18:33:2.396
147, 2.18496, 359.545, 172.35, 0.000976562, 0, -0.000976562, 0.0273438, 0.373047, -9.71875, 1.25.2022 18:33:2.404
148, 2.18496, 359.545, 172.35, 0.000976562, 0, -0.000976562, 0.120117, 0.353516, -9.69531, 1.25.2022 18:33:2.412
149, 2.18543, 359.552, 172.35, 0, 0, -0.000976562, 0.0488281, 0.365234, -9.69629, 1.25.2022 18:33:2.420
150, 2.17846, 359.553, 172.35, 0.000976562, 0, -0.000976562, 0.0722656, 0.363281, -9.69629, 1.25.2022 18:33:2.428
151, 2.17846, 359.553, 172.35, 0.000976562, 0, -0.000976562, 0.111328, 0.345703, -9.67188, 1.25.2022 18:33:2.436
152, 2.17846, 359.553, 172.35, 0, 0, -0.00195312, 0.0253906, 0.389648, -9.69727, 1.25.2022 18:33:2.444
153, 2.17851, 359.553, 172.357, 0, 0, -0.000976562, 0.09375, 0.366211, -9.71777, 1.25.2022 18:33:2.452
154, 2.17851, 359.553, 172.357, 0, 0, -0.000976562, 0.0683594, 0.363281, -9.68945, 1.25.2022 18:33:2.460
155, 2.17851, 359.553, 172.357, 0, 0, -0.000976562, 0.0419922, 0.384766, -9.70703, 1.25.2022 18:33:2.468
156, 2.17851, 359.553, 172.357, 0, 0, -0.000976562, 0.158203, 0.371094, -9.7168, 1.25.2022 18:33:2.476
157, 2.17893, 359.56, 172.35, -0.000976562, 0, 0.000976562, 0.0507812, 0.380859, -9.73535, 1.25.2022 18:33:2.484
158, 2.17893, 359.56, 172.35, 0, 0, -0.000976562, 0.0605469, 0.375977, -9.73145, 1.25.2022 18:33:2.492
159, 2.17893, 359.56, 172.35, 0, 0.000976562, -0.000976562, 0.0888672, 0.342773, -9.74219, 1.25.2022 18:33:2.500
160, 2.17893, 359.56, 172.35, -0.000976562, 0, -0.000976562, 0.0292969, 0.341797, -9.70801, 1.25.2022 18:33:2.508
161, 2.17893, 359.56, 172.35, 0, 0, -0.000976562, 0.103516, 0.37793, -9.71973, 1.25.2022 18:33:2.516
162, 2.17893, 359.56, 172.35, 0, 0.000976562, -0.000976562, 0.0820312, 0.353516, -9.7041, 1.25.2022 18:33:2.524
163, 2.17893, 359.56, 172.35, 0.000976562, -0.000976562, -0.000976562, 0.0224609, 0.37793, -9.7207, 1.25.2022 18:33:2.532
164, 2.17898, 359.56, 172.357, 0, -0.000976562, -0.000976562, 0.134766, 0.375977, -9.71777, 1.25.2022 18:33:2.540
165, 2.17898, 359.56, 172.357, -0.00195312, -0.000976562, -0.000976562, 0.0439453, 0.364258, -9.71973, 1.25.2022 18:33:2.548
166, 2.17898, 359.56, 172.357, 0, -0.00195312, -0.000976562, 0.0800781, 0.370117, -9.69141, 1.25.2022 18:33:2.556
167, 2.17898, 359.56, 172.357, -0.00195312, -0.000976562, -0.000976562, 0.143555, 0.364258, -9.7373, 1.25.2022 18:33:2.564
168, 2.17898, 359.56, 172.357, 0, -0.00195312, -0.000976562, 0.03125, 0.402344, -9.73926, 1.25.2022 18:33:2.572
169, 2.17898, 359.56, 172.357, 0, -0.00195312, -0.00195312, 0.113281, 0.368164, -9.70605, 1.25.2022 18:33:2.580
170, 2.17898, 359.56, 172.357, 0, -0.000976562, -0.000976562, 0.0771484, 0.368164, -9.68945, 1.25.2022 18:33:2.588
171, 2.17898, 359.56, 172.357, 0, -0.000976562, 0, 0.015625, 0.399414, -9.68945, 1.25.2022 18:33:2.596
172, 2.17898, 359.56, 172.357, 0, -0.000976562, -0.000976562, 0.136719, 0.353516, -9.69727, 1.25.2022 18:33:2.604
173, 2.17898, 359.56, 172.357, 0, -0.000976562, -0.000976562, 0.0488281, 0.358398, -9.70508, 1.25.2022 18:33:2.612
174, 2.17898, 359.56, 172.357, 0.000976562, -0.00195312, -0.00195312, 0.0625, 0.374023, -9.73633, 1.25.2022 18:33:2.620
175, 2.17898, 359.56, 172.357, 0, -0.000976562, -0.000976562, 0.112305, 0.337891, -9.73047, 1.25.2022 18:33:2.628
176, 2.17898, 359.56, 172.357, 0, 0, -0.000976562, 0.0390625, 0.391602, -9.68359, 1.25.2022 18:33:2.636
177, 2.17898, 359.56, 172.357, 0, -0.000976562, -0.000976562, 0.118164, 0.394531, -9.69824, 1.25.2022 18:33:2.644
178, 2.17851, 359.553, 172.357, 0, -0.000976562, -0.000976562, 0.0869141, 0.363281, -9.70117, 1.25.2022 18:33:2.652
179, 2.17851, 359.553, 172.357, 0, -0.00195312, -0.000976562, 0.0703125, 0.382812, -9.69824, 1.25.2022 18:33:2.660
180, 2.17851, 359.553, 172.357, 0, -0.000976562, -0.000976562, 0.125, 0.354492, -9.72852, 1.25.2022 18:33:2.668
181, 2.17851, 359.553, 172.357, 0, -0.00195312, -0.000976562, 0.0585938, 0.368164, -9.70801, 1.25.2022 18:33:2.676
182, 2.17851, 359.553, 172.357, 0.000976562, -0.000976562, -0.000976562, 0.0742188, 0.378906, -9.7334, 1.25.2022 18:33:2.684
183, 2.17851, 359.553, 172.357, 0.000976562, -0.000976562, -0.000976562, 0.108398, 0.37793, -9.70801, 1.25.2022 18:33:2.692
184, 2.18548, 359.553, 172.357, 0, -0.000976562, -0.00195312, -0.00195312, 0.375977, -9.73535, 1.25.2022 18:33:2.700
185, 2.18548, 359.553, 172.357, 0, 0, -0.000976562, 0.100586, 0.373047, -9.71777, 1.25.2022 18:33:2.708
186, 2.18548, 359.553, 172.357, 0, -0.000976562, -0.000976562, 0.0751953, 0.387695, -9.71191, 1.25.2022 18:33:2.716
187, 2.18502, 359.546, 172.357, 0, -0.000976562, -0.000976562, 0.0556641, 0.392578, -9.72168, 1.25.2022 18:33:2.724
188, 2.18502, 359.546, 172.357, -0.00195312, -0.000976562, -0.000976562, 0.12793, 0.345703, -9.69043, 1.25.2022 18:33:2.732
189, 2.18502, 359.546, 172.357, -0.00195312, -0.000976562, 0, 0.0800781, 0.371094, -9.70605, 1.25.2022 18:33:2.740
190, 2.18502, 359.546, 172.357, 0, -0.000976562, -0.000976562, 0.0751953, 0.370117, -9.6748, 1.25.2022 18:33:2.748
191, 2.18502, 359.546, 172.357, 0.000976562, -0.000976562, -0.000976562, 0.103516, 0.361328, -9.7207, 1.25.2022 18:33:2.756
192, 2.18502, 359.546, 172.357, -0.00195312, -0.000976562, -0.000976562, 0.03125, 0.369141, -9.72363, 1.25.2022 18:33:2.764
193, 2.19199, 359.545, 172.357, 0, -0.00195312, -0.00195312, 0.105469, 0.354492, -9.73242, 1.25.2022 18:33:2.772
194, 2.19199, 359.545, 172.357, 0.000976562, -0.00195312, -0.00195312, 0.0986328, 0.348633, -9.70703, 1.25.2022 18:33:2.780
195, 2.19199, 359.545, 172.357, 0, 0, 0, 0.0585938, 0.376953, -9.68848, 1.25.2022 18:33:2.788
196, 2.19199, 359.545, 172.357, -0.00195312, 0.000976562, 0, 0.103516, 0.332031, -9.70703, 1.25.2022 18:33:2.796
197, 2.19199, 359.545, 172.357, -0.00195312, 0, 0, 0.0410156, 0.355469, -9.75488, 1.25.2022 18:33:2.804
198, 2.18455, 359.539, 172.357, 0, 0, 0.000976562, 0.0390625, 0.361328, -9.72168, 1.25.2022 18:33:2.812
199, 2.18455, 359.539, 172.357, 0, 0, 0, 0.110352, 0.337891, -9.7373, 1.25.2022 18:33:2.820
200, 2.18455, 359.539, 172.357, 0, 0, 0, 0.00585938, 0.375977, -9.7207, 1.25.2022 18:33:2.828
201, 2.18455, 359.539, 172.357, 0, 0, 0, 0.117188, 0.392578, -9.71973, 1.25.2022 18:33:2.836
202, 2.18455, 359.539, 172.357, 0, 0, 0, 0.0722656, 0.364258, -9.74121, 1.25.2022 18:33:2.844
203, 2.18455, 359.539, 172.357, 0, 0, 0, 0.0361328, 0.401367, -9.76074, 1.25.2022 18:33:2.852
204, 2.18502, 359.546, 172.357, 0, 0, 0, 0.0957031, 0.342773, -9.72754, 1.25.2022 18:33:2.860
205, 2.17805, 359.546, 172.357, 0.000976562, -0.000976562, 0, 0.0439453, 0.369141, -9.72168, 1.25.2022 18:33:2.868
206, 2.17805, 359.546, 172.357, 0.000976562, 0.000976562, 0, 0.115234, 0.394531, -9.71777, 1.25.2022 18:33:2.876
207, 2.17805, 359.546, 172.357, -0.00195312, 0.000976562, 0, 0.09375, 0.366211, -9.72949, 1.25.2022 18:33:2.884
208, 2.17805, 359.546, 172.357, 0, 0, 0.000976562, 0.015625, 0.393555, -9.67773, 1.25.2022 18:33:2.892
209, 2.17805, 359.546, 172.357, 0.000976562, -0.000976562, 0, 0.0820312, 0.371094, -9.73438, 1.25.2022 18:33:2.900
210, 2.17805, 359.546, 172.357, 0.000976562, 0.000976562, 0, 0.0917969, 0.360352, -9.69238, 1.25.2022 18:33:2.908
211, 2.17805, 359.546, 172.357, 0, 0.000976562, 0, 0.0488281, 0.369141, -9.72461, 1.25.2022 18:33:2.916
212, 2.17805, 359.546, 172.357, -0.00195312, 0, 0, 0.101562, 0.360352, -9.67773, 1.25.2022 18:33:2.924
213, 2.17805, 359.546, 172.357, -0.00195312, -0.000976562, -0.00195312, 0.0273438, 0.360352, -9.67188, 1.25.2022 18:33:2.932
214, 2.17805, 359.546, 172.357, 0, 0, 0, 0.0732422, 0.358398, -9.6875, 1.25.2022 18:33:2.940
215, 2.17805, 359.546, 172.357, 0, 0, 0.000976562, 0.0859375, 0.342773, -9.74219, 1.25.2022 18:33:2.948
216, 2.17851, 359.553, 172.357, 0, 0, 0, 0.00390625, 0.40625, -9.70312, 1.25.2022 18:33:2.956
217, 2.17851, 359.553, 172.357, -0.00195312, 0, 0, 0.107422, 0.356445, -9.72559, 1.25.2022 18:33:2.964
218, 2.17851, 359.553, 172.357, 0, -0.000976562, 0, 0.0703125, 0.356445, -9.70801, 1.25.2022 18:33:2.972
219, 2.17851, 359.553, 172.357, 0, 0.000976562, 0, 0.0390625, 0.361328, -9.72168, 1.25.2022 18:33:2.980
220, 2.17851, 359.553, 172.357, -0.000976562, 0, -0.000976562, 0.102539, 0.339844, -9.73242, 1.25.2022 18:33:2.986
221, 2.17851, 359.553, 172.357, 0, 0.000976562, 0, 0.0371094, 0.392578, -9.70898, 1.25.2022 18:33:2.994
222, 2.17851, 359.553, 172.357, 0, 0.000976562, 0, 0.0585938, 0.368164, -9.69336, 1.25.2022 18:33:3.002
223, 2.17898, 359.56, 172.357, -0.00195312, 0, 0, 0.103516, 0.338867, -9.69043, 1.25.2022 18:33:3.010
224, 2.17898, 359.56, 172.357, 0, -0.000976562, 0, 0.0273438, 0.400391, -9.72754, 1.25.2022 18:33:3.018
225, 2.17898, 359.56, 172.357, 0, 0, 0, 0.117188, 0.358398, -9.71387, 1.25.2022 18:33:3.026
226, 2.17898, 359.56, 172.357, 0, 0, 0, 0.0917969, 0.345703, -9.66602, 1.25.2022 18:33:3.034
227, 2.17898, 359.56, 172.357, -0.000976562, 0, 0, 0.0585938, 0.370117, -9.68164, 1.25.2022 18:33:3.042
228, 2.17898, 359.56, 172.357, 0, 0, -0.00195312, 0.133789, 0.342773, -9.72363, 1.25.2022 18:33:3.050
229, 2.17201, 359.56, 172.357, 0, -0.000976562, -0.000976562, 0.0458984, 0.380859, -9.71387, 1.25.2022 18:33:3.058
230, 2.17201, 359.56, 172.357, -0.000976562, 0, 0.000976562, 0.0703125, 0.395508, -9.72363, 1.25.2022 18:33:3.066
231, 2.17201, 359.56, 172.357, 0, 0, 0.000976562, 0.0888672, 0.34668, -9.70605, 1.25.2022 18:33:3.074
232, 2.17201, 359.56, 172.357, 0, -0.00195312, -0.000976562, 0.00976562, 0.380859, -9.73242, 1.25.2022 18:33:3.082
233, 2.17201, 359.56, 172.357, 0, -0.00195312, -0.000976562, 0.09375, 0.369141, -9.74414, 1.25.2022 18:33:3.090
234, 2.17201, 359.56, 172.357, 0, 0, -0.000976562, 0.0742188, 0.362305, -9.73633, 1.25.2022 18:33:3.098
235, 2.17201, 359.56, 172.357, -0.000976562, -0.000976562, -0.000976562, 0.0556641, 0.348633, -9.69922, 1.25.2022 18:33:3.106
236, 2.17201, 359.56, 172.357, 0, -0.000976562, -0.000976562, 0.115234, 0.358398, -9.70898, 1.25.2022 18:33:3.114
237, 2.17201, 359.56, 172.357, 0, 0, -0.000976562, 0.0253906, 0.350586, -9.67969, 1.25.2022 18:33:3.122
238, 2.17201, 359.56, 172.357, 0, 0, -0.000976562, 0.0664062, 0.393555, -9.67383, 1.25.2022 18:33:3.130
239, 2.17247, 359.567, 172.357, 0, -0.000976562, -0.000976562, 0.0771484, 0.359375, -9.71973, 1.25.2022 18:33:3.138
240, 2.17247, 359.567, 172.357, 0, 0, -0.000976562, 0.0195312, 0.374023, -9.73047, 1.25.2022 18:33:3.146
241, 2.17247, 359.567, 172.357, 0.000976562, -0.000976562, -0.000976562, 0.120117, 0.381836, -9.69922, 1.25.2022 18:33:3.154
242, 2.17247, 359.567, 172.357, 0.000976562, -0.000976562, -0.000976562, 0.0654297, 0.366211, -9.70605, 1.25.2022 18:33:3.162
243, 2.17247, 359.567, 172.357, 0, 0, -0.000976562, 0.0693359, 0.383789, -9.75488, 1.25.2022 18:33:3.170
244, 2.17247, 359.567, 172.357, -0.000976562, -0.000976562, -0.000976562, 0.145508, 0.342773, -9.73828, 1.25.2022 18:33:3.178
245, 2.17247, 359.567, 172.357, 0, -0.000976562, -0.000976562, 0.0439453, 0.366211, -9.72656, 1.25.2022 18:33:3.186
246, 2.17247, 359.567, 172.357, 0, -0.000976562, 0.000976562, 0.0869141, 0.379883, -9.70801, 1.25.2022 18:33:3.194
247, 2.17247, 359.567, 172.357, 0, 0, -0.000976562, 0.115234, 0.351562, -9.7207, 1.25.2022 18:33:3.202
248, 2.17247, 359.567, 172.357, 0, -0.000976562, -0.000976562, 0.0224609, 0.374023, -9.72363, 1.25.2022 18:33:3.210
249, 2.17247, 359.567, 172.357, 0, -0.00195312, -0.000976562, 0.09375, 0.390625, -9.72168, 1.25.2022 18:33:3.218
250, 2.17247, 359.567, 172.357, 0, -0.000976562, -0.00195312, 0.0644531, 0.37207, -9.73828, 1.25.2022 18:33:3.226
251, 2.17247, 359.567, 172.357, 0.000976562, -0.000976562, -0.000976562, 0.0546875, 0.367188, -9.74512, 1.25.2022 18:33:3.234
252, 2.17247, 359.567, 172.357, 0, 0, 0.000976562, 0.117188, 0.350586, -9.74902, 1.25.2022 18:33:3.242
253, 2.17201, 359.56, 172.357, 0, -0.00195312, -0.000976562, 0.0175781, 0.352539, -9.73633, 1.25.2022 18:33:3.250
254, 2.17247, 359.567, 172.357, 0.000976562, -0.000976562, -0.000976562, 0.0673828, 0.373047, -9.71484, 1.25.2022 18:33:3.258
255, 2.17247, 359.567, 172.357, 0, -0.000976562, -0.000976562, 0.102539, 0.355469, -9.74707, 1.25.2022 18:33:3.266
256, 2.17247, 359.567, 172.357, 0, -0.00195312, -0.000976562, 0.0126953, 0.411133, -9.71094, 1.25.2022 18:33:3.274
257, 2.17247, 359.567, 172.357, -0.000976562, -0.000976562, -0.000976562, 0.113281, 0.356445, -9.71582, 1.25.2022 18:33:3.282
258, 2.17247, 359.567, 172.357, 0, -0.000976562, -0.000976562, 0.0673828, 0.362305, -9.73145, 1.25.2022 18:33:3.290
259, 2.17247, 359.567, 172.357, -0.000976562, -0.000976562, -0.000976562, 0.0439453, 0.371094, -9.72656, 1.25.2022 18:33:3.298
260, 2.17247, 359.567, 172.357, -0.000976562, -0.00195312, -0.000976562, 0.111328, 0.355469, -9.68066, 1.25.2022 18:33:3.306
261, 2.17247, 359.567, 172.357, 0.000976562, -0.00195312, 0, 0.0175781, 0.37793, -9.70898, 1.25.2022 18:33:3.314
262, 2.17247, 359.567, 172.357, 0, -0.00195312, 0, 0.0869141, 0.37793, -9.69336, 1.25.2022 18:33:3.322
263, 2.17247, 359.567, 172.357, 0, -0.000976562, 0.000976562, 0.0908203, 0.333008, -9.74512, 1.25.2022 18:33:3.330
264, 2.17247, 359.567, 172.357, -0.000976562, -0.000976562, -0.00195312, 0.0126953, 0.375977, -9.71875, 1.25.2022 18:33:3.338
265, 2.17247, 359.567, 172.357, -0.00195312, -0.000976562, -0.000976562, 0.115234, 0.330078, -9.69531, 1.25.2022 18:33:3.346
266, 2.16597, 359.575, 172.357, 0.000976562, -0.00195312, -0.000976562, 0.0585938, 0.344727, -9.7041, 1.25.2022 18:33:3.354
267, 2.16597, 359.575, 172.357, -0.000976562, -0.00195312, -0.00195312, 0.0917969, 0.370117, -9.68945, 1.25.2022 18:33:3.362
268, 2.16597, 359.575, 172.357, -0.000976562, -0.00195312, -0.000976562, 0.139648, 0.353516, -9.68359, 1.25.2022 18:33:3.370
269, 2.16597, 359.575, 172.357, 0.000976562, -0.000976562, -0.000976562, 0.0205078, 0.361328, -9.69824, 1.25.2022 18:33:3.378
270, 2.16597, 359.575, 172.357, 0.000976562, -0.000976562, -0.000976562, 0.0791016, 0.387695, -9.7168, 1.25.2022 18:33:3.386
271, 2.16597, 359.575, 172.357, -0.000976562, -0.000976562, -0.000976562, 0.0771484, 0.351562, -9.71582, 1.25.2022 18:33:3.394
272, 2.16597, 359.575, 172.357, -0.000976562, -0.000976562, -0.000976562, 0.0292969, 0.375977, -9.72168, 1.25.2022 18:33:3.402
273, 2.16597, 359.575, 172.357, -0.000976562, -0.000976562, -0.000976562, 0.105469, 0.356445, -9.72559, 1.25.2022 18:33:3.410
274, 2.15899, 359.575, 172.357, -0.000976562, -0.000976562, -0.00195312, 0.0390625, 0.375977, -9.7334, 1.25.2022 18:33:3.418
275, 2.15899, 359.575, 172.357, -0.000976562, -0.000976562, -0.000976562, 0.0488281, 0.394531, -9.69531, 1.25.2022 18:33:3.426
276, 2.15899, 359.575, 172.357, 0, -0.00195312, 0, 0.119141, 0.332031, -9.77344, 1.25.2022 18:33:3.434
277, 2.15899, 359.575, 172.357, -0.000976562, -0.000976562, -0.000976562, 0.0126953, 0.396484, -9.70117, 1.25.2022 18:33:3.442
278, 2.15899, 359.575, 172.357, -0.000976562, -0.000976562, -0.000976562, 0.0839844, 0.373047, -9.70801, 1.25.2022 18:33:3.450
279, 2.15899, 359.575, 172.357, 0, -0.000976562, 0.000976562, 0.0927734, 0.34375, -9.75879, 1.25.2022 18:33:3.458
280, 2.15899, 359.575, 172.357, 0, 0, -0.000976562, 0.0224609, 0.382812, -9.70898, 1.25.2022 18:33:3.466
281, 2.15899, 359.575, 172.357, -0.000976562, -0.000976562, -0.000976562, 0.110352, 0.348633, -9.69922, 1.25.2022 18:33:3.474
282, 2.15899, 359.575, 172.357, -0.000976562, -0.000976562, -0.000976562, 0.0654297, 0.353516, -9.70117, 1.25.2022 18:33:3.482
283, 2.15899, 359.575, 172.357, -0.000976562, -0.000976562, -0.000976562, 0.0439453, 0.389648, -9.69727, 1.25.2022 18:33:3.490
284, 2.15899, 359.575, 172.357, -0.000976562, -0.000976562, -0.000976562, 0.120117, 0.342773, -9.72168, 1.25.2022 18:33:3.498
285, 2.15899, 359.575, 172.357, -0.000976562, -0.000976562, -0.000976562, -0.00390625, 0.40918, -9.71777, 1.25.2022 18:33:3.506
286, 2.15946, 359.582, 172.356, -0.000976562, -0.000976562, -0.000976562, 0.0771484, 0.373047, -9.69824, 1.25.2022 18:33:3.514
287, 2.15946, 359.582, 172.356, 0, 0, -0.000976562, 0.0771484, 0.336914, -9.70703, 1.25.2022 18:33:3.522
288, 2.15946, 359.582, 172.356, 0.000976562, -0.000976562, -0.000976562, 0.0292969, 0.404297, -9.70117, 1.25.2022 18:33:3.530
289, 2.15946, 359.582, 172.356, -0.000976562, -0.000976562, -0.000976562, 0.121094, 0.365234, -9.68066, 1.25.2022 18:33:3.538
290, 2.15946, 359.582, 172.356, 0, 0, -0.000976562, 0.0410156, 0.380859, -9.73828, 1.25.2022 18:33:3.546
291, 2.16643, 359.582, 172.356, -0.000976562, 0, -0.000976562, 0.0556641, 0.387695, -9.73047, 1.25.2022 18:33:3.554
292, 2.16643, 359.582, 172.356, -0.00195312, -0.000976562, -0.000976562, 0.117188, 0.364258, -9.72754, 1.25.2022 18:33:3.562
293, 2.16643, 359.582, 172.356, -0.00195312, 0, -0.00195312, 0.00292969, 0.387695, -9.71777, 1.25.2022 18:33:3.570
294, 2.16643, 359.582, 172.356, -0.000976562, 0, -0.000976562, 0.09375, 0.380859, -9.72266, 1.25.2022 18:33:3.578
295, 2.16643, 359.582, 172.356, -0.000976562, 0.000976562, -0.000976562, 0.0693359, 0.376953, -9.74805, 1.25.2022 18:33:3.586
296, 2.1734, 359.581, 172.356, -0.000976562, 0, -0.000976562, 0.0283203, 0.383789, -9.66211, 1.25.2022 18:33:3.594
297, 2.17387, 359.588, 172.356, -0.000976562, -0.000976562, 0, 0.12793, 0.360352, -9.6875, 1.25.2022 18:33:3.602
298, 2.17387, 359.588, 172.356, -0.00195312, 0, -0.00195312, 0.0595703, 0.331055, -9.75098, 1.25.2022 18:33:3.610
299, 2.17387, 359.588, 172.356, -0.00195312, 0.000976562, -0.000976562, 0.0654297, 0.365234, -9.69824, 1.25.2022 18:33:3.618
300, 2.17387, 359.588, 172.356, -0.00195312, 0, -0.000976562, 0.0878906, 0.376953, -9.75488, 1.25.2022 18:33:3.626
301, 2.18084, 359.588, 172.356, -0.000976562, 0, -0.000976562, 0.0126953, 0.387695, -9.72559, 1.25.2022 18:33:3.634
302, 2.18084, 359.588, 172.356, -0.000976562, 0, -0.000976562, 0.100586, 0.368164, -9.71777, 1.25.2022 18:33:3.642
303, 2.18084, 359.588, 172.356, 0, 0.000976562, -0.000976562, 0.0800781, 0.345703, -9.67773, 1.25.2022 18:33:3.650
304, 2.18084, 359.588, 172.356, 0, 0, -0.000976562, 0.0292969, 0.414062, -9.71777, 1.25.2022 18:33:3.658
305, 2.18084, 359.588, 172.356, -0.000976562, -0.000976562, 0, 0.125977, 0.357422, -9.6709, 1.25.2022 18:33:3.666
306, 2.18084, 359.588, 172.356, -0.000976562, 0, -0.000976562, 0.0634766, 0.351562, -9.69922, 1.25.2022 18:33:3.674
307, 2.18084, 359.588, 172.356, -0.00195312, 0, -0.000976562, 0.0488281, 0.376953, -9.67871, 1.25.2022 18:33:3.682
308, 2.18084, 359.588, 172.356, -0.000976562, 0, -0.000976562, 0.120117, 0.363281, -9.70605, 1.25.2022 18:33:3.690
309, 2.18084, 359.588, 172.356, -0.000976562, 0.000976562, -0.000976562, 0.0283203, 0.389648, -9.76855, 1.25.2022 18:33:3.698
310, 2.18084, 359.588, 172.356, -0.000976562, 0.000976562, -0.000976562, 0.09375, 0.362305, -9.7373, 1.25.2022 18:33:3.706
311, 2.18084, 359.588, 172.356, -0.000976562, 0, -0.000976562, 0.0869141, 0.370117, -9.69824, 1.25.2022 18:33:3.714
312, 2.18782, 359.587, 172.356, 0, 0, -0.000976562, 0.0263672, 0.391602, -9.74902, 1.25.2022 18:33:3.722
313, 2.18782, 359.587, 172.356, -0.000976562, 0, -0.000976562, 0.108398, 0.356445, -9.7041, 1.25.2022 18:33:3.730
314, 2.18782, 359.587, 172.356, -0.000976562, 0.000976562, -0.000976562, 0.0488281, 0.360352, -9.69141, 1.25.2022 18:33:3.738
315, 2.18735, 359.58, 172.357, 0, 0, -0.000976562, 0.0537109, 0.379883, -9.69824, 1.25.2022 18:33:3.746
316, 2.18735, 359.58, 172.357, -0.00195312, 0, -0.000976562, 0.125, 0.355469, -9.6875, 1.25.2022 18:33:3.754
317, 2.18735, 359.58, 172.357, -0.000976562, 0, -0.00195312, 0.0253906, 0.373047, -9.69727, 1.25.2022 18:33:3.762
318, 2.18735, 359.58, 172.357, -0.000976562, 0, 0.000976562, 0.0742188, 0.385742, -9.73828, 1.25.2022 18:33:3.770
319, 2.18735, 359.58, 172.357, 0, 0, -0.000976562, 0.0722656, 0.331055, -9.73535, 1.25.2022 18:33:3.778
320, 2.18735, 359.58, 172.357, -0.000976562, 0, -0.000976562, 0.0419922, 0.37207, -9.66992, 1.25.2022 18:33:3.786
321, 2.18735, 359.58, 172.357, -0.000976562, 0, -0.000976562, 0.129883, 0.373047, -9.71777, 1.25.2022 18:33:3.794
322, 2.18735, 359.58, 172.357, -0.000976562, 0, -0.000976562, 0.0537109, 0.373047, -9.71484, 1.25.2022 18:33:3.802
323, 2.18735, 359.58, 172.357, 0, -0.000976562, -0.000976562, 0.0537109, 0.389648, -9.69043, 1.25.2022 18:33:3.810
324, 2.18735, 359.58, 172.357, 0, -0.000976562, -0.000976562, 0.0986328, 0.371094, -9.73633, 1.25.2022 18:33:3.818
325, 2.18735, 359.58, 172.357, 0, -0.000976562, -0.000976562, 0.0361328, 0.37207, -9.74023, 1.25.2022 18:33:3.826
326, 2.18735, 359.58, 172.357, 0.000976562, -0.000976562, -0.000976562, 0.0820312, 0.375977, -9.71777, 1.25.2022 18:33:3.834
327, 2.18735, 359.58, 172.357, 0, -0.000976562, -0.000976562, 0.0888672, 0.351562, -9.71094, 1.25.2022 18:33:3.842
328, 2.18735, 359.58, 172.357, 0, 0, 0, 0.0126953, 0.380859, -9.71191, 1.25.2022 18:33:3.850
329, 2.18735, 359.58, 172.357, 0, -0.000976562, -0.000976562, 0.137695, 0.365234, -9.68555, 1.25.2022 18:33:3.858
330, 2.18735, 359.58, 172.357, 0, 0, 0, 0.0800781, 0.361328, -9.70312, 1.25.2022 18:33:3.866
331, 2.18735, 359.58, 172.357, 0.000976562, -0.000976562, -0.000976562, 0.0791016, 0.366211, -9.72461, 1.25.2022 18:33:3.874
332, 2.18735, 359.58, 172.357, 0, -0.000976562, -0.000976562, 0.115234, 0.359375, -9.7207, 1.25.2022 18:33:3.882
333, 2.18735, 359.58, 172.357, 0, -0.00195312, -0.000976562, 0.0439453, 0.363281, -9.69629, 1.25.2022 18:33:3.890
334, 2.18735, 359.58, 172.357, 0, -0.000976562, -0.000976562, 0.0986328, 0.368164, -9.7207, 1.25.2022 18:33:3.898
335, 2.18688, 359.573, 172.357, 0, -0.000976562, 0.000976562, 0.0703125, 0.356445, -9.70801, 1.25.2022 18:33:3.906
336, 2.18688, 359.573, 172.357, 0, 0, 0, 0.0439453, 0.389648, -9.68848, 1.25.2022 18:33:3.914
337, 2.18688, 359.573, 172.357, 0.000976562, 0, 0, 0.105469, 0.354492, -9.73047, 1.25.2022 18:33:3.922
338, 2.18688, 359.573, 172.357, 0, 0, 0, 0.0332031, 0.34082, -9.74316, 1.25.2022 18:33:3.930
339, 2.17991, 359.574, 172.357, 0, -0.000976562, -0.000976562, 0.0800781, 0.356445, -9.69922, 1.25.2022 18:33:3.938
340, 2.17991, 359.574, 172.357, 0, 0, 0, 0.129883, 0.344727, -9.7168, 1.25.2022 18:33:3.946
341, 2.17944, 359.567, 172.357, 0, 0, 0, 0.0244141, 0.380859, -9.72559, 1.25.2022 18:33:3.952
342, 2.17944, 359.567, 172.357, -0.00195312, 0, 0, 0.115234, 0.368164, -9.71094, 1.25.2022 18:33:3.960
343, 2.17944, 359.567, 172.357, 0, 0, 0, 0.0859375, 0.352539, -9.74414, 1.25.2022 18:33:3.968
344, 2.17944, 359.567, 172.357, 0, -0.000976562, 0.000976562, 0.0595703, 0.369141, -9.73633, 1.25.2022 18:33:3.976
345, 2.17944, 359.567, 172.357, -0.00195312, -0.000976562, 0, 0.148438, 0.351562, -9.70703, 1.25.2022 18:33:3.984
346, 2.17898, 359.56, 172.357, 0, -0.000976562, -0.000976562, 0.0673828, 0.356445, -9.70312, 1.25.2022 18:33:3.992
347, 2.17201, 359.56, 172.357, 0, -0.000976562, 0.000976562, 0.0585938, 0.356445, -9.69824, 1.25.2022 18:33:4.000
348, 2.17201, 359.56, 172.357, 0, -0.000976562, 0.000976562, 0.106445, 0.353516, -9.68555, 1.25.2022 18:33:4.008
349, 2.17201, 359.56, 172.357, 0, -0.000976562, -0.000976562, 0.0292969, 0.384766, -9.70215, 1.25.2022 18:33:4.016
350, 2.17149, 359.553, 172.35, -0.000976562, -0.000976562, 0.000976562, 0.0859375, 0.381836, -9.75977, 1.25.2022 18:33:4.024
351, 2.17149, 359.553, 172.35, 0, -0.000976562, -0.000976562, 0.078125, 0.37793, -9.78613, 1.25.2022 18:33:4.032
352, 2.17149, 359.553, 172.35, 0, -0.000976562, -0.000976562, 0.0449219, 0.384766, -9.76367, 1.25.2022 18:33:4.040
353, 2.17149, 359.553, 172.35, 0, -0.000976562, -0.000976562, 0.120117, 0.349609, -9.7168, 1.25.2022 18:33:4.048
354, 2.17149, 359.553, 172.35, 0, -0.00195312, -0.000976562, 0.0439453, 0.383789, -9.73047, 1.25.2022 18:33:4.056
355, 2.17149, 359.553, 172.35, 0, -0.000976562, 0, 0.0849609, 0.384766, -9.70312, 1.25.2022 18:33:4.064
356, 2.17149, 359.553, 172.35, 0, -0.000976562, 0, 0.101562, 0.379883, -9.70117, 1.25.2022 18:33:4.072
357, 2.17149, 359.553, 172.35, -0.000976562, -0.000976562, -0.000976562, 0.0390625, 0.389648, -9.71191, 1.25.2022 18:33:4.080
358, 2.17149, 359.553, 172.35, -0.000976562, -0.000976562, -0.000976562, 0.0996094, 0.386719, -9.68164, 1.25.2022 18:33:4.088
359, 2.17149, 359.553, 172.35, 0, -0.000976562, 0, 0.0537109, 0.370117, -9.68359, 1.25.2022 18:33:4.096
360, 2.17149, 359.553, 172.35, 0.000976562, 0, -0.000976562, 0.03125, 0.397461, -9.73535, 1.25.2022 18:33:4.104
361, 2.17149, 359.553, 172.35, -0.000976562, 0, -0.000976562, 0.131836, 0.364258, -9.7207, 1.25.2022 18:33:4.112
362, 2.17149, 359.553, 172.35, -0.000976562, -0.000976562, -0.000976562, 0.0244141, 0.363281, -9.70312, 1.25.2022 18:33:4.120
363, 2.17149, 359.553, 172.35, 0, -0.00195312, 0, 0.0419922, 0.363281, -9.7002, 1.25.2022 18:33:4.128
364, 2.17846, 359.553, 172.35, -0.000976562, -0.000976562, -0.000976562, 0.113281, 0.375977, -9.71582, 1.25.2022 18:33:4.136
365, 2.17846, 359.553, 172.35, -0.000976562, -0.000976562, -0.00195312, -0.0205078, 0.356445, -9.70703, 1.25.2022 18:33:4.144
366, 2.17846, 359.553, 172.35, -0.000976562, -0.000976562, -0.000976562, 0.103516, 0.373047, -9.72266, 1.25.2022 18:33:4.152
367, 2.17846, 359.553, 172.35, 0.000976562, -0.000976562, -0.000976562, 0.0654297, 0.337891, -9.72559, 1.25.2022 18:33:4.160
368, 2.17846, 359.553, 172.35, -0.000976562, 0, -0.000976562, 0.0634766, 0.366211, -9.70312, 1.25.2022 18:33:4.168
369, 2.17846, 359.553, 172.35, -0.000976562, -0.000976562, -0.000976562, 0.148438, 0.34668, -9.70996, 1.25.2022 18:33:4.176
370, 2.17893, 359.56, 172.35, -0.000976562, -0.000976562, -0.000976562, 0.0244141, 0.342773, -9.72168, 1.25.2022 18:33:4.184
371, 2.17898, 359.56, 172.357, -0.000976562, -0.000976562, -0.00195312, 0.0791016, 0.373047, -9.71973, 1.25.2022 18:33:4.192
372, 2.17898, 359.56, 172.357, -0.000976562, 0, -0.000976562, 0.0605469, 0.373047, -9.71484, 1.25.2022 18:33:4.200
373, 2.17898, 359.56, 172.357, 0.000976562, -0.00195312, -0.000976562, 0.00976562, 0.400391, -9.74902, 1.25.2022 18:33:4.208
374, 2.17898, 359.56, 172.357, 0.000976562, -0.00195312, -0.000976562, 0.112305, 0.362305, -9.74902, 1.25.2022 18:33:4.216
375, 2.17898, 359.56, 172.357, -0.000976562, -0.000976562, -0.000976562, 0.0917969, 0.353516, -9.6875, 1.25.2022 18:33:4.224
376, 2.17944, 359.567, 172.357, -0.00195312, -0.000976562, -0.000976562, 0.03125, 0.426758, -9.72656, 1.25.2022 18:33:4.232
377, 2.17944, 359.567, 172.357, -0.000976562, -0.00195312, -0.000976562, 0.12207, 0.351562, -9.7168, 1.25.2022 18:33:4.240
378, 2.17944, 359.567, 172.357, -0.000976562, -0.00195312, -0.000976562, 0.0400391, 0.360352, -9.67969, 1.25.2022 18:33:4.248
379, 2.17944, 359.567, 172.357, 0.000976562, -0.000976562, 0, 0.0673828, 0.378906, -9.74316, 1.25.2022 18:33:4.256
380, 2.17944, 359.567, 172.357, 0.000976562, -0.000976562, -0.000976562, 0.123047, 0.373047, -9.7041, 1.25.2022 18:33:4.264
381, 2.17944, 359.567, 172.357, -0.000976562, -0.000976562, -0.000976562, 0.0244141, 0.369141, -9.73828, 1.25.2022 18:33:4.272
382, 2.17944, 359.567, 172.357, -0.00195312, -0.000976562, -0.00195312, 0.105469, 0.362305, -9.74609, 1.25.2022 18:33:4.280
383, 2.17944, 359.567, 172.357, -0.000976562, -0.00195312, -0.00195312, 0.0722656, 0.354492, -9.73438, 1.25.2022 18:33:4.288
384, 2.17991, 359.574, 172.357, -0.000976562, -0.00195312, -0.000976562, 0.0595703, 0.383789, -9.75977, 1.25.2022 18:33:4.296
385, 2.17991, 359.574, 172.357, -0.000976562, -0.00195312, -0.000976562, 0.141602, 0.341797, -9.72168, 1.25.2022 18:33:4.304
386, 2.17991, 359.574, 172.357, -0.00195312, -0.000976562, -0.000976562, 0.0556641, 0.382812, -9.71875, 1.25.2022 18:33:4.312
387, 2.17991, 359.574, 172.357, -0.000976562, 0.000976562, 0, 0.0683594, 0.37207, -9.67676, 1.25.2022 18:33:4.320
388, 2.17944, 359.567, 172.357, -0.000976562, 0, 0, 0.0966797, 0.358398, -9.71289, 1.25.2022 18:33:4.328
389, 2.17944, 359.567, 172.357, -0.000976562, 0, 0, -0.000976562, 0.411133, -9.68652, 1.25.2022 18:33:4.336
390, 2.17944, 359.567, 172.357, -0.00195312, 0, 0, 0.0976562, 0.380859, -9.74316, 1.25.2022 18:33:4.344
391, 2.17944, 359.567, 172.357, -0.00195312, 0, 0.000976562, 0.0556641, 0.362305, -9.73633, 1.25.2022 18:33:4.352
392, 2.17944, 359.567, 172.357, -0.000976562, 0, 0, 0.0429688, 0.37207, -9.75488, 1.25.2022 18:33:4.360
393, 2.17944, 359.567, 172.357, -0.000976562, 0.000976562, 0, 0.141602, 0.351562, -9.72656, 1.25.2022 18:33:4.368
394, 2.17944, 359.567, 172.357, -0.000976562, -0.00195312, 0.000976562, 0.0429688, 0.383789, -9.73828, 1.25.2022 18:33:4.376
395, 2.18642, 359.566, 172.357, -0.000976562, -0.000976562, -0.000976562, 0.0791016, 0.418945, -9.72559, 1.25.2022 18:33:4.384
396, 2.18642, 359.566, 172.357, -0.00195312, 0, -0.00195312, 0.111328, 0.362305, -9.67383, 1.25.2022 18:33:4.392
397, 2.18642, 359.566, 172.357, -0.000976562, -0.000976562, -0.00195312, 0.0322266, 0.382812, -9.70703, 1.25.2022 18:33:4.400
398, 2.18642, 359.566, 172.357, 0, 0, -0.000976562, 0.132812, 0.367188, -9.68066, 1.25.2022 18:33:4.408
399, 2.18642, 359.566, 172.357, 0, 0, -0.000976562, 0.0673828, 0.351562, -9.69922, 1.25.2022 18:33:4.416
400, 2.18642, 359.566, 172.357, -0.000976562, 0, 0, 0.0625, 0.359375, -9.73438, 1.25.2022 18:33:4.424
401, 2.18642, 359.566, 172.357, 0, 0, -0.00195312, 0.103516, 0.370117, -9.69922, 1.25.2022 18:33:4.432
402, 2.18642, 359.566, 172.357, 0.00195312, 0, -0.000976562, 0.0273438, 0.363281, -9.68848, 1.25.2022 18:33:4.440
403, 2.18642, 359.566, 172.357, -0.000976562, 0, 0, 0.0986328, 0.360352, -9.69434, 1.25.2022 18:33:4.448
404, 2.18642, 359.566, 172.357, -0.000976562, 0, 0, 0.105469, 0.373047, -9.7041, 1.25.2022 18:33:4.456
405, 2.18642, 359.566, 172.357, -0.000976562, 0, 0, 0.0429688, 0.374023, -9.73828, 1.25.2022 18:33:4.464
406, 2.18595, 359.56, 172.357, -0.000976562, 0, 0.000976562, 0.110352, 0.349609, -9.7207, 1.25.2022 18:33:4.472
407, 2.18595, 359.56, 172.357, -0.000976562, 0.000976562, 0.000976562, 0.0761719, 0.324219, -9.7373, 1.25.2022 18:33:4.480
408, 2.18595, 359.56, 172.357, -0.000976562, 0.000976562, 0, 0.0605469, 0.371094, -9.70801, 1.25.2022 18:33:4.488
409, 2.18595, 359.56, 172.357, -0.000976562, 0, 0, 0.141602, 0.392578, -9.73242, 1.25.2022 18:33:4.496
410, 2.18595, 359.56, 172.357, -0.00195312, -0.000976562, -0.000976562, 0.00976562, 0.357422, -9.72363, 1.25.2022 18:33:4.504
411, 2.18595, 359.56, 172.357, -0.000976562, -0.000976562, -0.000976562, 0.0556641, 0.389648, -9.70215, 1.25.2022 18:33:4.512
412, 2.18595, 359.56, 172.357, -0.000976562, 0, 0, 0.0673828, 0.385742, -9.72363, 1.25.2022 18:33:4.520
413, 2.18595, 359.56, 172.357, -0.000976562, 0, 0, 0.0224609, 0.394531, -9.69727, 1.25.2022 18:33:4.528
414, 2.18595, 359.56, 172.357, 0, 0.000976562, 0, 0.120117, 0.361328, -9.70898, 1.25.2022 18:33:4.536
415, 2.18595, 359.56, 172.357, -0.000976562, 0, 0, 0.0791016, 0.341797, -9.71387, 1.25.2022 18:33:4.544
416, 2.18595, 359.56, 172.357, -0.00195312, 0, 0, 0.0654297, 0.367188, -9.68164, 1.25.2022 18:33:4.552
417, 2.18548, 359.553, 172.357, -0.000976562, 0.000976562, 0, 0.123047, 0.368164, -9.70215, 1.25.2022 18:33:4.560
418, 2.18548, 359.553, 172.357, -0.000976562, 0, 0.000976562, 0.0253906, 0.384766, -9.69922, 1.25.2022 18:33:4.568
419, 2.18548, 359.553, 172.357, -0.000976562, -0.00195312, -0.000976562, 0.0742188, 0.392578, -9.72363, 1.25.2022 18:33:4.576
420, 2.18548, 359.553, 172.357, -0.000976562, -0.00195312, -0.000976562, 0.0908203, 0.374023, -9.74316, 1.25.2022 18:33:4.584
421, 2.18595, 359.56, 172.357, -0.000976562, -0.00195312, -0.000976562, 0.0322266, 0.382812, -9.7168, 1.25.2022 18:33:4.592
422, 2.18595, 359.56, 172.357, -0.000976562, 0, -0.000976562, 0.106445, 0.335938, -9.68066, 1.25.2022 18:33:4.600
423, 2.18595, 359.56, 172.357, -0.000976562, 0.000976562, -0.000976562, 0.0800781, 0.34375, -9.68945, 1.25.2022 18:33:4.608
424, 2.18595, 359.56, 172.357, -0.000976562, 0, 0.000976562, 0.0585938, 0.373047, -9.69141, 1.25.2022 18:33:4.616
425, 2.18595, 359.56, 172.357, -0.000976562, 0, 0.000976562, 0.112305, 0.353516, -9.77051, 1.25.2022 18:33:4.624
426, 2.18595, 359.56, 172.357, -0.000976562, 0, -0.00195312, 0.0224609, 0.361328, -9.7168, 1.25.2022 18:33:4.632
427, 2.18595, 359.56, 172.357, -0.000976562, 0, -0.000976562, 0.0576172, 0.375977, -9.73145, 1.25.2022 18:33:4.640
428, 2.18595, 359.56, 172.357, -0.000976562, 0, -0.000976562, 0.0751953, 0.348633, -9.68945, 1.25.2022 18:33:4.648
429, 2.18595, 359.56, 172.357, 0.000976562, 0, -0.000976562, 0.0371094, 0.363281, -9.69531, 1.25.2022 18:33:4.656
430, 2.18595, 359.56, 172.357, -0.000976562, -0.00195312, -0.00195312, 0.105469, 0.330078, -9.72656, 1.25.2022 18:33:4.664
431, 2.18595, 359.56, 172.357, -0.000976562, 0, -0.000976562, 0.0820312, 0.371094, -9.72949, 1.25.2022 18:33:4.672
432, 2.17898, 359.56, 172.357, 0.000976562, 0.000976562, 0.000976562, 0.0537109, 0.404297, -9.69727, 1.25.2022 18:33:4.680
433, 2.17898, 359.56, 172.357, -0.000976562, 0.000976562, -0.000976562, 0.116211, 0.355469, -9.68066, 1.25.2022 18:33:4.688
434, 2.17898, 359.56, 172.357, -0.000976562, 0.000976562, -0.000976562, 0.0507812, 0.392578, -9.72852, 1.25.2022 18:33:4.696
435, 2.17898, 359.56, 172.357, -0.000976562, 0, -0.000976562, 0.0771484, 0.369141, -9.72266, 1.25.2022 18:33:4.704
436, 2.17898, 359.56, 172.357, -0.000976562, 0, -0.000976562, 0.0888672, 0.359375, -9.72266, 1.25.2022 18:33:4.712
437, 2.17898, 359.56, 172.357, 0.000976562, 0, -0.000976562, 0.0107422, 0.402344, -9.70605, 1.25.2022 18:33:4.720
438, 2.17898, 359.56, 172.357, -0.000976562, 0, 0.000976562, 0.131836, 0.373047, -9.71777, 1.25.2022 18:33:4.728
439, 2.17898, 359.56, 172.357, -0.00195312, 0, 0.000976562, 0.102539, 0.364258, -9.74414, 1.25.2022 18:33:4.736
440, 2.17898, 359.56, 172.357, -0.000976562, 0, -0.000976562, 0.0273438, 0.390625, -9.7207, 1.25.2022 18:33:4.744
441, 2.17898, 359.56, 172.357, 0.000976562, 0.000976562, -0.00195312, 0.117188, 0.344727, -9.71875, 1.25.2022 18:33:4.752
442, 2.17898, 359.56, 172.357, -0.000976562, 0, -0.000976562, 0.0273438, 0.380859, -9.72363, 1.25.2022 18:33:4.760
443, 2.17898, 359.56, 172.357, -0.000976562, 0, -0.000976562, 0.0683594, 0.365234, -9.68652, 1.25.2022 18:33:4.768
444, 2.17898, 359.56, 172.357, -0.000976562, -0.00195312, -0.000976562, 0.102539, 0.378906, -9.73926, 1.25.2022 18:33:4.776
445, 2.17898, 359.56, 172.357, 0.000976562, -0.00195312, -0.00292969, 0.0224609, 0.404297, -9.70898, 1.25.2022 18:33:4.784
446, 2.17898, 359.56, 172.357, -0.00195312, 0, -0.000976562, 0.113281, 0.350586, -9.69238, 1.25.2022 18:33:4.792
447, 2.17898, 359.56, 172.357, -0.00195312, -0.00195312, -0.000976562, 0.0703125, 0.397461, -9.7168, 1.25.2022 18:33:4.800
448, 2.17898, 359.56, 172.357, 0.000976562, -0.00195312, -0.000976562, 0.0439453, 0.37793, -9.70703, 1.25.2022 18:33:4.808
449, 2.18595, 359.56, 172.357, 0.000976562, -0.00195312, -0.00195312, 0.112305, 0.356445, -9.72559, 1.25.2022 18:33:4.816
450, 2.18595, 359.56, 172.357, -0.000976562, 0, -0.000976562, 0.0341797, 0.388672, -9.73535, 1.25.2022 18:33:4.824
451, 2.18642, 359.566, 172.357, -0.000976562, 0, 0, 0.0869141, 0.371094, -9.71973, 1.25.2022 18:33:4.832
452, 2.18642, 359.566, 172.357, -0.00195312, 0, 0, 0.0742188, 0.364258, -9.72461, 1.25.2022 18:33:4.840
453, 2.18642, 359.566, 172.357, -0.00195312, 0.000976562, -0.000976562, 0.0380859, 0.385742, -9.74512, 1.25.2022 18:33:4.848
454, 2.18642, 359.566, 172.357, -0.000976562, 0, -0.00195312, 0.103516, 0.363281, -9.69727, 1.25.2022 18:33:4.856
455, 2.18642, 359.566, 172.357, 0, 0.000976562, 0, 0.0595703, 0.374023, -9.74023, 1.25.2022 18:33:4.864
456, 2.18642, 359.566, 172.357, -0.000976562, 0, 0, 0.0507812, 0.375977, -9.72168, 1.25.2022 18:33:4.872
457, 2.19339, 359.566, 172.357, -0.00195312, 0, 0, 0.136719, 0.34668, -9.72363, 1.25.2022 18:33:4.880
458, 2.19339, 359.566, 172.357, -0.000976562, 0.000976562, 0, 0.0410156, 0.382812, -9.71191, 1.25.2022 18:33:4.888
459, 2.19339, 359.566, 172.357, 0, 0.000976562, 0.000976562, 0.0849609, 0.381836, -9.69629, 1.25.2022 18:33:4.896
460, 2.19339, 359.566, 172.357, -0.000976562, 0.000976562, 0, 0.0742188, 0.383789, -9.74316, 1.25.2022 18:33:4.904
461, 2.19339, 359.566, 172.357, 0, 0, 0.000976562, 0.0273438, 0.391602, -9.68066, 1.25.2022 18:33:4.912
462, 2.19339, 359.566, 172.357, -0.000976562, 0.000976562, 0.000976562, 0.106445, 0.348633, -9.68359, 1.25.2022 18:33:4.920
463, 2.19292, 359.559, 172.357, 0, 0.000976562, 0, 0.0703125, 0.361328, -9.71973, 1.25.2022 18:33:4.926
464, 2.19292, 359.559, 172.357, 0, 0, 0, 0.0625, 0.37793, -9.72168, 1.25.2022 18:33:4.934
465, 2.19292, 359.559, 172.357, -0.000976562, -0.000976562, 0, 0.115234, 0.357422, -9.73535, 1.25.2022 18:33:4.942
466, 2.19339, 359.566, 172.357, -0.000976562, 0, 0, 0.0078125, 0.383789, -9.74707, 1.25.2022 18:33:4.950
467, 2.19339, 359.566, 172.357, -0.000976562, 0, 0, 0.0791016, 0.375977, -9.72461, 1.25.2022 18:33:4.958
468, 2.19339, 359.566, 172.357, -0.000976562, 0, 0, 0.0742188, 0.367188, -9.74609, 1.25.2022 18:33:4.966
469, 2.19339, 359.566, 172.357, 0, 0, 0, 0.0439453, 0.385742, -9.7168, 1.25.2022 18:33:4.974
470, 2.19339, 359.566, 172.357, -0.000976562, 0.000976562, 0, 0.123047, 0.334961, -9.70312, 1.25.2022 18:33:4.982
471, 2.19339, 359.566, 172.357, -0.000976562, -0.000976562, -0.000976562, 0.0410156, 0.380859, -9.73047, 1.25.2022 18:33:4.990
472, 2.19339, 359.566, 172.357, -0.00195312, 0, 0, 0.0673828, 0.390625, -9.72852, 1.25.2022 18:33:4.998
473, 2.19339, 359.566, 172.357, -0.00195312, 0, -0.00195312, 0.131836, 0.334961, -9.70996, 1.25.2022 18:33:5.006
474, 2.20036, 359.566, 172.357, -0.00195312, 0, 0, 0.0390625, 0.384766, -9.70508, 1.25.2022 18:33:5.014
475, 2.20036, 359.566, 172.357, -0.000976562, 0.000976562, 0, 0.0761719, 0.362305, -9.75977, 1.25.2022 18:33:5.022
476, 2.20036, 359.566, 172.357, -0.000976562, 0, 0.000976562, 0.0839844, 0.363281, -9.70801, 1.25.2022 18:33:5.030
477, 2.19339, 359.566, 172.357, -0.000976562, 0, 0, 0.0292969, 0.387695, -9.7207, 1.25.2022 18:33:5.038
478, 2.19339, 359.566, 172.357, -0.000976562, 0, 0, 0.0986328, 0.361328, -9.71777, 1.25.2022 18:33:5.046
479, 2.19339, 359.566, 172.357, -0.000976562, 0, 0, 0.0576172, 0.374023, -9.73633, 1.25.2022 18:33:5.054
480, 2.19339, 359.566, 172.357, -0.00195312, -0.000976562, -0.00195312, 0.0556641, 0.394531, -9.71387, 1.25.2022 18:33:5.062
481, 2.19339, 359.566, 172.357, -0.000976562, -0.00195312, 0.000976562, 0.101562, 0.350586, -9.68066, 1.25.2022 18:33:5.070
482, 2.19339, 359.566, 172.357, -0.000976562, 0, 0, -0.0078125, 0.389648, -9.68262, 1.25.2022 18:33:5.078
483, 2.19339, 359.566, 172.357, 0, -0.000976562, -0.000976562, 0.0742188, 0.374023, -9.74316, 1.25.2022 18:33:5.086
484, 2.19339, 359.566, 172.357, 0, -0.000976562, 0.000976562, 0.0966797, 0.354492, -9.71094, 1.25.2022 18:33:5.094
485, 2.19386, 359.573, 172.357, 0, 0, -0.000976562, 0.0263672, 0.402344, -9.7373, 1.25.2022 18:33:5.102
486, 2.19386, 359.573, 172.357, 0, -0.000976562, -0.000976562, 0.105469, 0.364258, -9.73242, 1.25.2022 18:33:5.110
487, 2.19386, 359.573, 172.357, 0, -0.00195312, 0.000976562, 0.0546875, 0.355469, -9.75977, 1.25.2022 18:33:5.118
488, 2.19386, 359.573, 172.357, 0, -0.000976562, -0.000976562, 0.0859375, 0.369141, -9.74609, 1.25.2022 18:33:5.126
489, 2.19386, 359.573, 172.357, 0, -0.000976562, -0.000976562, 0.136719, 0.342773, -9.72656, 1.25.2022 18:33:5.134
490, 2.19386, 359.573, 172.357, 0, -0.000976562, -0.000976562, 0.0458984, 0.371094, -9.7168, 1.25.2022 18:33:5.142
491, 2.19386, 359.573, 172.357, 0, 0, -0.000976562, 0.0673828, 0.358398, -9.70605, 1.25.2022 18:33:5.150
492, 2.19386, 359.573, 172.357, 0, 0, -0.000976562, 0.09375, 0.353516, -9.69727, 1.25.2022 18:33:5.158
493, 2.19386, 359.573, 172.357, 0, -0.000976562, -0.000976562, 0.046875, 0.401367, -9.69238, 1.25.2022 18:33:5.166
494, 2.19386, 359.573, 172.357, -0.00195312, -0.000976562, -0.000976562, 0.109375, 0.363281, -9.76758, 1.25.2022 18:33:5.174
495, 2.19386, 359.573, 172.357, 0, 0, 0.000976562, 0.0527344, 0.378906, -9.7334, 1.25.2022 18:33:5.182
496, 2.19386, 359.573, 172.357, 0, 0, -0.000976562, 0.0771484, 0.385742, -9.71484, 1.25.2022 18:33:5.190
497, 2.19386, 359.573, 172.357, 0, -0.000976562, -0.00195312, 0.126953, 0.368164, -9.70898, 1.25.2022 18:33:5.198
498, 2.19386, 359.573, 172.357, 0, 0, -0.000976562, 0.0078125, 0.388672, -9.73438, 1.25.2022 18:33:5.206
499, 2.19386, 359.573, 172.357, 0, -0.000976562, -0.000976562, 0.0673828, 0.405273, -9.73535, 1.25.2022 18:33:5.214
500, 2.19386, 359.573, 172.357, 0, 0, -0.000976562, 0.078125, 0.367188, -9.66992, 1.25.2022 18:33:5.222
501, 2.19386, 359.573, 172.357, 0, -0.00195312, -0.000976562, 0.0253906, 0.384766, -9.69238, 1.25.2022 18:33:5.230
502, 2.19386, 359.573, 172.357, 0, -0.00195312, -0.000976562, 0.114258, 0.354492, -9.74414, 1.25.2022 18:33:5.238
503, 2.19386, 359.573, 172.357, 0, -0.000976562, -0.000976562, 0.0517578, 0.355469, -9.6748, 1.25.2022 18:33:5.246
504, 2.19386, 359.573, 172.357, 0.000976562, -0.000976562, -0.000976562, 0.0820312, 0.373047, -9.70801, 1.25.2022 18:33:5.254
505, 2.19386, 359.573, 172.357, 0, -0.000976562, -0.000976562, 0.117188, 0.371094, -9.73242, 1.25.2022 18:33:5.262
506, 2.19386, 359.573, 172.357, 0, -0.000976562, -0.000976562, 0.0263672, 0.380859, -9.74023, 1.25.2022 18:33:5.270
507, 2.19386, 359.573, 172.357, 0, -0.000976562, -0.00195312, 0.0859375, 0.354492, -9.73242, 1.25.2022 18:33:5.278
508, 2.19386, 359.573, 172.357, -0.00195312, -0.000976562, -0.000976562, 0.0927734, 0.370117, -9.77441, 1.25.2022 18:33:5.286
509, 2.19386, 359.573, 172.357, -0.00195312, -0.000976562, -0.00195312, 0.0605469, 0.391602, -9.7002, 1.25.2022 18:33:5.294
510, 2.20083, 359.573, 172.357, 0, 0, -0.00195312, 0.108398, 0.363281, -9.69434, 1.25.2022 18:33:5.302
511, 2.20083, 359.573, 172.357, -0.00195312, -0.000976562, -0.000976562, 0.0537109, 0.370117, -9.69824, 1.25.2022 18:33:5.310
512, 2.20083, 359.573, 172.357, 0, -0.000976562, -0.000976562, 0.0390625, 0.366211, -9.70801, 1.25.2022 18:33:5.318
513, 2.20036, 359.566, 172.357, 0, -0.000976562, -0.000976562, 0.115234, 0.368164, -9.70898, 1.25.2022 18:33:5.326
514, 2.20036, 359.566, 172.357, 0, -0.000976562, -0.00195312, 0.0322266, 0.384766, -9.69238, 1.25.2022 18:33:5.334
515, 2.20036, 359.566, 172.357, 0, -0.000976562, -0.00195312, 0.0898438, 0.379883, -9.68945, 1.25.2022 18:33:5.342
516, 2.20036, 359.566, 172.357, 0, -0.000976562, 0, 0.0830078, 0.352539, -9.66797, 1.25.2022 18:33:5.350
517, 2.20036, 359.566, 172.357, -0.000976562, -0.000976562, 0, 0.0488281, 0.385742, -9.71387, 1.25.2022 18:33:5.358
518, 2.20036, 359.566, 172.357, 0, 0, 0, 0.117188, 0.360352, -9.74902, 1.25.2022 18:33:5.366
519, 2.20036, 359.566, 172.357, 0, -0.000976562, 0, 0.0429688, 0.369141, -9.75, 1.25.2022 18:33:5.374
520, 2.20036, 359.566, 172.357, 0, -0.000976562, 0.000976562, 0.0673828, 0.371094, -9.71289, 1.25.2022 18:33:5.382
521, 2.20036, 359.566, 172.357, 0, -0.000976562, 0, 0.118164, 0.348633, -9.7041, 1.25.2022 18:33:5.390
522, 2.20036, 359.566, 172.357, 0, -0.00195312, 0, 0.0078125, 0.397461, -9.72949, 1.25.2022 18:33:5.398
523, 2.20036, 359.566, 172.357, 0, -0.000976562, 0, 0.103516, 0.389648, -9.71973, 1.25.2022 18:33:5.406
524, 2.20036, 359.566, 172.357, 0, -0.00195312, 0, 0.0771484, 0.374023, -9.74121, 1.25.2022 18:33:5.414
525, 2.20036, 359.566, 172.357, 0, -0.00195312, 0.000976562, 0.0458984, 0.388672, -9.74023, 1.25.2022 18:33:5.422
526, 2.20036, 359.566, 172.357, 0, 0, 0, 0.117188, 0.354492, -9.72754, 1.25.2022 18:33:5.430
527, 2.20036, 359.566, 172.357, 0, -0.000976562, 0, 0.0556641, 0.361328, -9.72656, 1.25.2022 18:33:5.438
528, 2.20036, 359.566, 172.357, 0, 0, 0, 0.0556641, 0.380859, -9.70996, 1.25.2022 18:33:5.446
529, 2.20036, 359.566, 172.357, 0, -0.000976562, 0, 0.105469, 0.359375, -9.7207, 1.25.2022 18:33:5.454
530, 2.20036, 359.566, 172.357, 0, -0.000976562, -0.00195312, 0.0371094, 0.384766, -9.69727, 1.25.2022 18:33:5.462
531, 2.20036, 359.566, 172.357, 0.000976562, -0.00195312, 0, 0.100586, 0.380859, -9.71484, 1.25.2022 18:33:5.470
532, 2.20036, 359.566, 172.357, 0, -0.000976562, 0, 0.0820312, 0.368164, -9.70605, 1.25.2022 18:33:5.478
533, 2.20036, 359.566, 172.357, -0.000976562, -0.000976562, 0, 0.0361328, 0.378906, -9.72363, 1.25.2022 18:33:5.486
534, 2.20036, 359.566, 172.357, 0, 0, 0, 0.134766, 0.362305, -9.68555, 1.25.2022 18:33:5.494
535, 2.20036, 359.566, 172.357, 0, -0.000976562, 0, 0.0458984, 0.366211, -9.70312, 1.25.2022 18:33:5.502
536, 2.20036, 359.566, 172.357, 0, -0.000976562, 0, 0.0576172, 0.378906, -9.74316, 1.25.2022 18:33:5.510
537, 2.20036, 359.566, 172.357, 0, -0.000976562, 0, 0.103516, 0.348633, -9.69531, 1.25.2022 18:33:5.518
538, 2.20036, 359.566, 172.357, 0, 0, 0, 0.00292969, 0.392578, -9.71094, 1.25.2022 18:33:5.526
539, 2.20036, 359.566, 172.357, 0, 0, 0, 0.0986328, 0.361328, -9.73242, 1.25.2022 18:33:5.534
540, 2.20036, 359.566, 172.357, 0.000976562, -0.000976562, 0.000976562, 0.0849609, 0.37793, -9.69629, 1.25.2022 18:33:5.542
541, 2.20036, 359.566, 172.357, 0, -0.00195312, 0, 0.0527344, 0.390625, -9.72559, 1.25.2022 18:33:5.550
542, 2.20036, 359.566, 172.357, 0, -0.000976562, 0, 0.123047, 0.373047, -9.7041, 1.25.2022 18:33:5.558
543, 2.20036, 359.566, 172.357, -0.000976562, -0.000976562, 0, 0.0263672, 0.360352, -9.74805, 1.25.2022 18:33:5.566
544, 2.20036, 359.566, 172.357, 0, -0.000976562, 0, 0.0771484, 0.359375, -9.71777, 1.25.2022 18:33:5.574
545, 2.20036, 359.566, 172.357, 0, -0.00195312, 0.000976562, 0.103516, 0.34375, -9.69043, 1.25.2022 18:33:5.582
546, 2.20036, 359.566, 172.357, 0, -0.000976562, 0, 0.0175781, 0.375977, -9.71387, 1.25.2022 18:33:5.590
547, 2.20036, 359.566, 172.357, 0, 0, -0.000976562, 0.108398, 0.373047, -9.71094, 1.25.2022 18:33:5.598
548, 2.20036, 359.566, 172.357, 0, 0, -0.000976562, 0.0888672, 0.363281, -9.70605, 1.25.2022 18:33:5.606
549, 2.20036, 359.566, 172.357, 0, 0, -0.000976562, 0.0410156, 0.400391, -9.7373, 1.25.2022 18:33:5.614
550, 2.20036, 359.566, 172.357, 0, 0, -0.000976562, 0.117188, 0.359375, -9.7373, 1.25.2022 18:33:5.622
551, 2.20036, 359.566, 172.357, 0, -0.00195312, -0.000976562, 0.0605469, 0.354492, -9.71484, 1.25.2022 18:33:5.630
552, 2.20036, 359.566, 172.357, -0.00195312, 0, -0.000976562, 0.0527344, 0.374023, -9.73828, 1.25.2022 18:33:5.638
553, 2.20036, 359.566, 172.357, 0, 0.000976562, -0.000976562, 0.103516, 0.34668, -9.7041, 1.25.2022 18:33:5.646
554, 2.19339, 359.566, 172.357, 0, 0.00195312, -0.000976562, 0.0195312, 0.37793, -9.70898, 1.25.2022 18:33:5.654
555, 2.19339, 359.566, 172.357, -0.00195312, 0.000976562, -0.000976562, 0.105469, 0.364258, -9.7207, 1.25.2022 18:33:5.662
556, 2.19339, 359.566, 172.357, -0.00195312, 0, -0.000976562, 0.0537109, 0.361328, -9.69824, 1.25.2022 18:33:5.670
557, 2.19339, 359.566, 172.357, 0, 0, -0.000976562, 0.0605469, 0.366211, -9.71289, 1.25.2022 18:33:5.678
558, 2.19339, 359.566, 172.357, 0, 0, -0.00195312, 0.110352, 0.344727, -9.71387, 1.25.2022 18:33:5.686
559, 2.19339, 359.566, 172.357, 0, 0, -0.000976562, 0.0439453, 0.375977, -9.73047, 1.25.2022 18:33:5.694
560, 2.19339, 359.566, 172.357, 0, 0, -0.000976562, 0.0439453, 0.370117, -9.68652, 1.25.2022 18:33:5.702
561, 2.19339, 359.566, 172.357, 0, -0.000976562, 0, 0.113281, 0.348633, -9.69727, 1.25.2022 18:33:5.710
562, 2.19339, 359.566, 172.357, 0, 0, -0.000976562, 0.0332031, 0.376953, -9.76855, 1.25.2022 18:33:5.718
563, 2.18642, 359.566, 172.357, 0.000976562, -0.000976562, -0.000976562, 0.0869141, 0.355469, -9.68066, 1.25.2022 18:33:5.726
564, 2.18642, 359.566, 172.357, 0.000976562, 0.000976562, -0.000976562, 0.0703125, 0.369141, -9.72168, 1.25.2022 18:33:5.734
565, 2.18642, 359.566, 172.357, 0, 0, -0.000976562, 0.0478516, 0.374023, -9.73145, 1.25.2022 18:33:5.742
566, 2.18642, 359.566, 172.357, 0, -0.00195312, -0.000976562, 0.145508, 0.352539, -9.75879, 1.25.2022 18:33:5.750
567, 2.18642, 359.566, 172.357, 0, 0, -0.000976562, 0.0585938, 0.351562, -9.69922, 1.25.2022 18:33:5.758
568, 2.17944, 359.567, 172.357, 0, -0.00195312, -0.000976562, 0.0625, 0.382812, -9.71191, 1.25.2022 18:33:5.766
569, 2.17944, 359.567, 172.357, 0, 0, -0.000976562, 0.125, 0.34375, -9.67871, 1.25.2022 18:33:5.774
570, 2.17944, 359.567, 172.357, 0, 0, -0.000976562, 0.000976562, 0.375977, -9.71582, 1.25.2022 18:33:5.782
571, 2.17944, 359.567, 172.357, 0, 0, -0.000976562, 0.112305, 0.364258, -9.73242, 1.25.2022 18:33:5.790
572, 2.17944, 359.567, 172.357, 0, 0.000976562, -0.000976562, 0.0625, 0.371094, -9.72168, 1.25.2022 18:33:5.798
573, 2.17944, 359.567, 172.357, 0, 0, -0.000976562, 0.0419922, 0.381836, -9.68848, 1.25.2022 18:33:5.806
574, 2.17944, 359.567, 172.357, 0, -0.00195312, -0.000976562, 0.09375, 0.335938, -9.73535, 1.25.2022 18:33:5.814
575, 2.17944, 359.567, 172.357, 0, 0, -0.000976562, 0.0439453, 0.380859, -9.72168, 1.25.2022 18:33:5.822
576, 2.17247, 359.567, 172.357, 0, 0, -0.000976562, 0.0800781, 0.379883, -9.70801, 1.25.2022 18:33:5.830
577, 2.17247, 359.567, 172.357, 0, 0, -0.000976562, 0.124023, 0.347656, -9.74219, 1.25.2022 18:33:5.838
578, 2.17247, 359.567, 172.357, 0, 0, -0.000976562, 0.0273438, 0.387695, -9.7207, 1.25.2022 18:33:5.846
579, 2.17247, 359.567, 172.357, 0, -0.00195312, -0.00195312, 0.111328, 0.362305, -9.66895, 1.25.2022 18:33:5.854
580, 2.17247, 359.567, 172.357, 0, -0.000976562, 0, 0.0771484, 0.373047, -9.70996, 1.25.2022 18:33:5.862
581, 2.17247, 359.567, 172.357, 0, -0.000976562, 0, 0.0439453, 0.394531, -9.70703, 1.25.2022 18:33:5.870
582, 2.17247, 359.567, 172.357, 0, 0.000976562, 0, 0.148438, 0.358398, -9.7168, 1.25.2022 18:33:5.878
583, 2.17247, 359.567, 172.357, 0, -0.000976562, 0.000976562, 0.0478516, 0.37207, -9.74023, 1.25.2022 18:33:5.886
584, 2.17201, 359.56, 172.357, 0, -0.000976562, 0.000976562, 0.0800781, 0.381836, -9.69336, 1.25.2022 18:33:5.894
585, 2.17201, 359.56, 172.357, 0, -0.000976562, 0, 0.100586, 0.339844, -9.7207, 1.25.2022 18:33:5.900
586, 2.17201, 359.56, 172.357, 0, 0.000976562, 0, 0, 0.375, -9.75586, 1.25.2022 18:33:5.908
587, 2.17201, 359.56, 172.357, -0.00195312, 0.000976562, 0, 0.0966797, 0.370117, -9.68262, 1.25.2022 18:33:5.916
588, 2.17201, 359.56, 172.357, 0, 0.000976562, 0, 0.0605469, 0.373047, -9.68848, 1.25.2022 18:33:5.924
589, 2.17201, 359.56, 172.357, 0, -0.000976562, 0, 0.03125, 0.398438, -9.73926, 1.25.2022 18:33:5.932
590, 2.17201, 359.56, 172.357, 0, -0.000976562, 0, 0.09375, 0.354492, -9.72266, 1.25.2022 18:33:5.940
591, 2.17201, 359.56, 172.357, 0, -0.000976562, 0, 0.0361328, 0.375, -9.75879, 1.25.2022 18:33:5.948
592, 2.17201, 359.56, 172.357, 0, 0.000976562, 0, 0.0791016, 0.387695, -9.72852, 1.25.2022 18:33:5.956
593, 2.17201, 359.56, 172.357, 0.000976562, -0.000976562, 0.000976562, 0.0976562, 0.347656, -9.75391, 1.25.2022 18:33:5.964
594, 2.17201, 359.56, 172.357, 0.000976562, 0.000976562, 0, 0.0361328, 0.390625, -9.73535, 1.25.2022 18:33:5.972
595, 2.17898, 359.56, 172.357, 0, 0.000976562, 0, 0.113281, 0.373047, -9.71289, 1.25.2022 18:33:5.980
596, 2.17898, 359.56, 172.357, 0, 0.000976562, 0, 0.0820312, 0.368164, -9.71094, 1.25.2022 18:33:5.988
597, 2.17898, 359.56, 172.357, 0, -0.000976562, 0, 0.0361328, 0.390625, -9.72852, 1.25.2022 18:33:5.996
598, 2.17898, 359.56, 172.357, 0, -0.000976562, 0, 0.131836, 0.324219, -9.69141, 1.25.2022 18:33:6.004
599, 2.17898, 359.56, 172.357, -0.00195312, -0.000976562, 0, 0.0341797, 0.37793, -9.7002, 1.25.2022 18:33:6.012
600, 2.17898, 359.56, 172.357, 0, -0.000976562, 0, 0.09375, 0.397461, -9.72852, 1.25.2022 18:33:6.020
601, 2.17898, 359.56, 172.357, 0.000976562, -0.000976562, 0, 0.0966797, 0.366211, -9.71289, 1.25.2022 18:33:6.028
602, 2.17898, 359.56, 172.357, 0, -0.000976562, 0, 0.0283203, 0.408203, -9.75781, 1.25.2022 18:33:6.036
603, 2.17898, 359.56, 172.357, -0.00195312, -0.000976562, 0, 0.117188, 0.355469, -9.75195, 1.25.2022 18:33:6.044
604, 2.17898, 359.56, 172.357, -0.00195312, -0.000976562, 0, 0.0888672, 0.351562, -9.69922, 1.25.2022 18:33:6.052
605, 2.18595, 359.56, 172.357, 0.000976562, -0.000976562, 0, 0.046875, 0.360352, -9.68164, 1.25.2022 18:33:6.060
606, 2.18595, 359.56, 172.357, 0.000976562, -0.000976562, 0, 0.129883, 0.353516, -9.7002, 1.25.2022 18:33:6.068
607, 2.18595, 359.56, 172.357, 0, -0.000976562, 0, 0.0410156, 0.375977, -9.70996, 1.25.2022 18:33:6.076
608, 2.18595, 359.56, 172.357, -0.00195312, -0.000976562, 0.000976562, 0.0576172, 0.364258, -9.72656, 1.25.2022 18:33:6.084
609, 2.18595, 359.56, 172.357, -0.00195312, -0.000976562, 0, 0.0908203, 0.349609, -9.72754, 1.25.2022 18:33:6.092
610, 2.18595, 359.56, 172.357, -0.00195312, -0.000976562, 0, 0.0214844, 0.393555, -9.75879, 1.25.2022 18:33:6.100
611, 2.18595, 359.56, 172.357, 0, -0.000976562, -0.00195312, 0.0986328, 0.390625, -9.74121, 1.25.2022 18:33:6.108
612, 2.18595, 359.56, 172.357, -0.00195312, 0, -0.000976562, 0.0839844, 0.355469, -9.74902, 1.25.2022 18:33:6.116
613, 2.18595, 359.56, 172.357, -0.000976562, -0.000976562, 0, 0.0517578, 0.373047, -9.7832, 1.25.2022 18:33:6.124
614, 2.18595, 359.56, 172.357, 0, -0.000976562, -0.000976562, 0.114258, 0.362305, -9.76562, 1.25.2022 18:33:6.132
615, 2.18595, 359.56, 172.357, 0, -0.000976562, -0.000976562, 0.0126953, 0.362305, -9.73047, 1.25.2022 18:33:6.140
616, 2.18595, 359.56, 172.357, 0, -0.000976562, -0.000976562, 0.0507812, 0.353516, -9.69629, 1.25.2022 18:33:6.148
617, 2.18595, 359.56, 172.357, -0.00195312, 0, -0.000976562, 0.12207, 0.351562, -9.7207, 1.25.2022 18:33:6.156
618, 2.18595, 359.56, 172.357, -0.000976562, -0.000976562, 0, 0.0361328, 0.386719, -9.75684, 1.25.2022 18:33:6.164
619, 2.18595, 359.56, 172.357, -0.000976562, 0, 0.000976562, 0.100586, 0.375977, -9.72754, 1.25.2022 18:33:6.172
620, 2.18595, 359.56, 172.357, 0, -0.000976562, -0.000976562, 0.0771484, 0.351562, -9.70117, 1.25.2022 18:33:6.180
621, 2.18595, 359.56, 172.357, 0, -0.000976562, -0.000976562, 0.0654297, 0.363281, -9.70996, 1.25.2022 18:33:6.188
622, 2.18595, 359.56, 172.357, 0, -0.000976562, -0.000976562, 0.120117, 0.368164, -9.71387, 1.25.2022 18:33:6.196
623, 2.18595, 359.56, 172.357, 0, -0.000976562, -0.00195312, 0.0458984, 0.373047, -9.70703, 1.25.2022 18:33:6.204
624, 2.18595, 359.56, 172.357, 0, -0.000976562, -0.00195312, 0.0488281, 0.349609, -9.70801, 1.25.2022 18:33:6.212
625, 2.17898, 359.56, 172.357, 0, -0.000976562, -0.000976562, 0.0957031, 0.371094, -9.73633, 1.25.2022 18:33:6.220
626, 2.17898, 359.56, 172.357, 0.000976562, -0.000976562, -0.000976562, 0.0263672, 0.378906, -9.73047, 1.25.2022 18:33:6.228
627, 2.17898, 359.56, 172.357, 0.000976562, -0.000976562, 0, 0.112305, 0.374023, -9.74414, 1.25.2022 18:33:6.236
628, 2.17898, 359.56, 172.357, 0, -0.000976562, 0, 0.0439453, 0.347656, -9.72461, 1.25.2022 18:33:6.244
629, 2.17898, 359.56, 172.357, 0, -0.000976562, -0.000976562, 0.0605469, 0.371094, -9.71289, 1.25.2022 18:33:6.252
630, 2.17898, 359.56, 172.357, -0.00195312, -0.000976562, -0.00195312, 0.102539, 0.371094, -9.73926, 1.25.2022 18:33:6.260
631, 2.17944, 359.567, 172.357, 0, -0.000976562, -0.00195312, 0.0107422, 0.349609, -9.7168, 1.25.2022 18:33:6.268
632, 2.17944, 359.567, 172.357, 0, -0.000976562, 0, 0.0556641, 0.366211, -9.73145, 1.25.2022 18:33:6.276
633, 2.17944, 359.567, 172.357, 0, -0.000976562, 0, 0.101562, 0.355469, -9.69434, 1.25.2022 18:33:6.284
634, 2.17944, 359.567, 172.357, 0, -0.000976562, -0.000976562, -0.0107422, 0.37207, -9.67578, 1.25.2022 18:33:6.292
635, 2.17247, 359.567, 172.357, -0.00195312, -0.00195312, -0.000976562, 0.110352, 0.344727, -9.72852, 1.25.2022 18:33:6.300
636, 2.17247, 359.567, 172.357, 0.000976562, -0.000976562, -0.000976562, 0.0693359, 0.361328, -9.72656, 1.25.2022 18:33:6.308
637, 2.17294, 359.574, 172.357, 0, -0.000976562, -0.000976562, 0.0439453, 0.381836, -9.68164, 1.25.2022 18:33:6.316
638, 2.17294, 359.574, 172.357, 0, -0.000976562, -0.000976562, 0.113281, 0.361328, -9.70898, 1.25.2022 18:33:6.324
639, 2.17294, 359.574, 172.357, -0.00195312, -0.000976562, -0.000976562, 0.0361328, 0.364258, -9.72168, 1.25.2022 18:33:6.332
640, 2.17294, 359.574, 172.357, 0, -0.000976562, -0.000976562, 0.0654297, 0.367188, -9.68164, 1.25.2022 18:33:6.340
641, 2.17294, 359.574, 172.357, 0, -0.000976562, -0.000976562, 0.0751953, 0.368164, -9.70996, 1.25.2022 18:33:6.348
642, 2.1734, 359.581, 172.356, 0, -0.000976562, -0.000976562, -0.00390625, 0.385742, -9.71582, 1.25.2022 18:33:6.356
643, 2.1734, 359.581, 172.356, 0, 0, -0.000976562, 0.115234, 0.358398, -9.70215, 1.25.2022 18:33:6.364
644, 2.16643, 359.582, 172.356, 0, -0.000976562, -0.000976562, 0.0556641, 0.342773, -9.72461, 1.25.2022 18:33:6.372
645, 2.16643, 359.582, 172.356, 0, -0.000976562, -0.000976562, 0.0556641, 0.37793, -9.71484, 1.25.2022 18:33:6.380
646, 2.16643, 359.582, 172.356, 0, -0.000976562, -0.000976562, 0.100586, 0.334961, -9.72559, 1.25.2022 18:33:6.388
647, 2.16643, 359.582, 172.356, 0, -0.000976562, -0.000976562, 0.0244141, 0.402344, -9.7207, 1.25.2022 18:33:6.396
648, 2.1669, 359.589, 172.356, 0, -0.000976562, -0.000976562, 0.0751953, 0.382812, -9.70996, 1.25.2022 18:33:6.404
649, 2.1669, 359.589, 172.356, 0, 0, 0.000976562, 0.0908203, 0.362305, -9.73242, 1.25.2022 18:33:6.412
650, 2.1669, 359.589, 172.356, 0, -0.00195312, -0.000976562, 0.0292969, 0.382812, -9.72363, 1.25.2022 18:33:6.420
651, 2.1669, 359.589, 172.356, 0, -0.000976562, -0.000976562, 0.0869141, 0.356445, -9.7041, 1.25.2022 18:33:6.428
652, 2.1669, 359.589, 172.356, -0.000976562, -0.000976562, -0.000976562, 0.0556641, 0.373047, -9.70996, 1.25.2022 18:33:6.436
653, 2.1669, 359.589, 172.356, 0, -0.000976562, -0.000976562, 0.0292969, 0.375977, -9.71387, 1.25.2022 18:33:6.444
654, 2.16736, 359.596, 172.356, -0.000976562, -0.000976562, -0.000976562, 0.120117, 0.359375, -9.73535, 1.25.2022 18:33:6.452
655, 2.16736, 359.596, 172.356, 0, -0.000976562, -0.000976562, 0.0175781, 0.394531, -9.6875, 1.25.2022 18:33:6.460
656, 2.16736, 359.596, 172.356, -0.000976562, -0.000976562, -0.000976562, 0.0605469, 0.382812, -9.71875, 1.25.2022 18:33:6.468
657, 2.16736, 359.596, 172.356, 0, -0.000976562, -0.000976562, 0.0537109, 0.342773, -9.66309, 1.25.2022 18:33:6.476
658, 2.16736, 359.596, 172.356, 0, -0.000976562, -0.000976562, 0.0273438, 0.382812, -9.71387, 1.25.2022 18:33:6.484
659, 2.1748, 359.602, 172.356, -0.000976562, -0.000976562, 0.000976562, 0.129883, 0.373047, -9.7041, 1.25.2022 18:33:6.492
660, 2.1748, 359.602, 172.356, 0, -0.000976562, -0.000976562, 0.0820312, 0.384766, -9.70508, 1.25.2022 18:33:6.500
661, 2.1748, 359.602, 172.356, 0, -0.000976562, -0.000976562, 0.0439453, 0.384766, -9.7002, 1.25.2022 18:33:6.508
662, 2.1748, 359.602, 172.356, -0.000976562, -0.000976562, -0.000976562, 0.107422, 0.364258, -9.74219, 1.25.2022 18:33:6.516
663, 2.1748, 359.602, 172.356, 0, -0.000976562, -0.000976562, 0.0195312, 0.362305, -9.73535, 1.25.2022 18:33:6.524
664, 2.1748, 359.602, 172.356, 0, -0.000976562, -0.000976562, 0.100586, 0.344727, -9.72754, 1.25.2022 18:33:6.532
665, 2.1748, 359.602, 172.356, 0, -0.000976562, -0.000976562, 0.120117, 0.356445, -9.70215, 1.25.2022 18:33:6.540
666, 2.1748, 359.602, 172.356, 0, -0.000976562, 0, 0.0458984, 0.400391, -9.74023, 1.25.2022 18:33:6.548
667, 2.1748, 359.602, 172.356, 0, -0.000976562, -0.000976562, 0.108398, 0.379883, -9.68945, 1.25.2022 18:33:6.556
668, 2.1748, 359.602, 172.356, 0, -0.000976562, -0.00195312, 0.0605469, 0.374023, -9.72168, 1.25.2022 18:33:6.564
669, 2.18178, 359.602, 172.356, -0.000976562, -0.000976562, -0.000976562, 0.0722656, 0.396484, -9.69824, 1.25.2022 18:33:6.572
670, 2.18178, 359.602, 172.356, 0, -0.000976562, -0.000976562, 0.120117, 0.339844, -9.71875, 1.25.2022 18:33:6.580
671, 2.18178, 359.602, 172.356, 0.000976562, -0.00195312, 0, 0.0419922, 0.370117, -9.69531, 1.25.2022 18:33:6.588
672, 2.18131, 359.595, 172.356, 0.000976562, -0.000976562, -0.000976562, 0.0722656, 0.384766, -9.69531, 1.25.2022 18:33:6.596
673, 2.18131, 359.595, 172.356, 0, 0, -0.000976562, 0.0664062, 0.37207, -9.66992, 1.25.2022 18:33:6.604
674, 2.18131, 359.595, 172.356, 0, -0.000976562, -0.000976562, -0.00195312, 0.388672, -9.72754, 1.25.2022 18:33:6.612
675, 2.18131, 359.595, 172.356, 0, 0, -0.000976562, 0.0986328, 0.355469, -9.6875, 1.25.2022 18:33:6.620
676, 2.18131, 359.595, 172.356, 0, 0, -0.00195312, 0.0771484, 0.379883, -9.68848, 1.25.2022 18:33:6.628
677, 2.18131, 359.595, 172.356, 0, 0, -0.000976562, 0.0654297, 0.358398, -9.69434, 1.25.2022 18:33:6.636
678, 2.18131, 359.595, 172.356, -0.000976562, 0.000976562, -0.000976562, 0.135742, 0.376953, -9.76074, 1.25.2022 18:33:6.644
679, 2.18828, 359.594, 172.356, 0, 0.000976562, -0.000976562, 0.0224609, 0.385742, -9.71191, 1.25.2022 18:33:6.652
680, 2.18782, 359.587, 172.356, 0, 0.000976562, -0.000976562, 0.0957031, 0.349609, -9.7373, 1.25.2022 18:33:6.660
681, 2.18782, 359.587, 172.356, 0, 0, -0.000976562, 0.0830078, 0.365234, -9.6709, 1.25.2022 18:33:6.668
682, 2.18782, 359.587, 172.356, 0, -0.000976562, 0, 0.00878906, 0.391602, -9.69727, 1.25.2022 18:33:6.676
683, 2.18782, 359.587, 172.356, 0, -0.000976562, 0, 0.110352, 0.347656, -9.74902, 1.25.2022 18:33:6.684
684, 2.18782, 359.587, 172.356, 0, -0.000976562, 0, 0.0517578, 0.348633, -9.68262, 1.25.2022 18:33:6.692
685, 2.18782, 359.587, 172.356, -0.000976562, 0, -0.000976562, 0.0605469, 0.386719, -9.69824, 1.25.2022 18:33:6.700
686, 2.18782, 359.587, 172.356, 0, -0.00195312, -0.000976562, 0.115234, 0.351562, -9.72363, 1.25.2022 18:33:6.708
687, 2.18782, 359.587, 172.356, 0, 0, -0.000976562, 0.000976562, 0.392578, -9.71582, 1.25.2022 18:33:6.716
688, 2.18782, 359.587, 172.356, 0, 0, -0.000976562, 0.100586, 0.354492, -9.73242, 1.25.2022 18:33:6.724
689, 2.18782, 359.587, 172.356, 0, 0.000976562, -0.000976562, 0.09375, 0.352539, -9.73047, 1.25.2022 18:33:6.732
690, 2.18782, 359.587, 172.356, -0.000976562, 0, -0.000976562, 0.0517578, 0.40332, -9.6875, 1.25.2022 18:33:6.740
691, 2.18782, 359.587, 172.356, -0.000976562, -0.00195312, 0, 0.123047, 0.351562, -9.69727, 1.25.2022 18:33:6.748
692, 2.18782, 359.587, 172.356, 0, -0.00195312, -0.000976562, 0.0703125, 0.379883, -9.7002, 1.25.2022 18:33:6.756
693, 2.18782, 359.587, 172.356, 0.000976562, -0.000976562, -0.000976562, 0.0556641, 0.392578, -9.71191, 1.25.2022 18:33:6.764
694, 2.18735, 359.58, 172.357, -0.000976562, 0, -0.000976562, 0.128906, 0.362305, -9.7373, 1.25.2022 18:33:6.772
695, 2.18735, 359.58, 172.357, 0, 0, -0.00195312, 0.0185547, 0.360352, -9.68164, 1.25.2022 18:33:6.780
696, 2.18735, 359.58, 172.357, 0, 0, -0.000976562, 0.0888672, 0.382812, -9.72461, 1.25.2022 18:33:6.788
697, 2.18735, 359.58, 172.357, 0.000976562, -0.00195312, 0, 0.108398, 0.349609, -9.71875, 1.25.2022 18:33:6.796
698, 2.18735, 359.58, 172.357, 0, 0, -0.000976562, 0.0527344, 0.360352, -9.75, 1.25.2022 18:33:6.804
699, 2.18735, 359.58, 172.357, 0, 0, -0.000976562, 0.118164, 0.34668, -9.69727, 1.25.2022 18:33:6.812
700, 2.18688, 359.573, 172.357, 0, 0, -0.000976562, 0.0703125, 0.365234, -9.67773, 1.25.2022 18:33:6.820
701, 2.18688, 359.573, 172.357, 0, 0, -0.000976562, 0.0556641, 0.371094, -9.71484, 1.25.2022 18:33:6.828
702, 2.18688, 359.573, 172.357, 0, -0.000976562, 0, 0.0839844, 0.337891, -9.71875, 1.25.2022 18:33:6.836
703, 2.18688, 359.573, 172.357, 0, 0, -0.000976562, 0.0224609, 0.390625, -9.72559, 1.25.2022 18:33:6.844
704, 2.18688, 359.573, 172.357, 0, -0.000976562, 0, 0.0810547, 0.375977, -9.74121, 1.25.2022 18:33:6.852
705, 2.18688, 359.573, 172.357, 0, 0, -0.000976562, 0.0839844, 0.353516, -9.7041, 1.25.2022 18:33:6.858
706, 2.18688, 359.573, 172.357, -0.000976562, 0, -0.000976562, 0.0166016, 0.395508, -9.74219, 1.25.2022 18:33:6.866
707, 2.18688, 359.573, 172.357, 0, 0, -0.000976562, 0.100586, 0.358398, -9.71094, 1.25.2022 18:33:6.876
708, 2.17991, 359.574, 172.357, 0, 0, -0.000976562, 0.0410156, 0.361328, -9.72461, 1.25.2022 18:33:6.882
709, 2.17991, 359.574, 172.357, 0, 0, -0.000976562, 0.0722656, 0.365234, -9.69824, 1.25.2022 18:33:6.890
710, 2.17991, 359.574, 172.357, 0, 0, -0.000976562, 0.121094, 0.352539, -9.66895, 1.25.2022 18:33:6.898
711, 2.17991, 359.574, 172.357, 0, 0, -0.000976562, 0.0253906, 0.373047, -9.69531, 1.25.2022 18:33:6.906
712, 2.17991, 359.574, 172.357, -0.000976562, 0, -0.000976562, 0.0673828, 0.349609, -9.71094, 1.25.2022 18:33:6.914
713, 2.17991, 359.574, 172.357, 0, 0, -0.000976562, 0.0742188, 0.382812, -9.72168, 1.25.2022 18:33:6.922
714, 2.17991, 359.574, 172.357, 0, 0.000976562, -0.000976562, 0.0302734, 0.416016, -9.69141, 1.25.2022 18:33:6.930
715, 2.17991, 359.574, 172.357, 0, 0, -0.000976562, 0.0917969, 0.351562, -9.69238, 1.25.2022 18:33:6.938
716, 2.17991, 359.574, 172.357, 0, -0.00195312, -0.000976562, 0.0507812, 0.378906, -9.74512, 1.25.2022 18:33:6.946
717, 2.17991, 359.574, 172.357, 0, -0.000976562, 0, 0.0273438, 0.37793, -9.69531, 1.25.2022 18:33:6.954
718, 2.17991, 359.574, 172.357, 0, 0, -0.000976562, 0.101562, 0.345703, -9.68555, 1.25.2022 18:33:6.962
719, 2.17991, 359.574, 172.357, -0.000976562, 0.000976562, -0.000976562, 0.0205078, 0.394531, -9.70215, 1.25.2022 18:33:6.970
720, 2.17991, 359.574, 172.357, 0, -0.000976562, 0, 0.0722656, 0.37793, -9.71289, 1.25.2022 18:33:6.978
721, 2.18038, 359.581, 172.356, 0, 0, -0.000976562, 0.09375, 0.34668, -9.71875, 1.25.2022 18:33:6.986
722, 2.18038, 359.581, 172.356, 0, 0, -0.000976562, 0.0224609, 0.385742, -9.71875, 1.25.2022 18:33:6.994
723, 2.18038, 359.581, 172.356, -0.000976562, 0, -0.000976562, 0.134766, 0.380859, -9.71777, 1.25.2022 18:33:7.002
724, 2.18038, 359.581, 172.356, 0, 0, -0.000976562, 0.0654297, 0.375977, -9.72168, 1.25.2022 18:33:7.010
725, 2.18038, 359.581, 172.356, -0.000976562, 0, -0.000976562, 0.0380859, 0.396484, -9.76367, 1.25.2022 18:33:7.018
726, 2.18735, 359.58, 172.357, 0, 0, -0.000976562, 0.105469, 0.37207, -9.74902, 1.25.2022 18:33:7.026
727, 2.18782, 359.587, 172.356, -0.000976562, 0, -0.000976562, 0.00976562, 0.389648, -9.77734, 1.25.2022 18:33:7.034
728, 2.18782, 359.587, 172.356, 0, 0, -0.000976562, 0.0957031, 0.381836, -9.75488, 1.25.2022 18:33:7.042
729, 2.18782, 359.587, 172.356, 0.000976562, -0.000976562, -0.000976562, 0.0576172, 0.333008, -9.73926, 1.25.2022 18:33:7.050
730, 2.18782, 359.587, 172.356, 0, 0, -0.000976562, 0.0175781, 0.404297, -9.69629, 1.25.2022 18:33:7.058
731, 2.18782, 359.587, 172.356, 0, 0.000976562, -0.000976562, 0.117188, 0.34668, -9.71387, 1.25.2022 18:33:7.066
732, 2.18782, 359.587, 172.356, 0.000976562, -0.000976562, -0.000976562, 0.0390625, 0.367188, -9.73633, 1.25.2022 18:33:7.074
733, 2.18782, 359.587, 172.356, 0.000976562, -0.000976562, -0.000976562, 0.0693359, 0.381836, -9.74512, 1.25.2022 18:33:7.082
734, 2.18782, 359.587, 172.356, 0, 0, -0.000976562, 0.117188, 0.328125, -9.72656, 1.25.2022 18:33:7.090
735, 2.18782, 359.587, 172.356, 0, 0, -0.000976562, 0.0263672, 0.371094, -9.73047, 1.25.2022 18:33:7.098
736, 2.18828, 359.594, 172.356, 0, 0.000976562, -0.000976562, 0.0820312, 0.355469, -9.6875, 1.25.2022 18:33:7.106
737, 2.18828, 359.594, 172.356, 0, 0.000976562, -0.000976562, 0.0673828, 0.366211, -9.71289, 1.25.2022 18:33:7.114
738, 2.18828, 359.594, 172.356, -0.000976562, 0.000976562, -0.000976562, 0.0322266, 0.387695, -9.7041, 1.25.2022 18:33:7.122
739, 2.18828, 359.594, 172.356, 0, -0.00195312, -0.000976562, 0.101562, 0.350586, -9.67578, 1.25.2022 18:33:7.130
740, 2.18828, 359.594, 172.356, 0, -0.000976562, -0.000976562, 0.0537109, 0.396484, -9.69238, 1.25.2022 18:33:7.138
741, 2.18828, 359.594, 172.356, 0.000976562, -0.000976562, -0.000976562, 0.0400391, 0.360352, -9.67676, 1.25.2022 18:33:7.146
742, 2.18828, 359.594, 172.356, 0.000976562, -0.000976562, -0.000976562, 0.110352, 0.354492, -9.74414, 1.25.2022 18:33:7.154
743, 2.18828, 359.594, 172.356, 0, -0.000976562, -0.000976562, 0.0458984, 0.374023, -9.74023, 1.25.2022 18:33:7.162
744, 2.18828, 359.594, 172.356, 0, -0.00195312, -0.000976562, 0.111328, 0.352539, -9.67383, 1.25.2022 18:33:7.170
745, 2.18828, 359.594, 172.356, 0, -0.000976562, -0.000976562, 0.0869141, 0.356445, -9.70898, 1.25.2022 18:33:7.178
746, 2.18828, 359.594, 172.356, 0, -0.000976562, -0.000976562, 0.0410156, 0.387695, -9.71387, 1.25.2022 18:33:7.186
747, 2.18131, 359.595, 172.356, 0, -0.000976562, -0.000976562, 0.123047, 0.345703, -9.68555, 1.25.2022 18:33:7.194
748, 2.18131, 359.595, 172.356, 0, -0.000976562, -0.00195312, 0.0576172, 0.361328, -9.72168, 1.25.2022 18:33:7.202
749, 2.18131, 359.595, 172.356, 0.000976562, 0, -0.000976562, 0.0341797, 0.359375, -9.7168, 1.25.2022 18:33:7.210
750, 2.18131, 359.595, 172.356, 0, 0.00195312, 0, 0.0869141, 0.369141, -9.72461, 1.25.2022 18:33:7.218
751, 2.18131, 359.595, 172.356, -0.000976562, 0, -0.000976562, 0.0419922, 0.384766, -9.70215, 1.25.2022 18:33:7.226
752, 2.18084, 359.588, 172.356, 0, -0.000976562, -0.000976562, 0.0966797, 0.341797, -9.69727, 1.25.2022 18:33:7.234
753, 2.18084, 359.588, 172.356, 0, -0.000976562, -0.000976562, 0.0595703, 0.369141, -9.74316, 1.25.2022 18:33:7.242
754, 2.18084, 359.588, 172.356, 0, -0.000976562, -0.000976562, 0.0244141, 0.415039, -9.74414, 1.25.2022 18:33:7.250
755, 2.18084, 359.588, 172.356, 0, -0.000976562, -0.000976562, 0.138672, 0.367188, -9.76855, 1.25.2022 18:33:7.258
756, 2.18084, 359.588, 172.356, 0, -0.000976562, -0.000976562, 0.0537109, 0.392578, -9.70508, 1.25.2022 18:33:7.266
757, 2.18084, 359.588, 172.356, 0, -0.000976562, -0.000976562, 0.0478516, 0.383789, -9.73047, 1.25.2022 18:33:7.274
758, 2.18084, 359.588, 172.356, 0, -0.000976562, 0.000976562, 0.0927734, 0.360352, -9.75586, 1.25.2022 18:33:7.282
759, 2.18084, 359.588, 172.356, 0, 0, -0.000976562, 0.0263672, 0.371094, -9.72656, 1.25.2022 18:33:7.290
760, 2.18084, 359.588, 172.356, 0, -0.000976562, -0.000976562, 0.103516, 0.368164, -9.71582, 1.25.2022 18:33:7.298
761, 2.18084, 359.588, 172.356, 0, -0.000976562, -0.00195312, 0.0878906, 0.34375, -9.76758, 1.25.2022 18:33:7.306
762, 2.18084, 359.588, 172.356, 0, -0.000976562, -0.000976562, 0.0390625, 0.360352, -9.68652, 1.25.2022 18:33:7.314
763, 2.18084, 359.588, 172.356, 0.000976562, -0.000976562, -0.000976562, 0.126953, 0.358398, -9.69922, 1.25.2022 18:33:7.322
764, 2.18084, 359.588, 172.356, 0, -0.000976562, -0.000976562, 0.0507812, 0.395508, -9.72363, 1.25.2022 18:33:7.330
765, 2.18084, 359.588, 172.356, -0.000976562, -0.000976562, -0.000976562, 0.0869141, 0.379883, -9.69141, 1.25.2022 18:33:7.338
766, 2.18084, 359.588, 172.356, -0.000976562, 0, -0.000976562, 0.112305, 0.362305, -9.75586, 1.25.2022 18:33:7.346
767, 2.18084, 359.588, 172.356, 0, 0, -0.000976562, 0.0205078, 0.391602, -9.6875, 1.25.2022 18:33:7.354
768, 2.18038, 359.581, 172.356, 0, -0.000976562, -0.000976562, 0.0869141, 0.356445, -9.70117, 1.25.2022 18:33:7.362
769, 2.18038, 359.581, 172.356, 0, -0.000976562, -0.000976562, 0.0585938, 0.356445, -9.70605, 1.25.2022 18:33:7.370
770, 2.18038, 359.581, 172.356, 0, -0.000976562, -0.000976562, 0.0224609, 0.40332, -9.68945, 1.25.2022 18:33:7.378
771, 2.18038, 359.581, 172.356, -0.000976562, -0.000976562, 0.000976562, 0.115234, 0.369141, -9.73438, 1.25.2022 18:33:7.386
772, 2.18038, 359.581, 172.356, -0.000976562, -0.000976562, -0.000976562, 0.0478516, 0.407227, -9.73242, 1.25.2022 18:33:7.394
773, 2.18038, 359.581, 172.356, -0.000976562, -0.000976562, 0.000976562, 0.0839844, 0.383789, -9.73145, 1.25.2022 18:33:7.402
774, 2.18735, 359.58, 172.357, -0.000976562, -0.000976562, -0.000976562, 0.101562, 0.336914, -9.7002, 1.25.2022 18:33:7.410
775, 2.18735, 359.58, 172.357, -0.000976562, 0, 0, 0.0175781, 0.396484, -9.69922, 1.25.2022 18:33:7.418
776, 2.18735, 359.58, 172.357, -0.000976562, 0, 0, 0.103516, 0.375977, -9.71094, 1.25.2022 18:33:7.426
777, 2.18735, 359.58, 172.357, -0.000976562, -0.000976562, -0.000976562, 0.0722656, 0.353516, -9.69141, 1.25.2022 18:33:7.434
778, 2.18735, 359.58, 172.357, -0.000976562, -0.000976562, -0.000976562, 0.0224609, 0.392578, -9.72754, 1.25.2022 18:33:7.442
779, 2.18735, 359.58, 172.357, -0.000976562, 0, 0, 0.129883, 0.373047, -9.71094, 1.25.2022 18:33:7.450
780, 2.18735, 359.58, 172.357, -0.000976562, -0.000976562, -0.000976562, 0.0585938, 0.376953, -9.6748, 1.25.2022 18:33:7.458
781, 2.19432, 359.58, 172.357, 0.000976562, -0.000976562, -0.00195312, 0.0410156, 0.374023, -9.73145, 1.25.2022 18:33:7.466
782, 2.19432, 359.58, 172.357, -0.000976562, 0, 0, 0.0869141, 0.338867, -9.68262, 1.25.2022 18:33:7.474
783, 2.19432, 359.58, 172.357, -0.00195312, -0.000976562, 0, 0.0244141, 0.382812, -9.7041, 1.25.2022 18:33:7.482
784, 2.19432, 359.58, 172.357, -0.000976562, -0.000976562, -0.000976562, 0.107422, 0.329102, -9.74512, 1.25.2022 18:33:7.490
785, 2.19432, 359.58, 172.357, 0.000976562, -0.000976562, 0.000976562, 0.0605469, 0.358398, -9.68945, 1.25.2022 18:33:7.498
786, 2.19432, 359.58, 172.357, -0.000976562, -0.000976562, -0.000976562, 0.0439453, 0.357422, -9.72656, 1.25.2022 18:33:7.506
787, 2.19432, 359.58, 172.357, -0.000976562, -0.000976562, -0.000976562, 0.126953, 0.348633, -9.70898, 1.25.2022 18:33:7.514
788, 2.19432, 359.58, 172.357, -0.000976562, -0.00195312, -0.000976562, 0.0195312, 0.364258, -9.72656, 1.25.2022 18:33:7.522
789, 2.18735, 359.58, 172.357, -0.000976562, -0.000976562, -0.00195312, 0.0654297, 0.365234, -9.68945, 1.25.2022 18:33:7.530
790, 2.18735, 359.58, 172.357, -0.000976562, -0.000976562, -0.00195312, 0.0957031, 0.357422, -9.72949, 1.25.2022 18:33:7.538
791, 2.18735, 359.58, 172.357, -0.000976562, -0.000976562, -0.000976562, 0.0341797, 0.356445, -9.7168, 1.25.2022 18:33:7.546
792, 2.18735, 359.58, 172.357, -0.000976562, -0.000976562, -0.000976562, 0.0869141, 0.341797, -9.69727, 1.25.2022 18:33:7.554
793, 2.18735, 359.58, 172.357, -0.000976562, -0.000976562, 0.000976562, 0.0644531, 0.354492, -9.73145, 1.25.2022 18:33:7.562
794, 2.18735, 359.58, 172.357, -0.000976562, -0.00195312, -0.000976562, 0.0273438, 0.363281, -9.71191, 1.25.2022 18:33:7.570
795, 2.18084, 359.588, 172.356, 0.000976562, -0.000976562, -0.000976562, 0.100586, 0.336914, -9.71191, 1.25.2022 18:33:7.578
796, 2.18084, 359.588, 172.356, -0.000976562, 0, 0, 0.0585938, 0.363281, -9.69336, 1.25.2022 18:33:7.586
797, 2.18084, 359.588, 172.356, -0.000976562, -0.000976562, -0.000976562, 0.0742188, 0.371094, -9.72461, 1.25.2022 18:33:7.594
798, 2.17387, 359.588, 172.356, -0.000976562, -0.000976562, -0.000976562, 0.09375, 0.367188, -9.73926, 1.25.2022 18:33:7.602
799, 2.17387, 359.588, 172.356, -0.00195312, -0.000976562, 0, 0.0175781, 0.366211, -9.71191, 1.25.2022 18:33:7.610
800, 2.17387, 359.588, 172.356, -0.00195312, 0, 0, 0.115234, 0.364258, -9.73926, 1.25.2022 18:33:7.618
801, 2.17387, 359.588, 172.356, -0.00195312, -0.000976562, 0.000976562, 0.0791016, 0.366211, -9.72461, 1.25.2022 18:33:7.626
802, 2.17387, 359.588, 172.356, -0.000976562, 0, 0, 0.0673828, 0.404297, -9.72559, 1.25.2022 18:33:7.634
803, 2.17387, 359.588, 172.356, 0, 0, -0.000976562, 0.12207, 0.362305, -9.73535, 1.25.2022 18:33:7.642
804, 2.16643, 359.582, 172.356, 0.000976562, -0.000976562, -0.000976562, 0.0361328, 0.366211, -9.72363, 1.25.2022 18:33:7.650
805, 2.16643, 359.582, 172.356, 0.000976562, 0, -0.000976562, 0.0820312, 0.380859, -9.72656, 1.25.2022 18:33:7.658
806, 2.16643, 359.582, 172.356, 0, -0.000976562, -0.00195312, 0.100586, 0.354492, -9.71094, 1.25.2022 18:33:7.666
807, 2.16643, 359.582, 172.356, 0, -0.000976562, -0.000976562, 0.0244141, 0.379883, -9.7041, 1.25.2022 18:33:7.674
808, 2.16643, 359.582, 172.356, 0, -0.000976562, -0.000976562, 0.120117, 0.351562, -9.70703, 1.25.2022 18:33:7.682
809, 2.16643, 359.582, 172.356, 0, -0.000976562, -0.000976562, 0.0927734, 0.342773, -9.74902, 1.25.2022 18:33:7.690
810, 2.16643, 359.582, 172.356, 0, -0.000976562, -0.000976562, 0.0605469, 0.375, -9.68848, 1.25.2022 18:33:7.698
811, 2.16643, 359.582, 172.356, 0, -0.000976562, -0.00195312, 0.125, 0.336914, -9.69336, 1.25.2022 18:33:7.706
812, 2.16597, 359.575, 172.357, 0.000976562, -0.000976562, -0.000976562, 0.0410156, 0.366211, -9.71484, 1.25.2022 18:33:7.714
813, 2.16597, 359.575, 172.357, 0, -0.000976562, 0.000976562, 0.0830078, 0.386719, -9.67969, 1.25.2022 18:33:7.722
814, 2.16597, 359.575, 172.357, 0, -0.00195312, -0.000976562, 0.0791016, 0.351562, -9.71094, 1.25.2022 18:33:7.730
815, 2.16597, 359.575, 172.357, 0, -0.000976562, -0.000976562, 0.0292969, 0.392578, -9.71094, 1.25.2022 18:33:7.738
816, 2.16597, 359.575, 172.357, 0, -0.000976562, 0.000976562, 0.09375, 0.358398, -9.69434, 1.25.2022 18:33:7.746
817, 2.15899, 359.575, 172.357, 0, -0.00195312, -0.000976562, 0.0400391, 0.350586, -9.67773, 1.25.2022 18:33:7.754
818, 2.15899, 359.575, 172.357, 0, -0.000976562, -0.000976562, 0.0556641, 0.392578, -9.70898, 1.25.2022 18:33:7.762
819, 2.15899, 359.575, 172.357, 0, -0.000976562, 0.000976562, 0.125, 0.391602, -9.67969, 1.25.2022 18:33:7.770
820, 2.15899, 359.575, 172.357, 0.000976562, -0.000976562, -0.000976562, 0.0361328, 0.402344, -9.73242, 1.25.2022 18:33:7.778
821, 2.16597, 359.575, 172.357, 0, -0.00195312, -0.000976562, 0.0839844, 0.385742, -9.72461, 1.25.2022 18:33:7.786
822, 2.16597, 359.575, 172.357, 0, -0.000976562, -0.000976562, 0.0869141, 0.356445, -9.7207, 1.25.2022 18:33:7.794
823, 2.16597, 359.575, 172.357, 0, -0.000976562, -0.000976562, 0.03125, 0.374023, -9.73828, 1.25.2022 18:33:7.802
824, 2.16597, 359.575, 172.357, 0, 0, -0.000976562, 0.102539, 0.364258, -9.73438, 1.25.2022 18:33:7.810
825, 2.16597, 359.575, 172.357, 0, 0, -0.000976562, 0.0644531, 0.376953, -9.74805, 1.25.2022 18:33:7.818
826, 2.1655, 359.568, 172.357, 0, -0.000976562, -0.000976562, 0.0390625, 0.373047, -9.69336, 1.25.2022 18:33:7.826
827, 2.1655, 359.568, 172.357, 0, -0.000976562, -0.000976562, 0.142578, 0.347656, -9.66211, 1.25.2022 18:33:7.832
828, 2.17247, 359.567, 172.357, 0, 0, 0.000976562, 0.0488281, 0.344727, -9.70117, 1.25.2022 18:33:7.842
829, 2.17247, 359.567, 172.357, 0, -0.000976562, -0.000976562, 0.0957031, 0.387695, -9.71973, 1.25.2022 18:33:7.848
830, 2.17247, 359.567, 172.357, 0, 0, -0.000976562, 0.103516, 0.367188, -9.68262, 1.25.2022 18:33:7.856
831, 2.17247, 359.567, 172.357, 0, -0.000976562, -0.000976562, 0.0419922, 0.402344, -9.70898, 1.25.2022 18:33:7.864
832, 2.17247, 359.567, 172.357, 0, -0.000976562, -0.000976562, 0.129883, 0.370117, -9.68066, 1.25.2022 18:33:7.872
833, 2.17247, 359.567, 172.357, 0, -0.000976562, -0.00195312, 0.0654297, 0.349609, -9.71973, 1.25.2022 18:33:7.880
834, 2.17247, 359.567, 172.357, 0, -0.000976562, -0.00195312, 0.0703125, 0.366211, -9.70996, 1.25.2022 18:33:7.888
835, 2.17247, 359.567, 172.357, 0, -0.000976562, -0.00195312, 0.113281, 0.341797, -9.70703, 1.25.2022 18:33:7.896
836, 2.17201, 359.56, 172.357, -0.000976562, -0.00195312, -0.00195312, 0.0527344, 0.354492, -9.73438, 1.25.2022 18:33:7.904
837, 2.17201, 359.56, 172.357, -0.000976562, -0.000976562, 0.000976562, 0.0898438, 0.383789, -9.67285, 1.25.2022 18:33:7.912
838, 2.17201, 359.56, 172.357, 0, -0.00195312, -0.000976562, 0.126953, 0.368164, -9.71875, 1.25.2022 18:33:7.920
839, 2.17201, 359.56, 172.357, -0.000976562, 0.000976562, 0, 0.0371094, 0.384766, -9.70898, 1.25.2022 18:33:7.928
840, 2.17201, 359.56, 172.357, -0.000976562, 0.000976562, 0, 0.118164, 0.387695, -9.70312, 1.25.2022 18:33:7.936
841, 2.17851, 359.553, 172.357, -0.00195312, -0.000976562, 0, 0.0605469, 0.381836, -9.69336, 1.25.2022 18:33:7.944
842, 2.17851, 359.553, 172.357, -0.000976562, -0.000976562, 0.000976562, 0.0800781, 0.379883, -9.70801, 1.25.2022 18:33:7.952
843, 2.17851, 359.553, 172.357, -0.000976562, -0.000976562, 0, 0.134766, 0.355469, -9.67871, 1.25.2022 18:33:7.960
844, 2.17851, 359.553, 172.357, -0.000976562, -0.000976562, 0, 0.0224609, 0.37793, -9.7041, 1.25.2022 18:33:7.968
845, 2.17805, 359.546, 172.357, -0.000976562, -0.000976562, 0.000976562, 0.0791016, 0.373047, -9.71973, 1.25.2022 18:33:7.976
846, 2.17805, 359.546, 172.357, -0.000976562, 0.000976562, 0, 0.0839844, 0.370117, -9.75586, 1.25.2022 18:33:7.984
847, 2.17805, 359.546, 172.357, -0.000976562, -0.000976562, 0, 0.0410156, 0.378906, -9.73828, 1.25.2022 18:33:7.992
848, 2.18502, 359.546, 172.357, -0.00195312, -0.000976562, 0, 0.106445, 0.362305, -9.6709, 1.25.2022 18:33:8.000
849, 2.18502, 359.546, 172.357, -0.000976562, -0.000976562, 0, 0.0390625, 0.344727, -9.70117, 1.25.2022 18:33:8.008
850, 2.18502, 359.546, 172.357, -0.000976562, -0.000976562, 0.000976562, 0.0654297, 0.380859, -9.7168, 1.25.2022 18:33:8.016
851, 2.18502, 359.546, 172.357, -0.000976562, 0.000976562, 0, 0.12207, 0.368164, -9.71777, 1.25.2022 18:33:8.024
852, 2.18455, 359.539, 172.357, -0.000976562, 0.000976562, 0.000976562, 0.0195312, 0.388672, -9.73535, 1.25.2022 18:33:8.032
853, 2.18455, 359.539, 172.357, -0.000976562, -0.000976562, 0, 0.0820312, 0.390625, -9.72656, 1.25.2022 18:33:8.040
854, 2.18455, 359.539, 172.357, -0.000976562, 0.000976562, 0, 0.0771484, 0.364258, -9.72266, 1.25.2022 18:33:8.048
855, 2.18455, 359.539, 172.357, -0.00195312, -0.000976562, 0.000976562, 0.0175781, 0.380859, -9.71387, 1.25.2022 18:33:8.056
856, 2.18502, 359.546, 172.357, -0.00195312, -0.000976562, 0.000976562, 0.146484, 0.380859, -9.71875, 1.25.2022 18:33:8.064
857, 2.19194, 359.545, 172.35, -0.000976562, -0.000976562, 0.000976562, 0.0625, 0.395508, -9.75195, 1.25.2022 18:33:8.072
858, 2.19194, 359.545, 172.35, -0.00195312, -0.000976562, 0, 0.0458984, 0.395508, -9.7207, 1.25.2022 18:33:8.080
859, 2.19194, 359.545, 172.35, -0.000976562, 0.000976562, 0, 0.0966797, 0.353516, -9.69922, 1.25.2022 18:33:8.088
860, 2.19194, 359.545, 172.35, -0.000976562, -0.000976562, 0, 0.0371094, 0.387695, -9.70703, 1.25.2022 18:33:8.096
861, 2.19194, 359.545, 172.35, -0.00195312, -0.000976562, 0, 0.0898438, 0.396484, -9.69141, 1.25.2022 18:33:8.104
862, 2.19891, 359.544, 172.35, -0.000976562, -0.00195312, -0.000976562, 0.0820312, 0.358398, -9.69629, 1.25.2022 18:33:8.112
863, 2.19891, 359.544, 172.35, -0.000976562, -0.000976562, 0, 0.0332031, 0.385742, -9.66211, 1.25.2022 18:33:8.120
864, 2.19891, 359.544, 172.35, -0.000976562, -0.000976562, -0.00195312, 0.115234, 0.364258, -9.74414, 1.25.2022 18:33:8.128
865, 2.19896, 359.545, 172.357, 0, -0.00195312, -0.000976562, 0.0488281, 0.353516, -9.70117, 1.25.2022 18:33:8.136
866, 2.19943, 359.552, 172.357, -0.000976562, -0.00195312, -0.000976562, 0.0351562, 0.415039, -9.65918, 1.25.2022 18:33:8.144
867, 2.19943, 359.552, 172.357, 0, -0.00195312, -0.000976562, 0.110352, 0.369141, -9.7373, 1.25.2022 18:33:8.152
868, 2.2064, 359.551, 172.357, 0, -0.000976562, -0.000976562, 0.0224609, 0.394531, -9.71094, 1.25.2022 18:33:8.160
869, 2.2064, 359.551, 172.357, 0, -0.000976562, -0.000976562, 0.0634766, 0.375, -9.69336, 1.25.2022 18:33:8.168
870, 2.2064, 359.551, 172.357, 0, -0.000976562, -0.000976562, 0.110352, 0.342773, -9.7373, 1.25.2022 18:33:8.176
871, 2.20687, 359.558, 172.357, -0.000976562, 0.000976562, -0.000976562, 0.0439453, 0.410156, -9.73047, 1.25.2022 18:33:8.184
872, 2.20687, 359.558, 172.357, -0.000976562, -0.000976562, -0.000976562, 0.114258, 0.364258, -9.74609, 1.25.2022 18:33:8.192
873, 2.21384, 359.558, 172.357, -0.000976562, 0.000976562, -0.000976562, 0.078125, 0.383789, -9.67969, 1.25.2022 18:33:8.200
874, 2.21384, 359.558, 172.357, 0, -0.000976562, -0.000976562, 0.0527344, 0.395508, -9.74512, 1.25.2022 18:33:8.208
875, 2.21384, 359.558, 172.357, 0.000976562, 0.000976562, -0.000976562, 0.107422, 0.347656, -9.74023, 1.25.2022 18:33:8.216
876, 2.21384, 359.558, 172.357, 0, 0.000976562, -0.000976562, 0.0185547, 0.373047, -9.76855, 1.25.2022 18:33:8.224
877, 2.21384, 359.558, 172.357, 0, -0.000976562, -0.000976562, 0.113281, 0.361328, -9.71094, 1.25.2022 18:33:8.232
878, 2.21384, 359.558, 172.357, 0, -0.000976562, -0.000976562, 0.0839844, 0.359375, -9.73633, 1.25.2022 18:33:8.240
879, 2.21384, 359.558, 172.357, 0, -0.000976562, -0.000976562, 0.0234375, 0.385742, -9.66211, 1.25.2022 18:33:8.248
880, 2.21384, 359.558, 172.357, 0, -0.00195312, -0.000976562, 0.0869141, 0.356445, -9.72266, 1.25.2022 18:33:8.256
881, 2.21384, 359.558, 172.357, -0.000976562, 0.000976562, -0.000976562, 0.0478516, 0.378906, -9.72656, 1.25.2022 18:33:8.264
882, 2.21384, 359.558, 172.357, 0, -0.000976562, -0.000976562, 0.0527344, 0.365234, -9.74805, 1.25.2022 18:33:8.272
883, 2.21431, 359.565, 172.357, -0.000976562, -0.000976562, 0, 0.100586, 0.339844, -9.73242, 1.25.2022 18:33:8.280
884, 2.21431, 359.565, 172.357, -0.000976562, -0.000976562, -0.000976562, 0.0263672, 0.378906, -9.7373, 1.25.2022 18:33:8.288
885, 2.21431, 359.565, 172.357, 0, -0.000976562, -0.000976562, 0.0605469, 0.385742, -9.71875, 1.25.2022 18:33:8.296
886, 2.21431, 359.565, 172.357, 0, 0.000976562, -0.000976562, 0.0859375, 0.358398, -9.7627, 1.25.2022 18:33:8.304
887, 2.21431, 359.565, 172.357, 0, 0.000976562, -0.000976562, 0.0556641, 0.349609, -9.71973, 1.25.2022 18:33:8.312
888, 2.21431, 359.565, 172.357, 0, -0.000976562, 0, 0.129883, 0.351562, -9.70898, 1.25.2022 18:33:8.320
889, 2.20734, 359.565, 172.357, 0.000976562, -0.000976562, -0.000976562, 0.0771484, 0.362305, -9.73633, 1.25.2022 18:33:8.328
890, 2.20734, 359.565, 172.357, 0, -0.00195312, -0.000976562, 0.0527344, 0.364258, -9.73633, 1.25.2022 18:33:8.336
891, 2.20734, 359.565, 172.357, 0, -0.000976562, -0.00195312, 0.126953, 0.333008, -9.73145, 1.25.2022 18:33:8.344
892, 2.20734, 359.565, 172.357, 0, 0.000976562, -0.000976562, 0.0126953, 0.388672, -9.73926, 1.25.2022 18:33:8.352
893, 2.20036, 359.566, 172.357, 0, -0.000976562, -0.000976562, 0.0751953, 0.358398, -9.70605, 1.25.2022 18:33:8.360
894, 2.20036, 359.566, 172.357, 0, 0.000976562, -0.000976562, 0.0722656, 0.354492, -9.71777, 1.25.2022 18:33:8.368
895, 2.20036, 359.566, 172.357, 0, -0.000976562, -0.000976562, 0.0292969, 0.374023, -9.72559, 1.25.2022 18:33:8.376
896, 2.20036, 359.566, 172.357, 0, -0.000976562, 0, 0.0996094, 0.34082, -9.67383, 1.25.2022 18:33:8.384
897, 2.19386, 359.573, 172.357, 0, -0.00195312, 0, 0.0537109, 0.359375, -9.71484, 1.25.2022 18:33:8.392
898, 2.19386, 359.573, 172.357, 0, -0.00195312, -0.000976562, 0.0341797, 0.366211, -9.71973, 1.25.2022 18:33:8.400
899, 2.19386, 359.573, 172.357, -0.000976562, -0.000976562, -0.000976562, 0.0986328, 0.356445, -9.70605, 1.25.2022 18:33:8.408
900, 2.19386, 359.573, 172.357, 0, 0, -0.000976562, 0.03125, 0.380859, -9.7373, 1.25.2022 18:33:8.416
901, 2.18688, 359.573, 172.357, -0.000976562, -0.000976562, -0.000976562, 0.0839844, 0.361328, -9.71094, 1.25.2022 18:33:8.424
902, 2.18688, 359.573, 172.357, 0, -0.000976562, -0.00195312, 0.0888672, 0.356445, -9.69727, 1.25.2022 18:33:8.432
903, 2.18688, 359.573, 172.357, 0, -0.000976562, -0.000976562, 0.0361328, 0.378906, -9.74219, 1.25.2022 18:33:8.440
904, 2.18688, 359.573, 172.357, -0.000976562, -0.000976562, -0.000976562, 0.126953, 0.349609, -9.73047, 1.25.2022 18:33:8.448
905, 2.17991, 359.574, 172.357, 0, -0.000976562, -0.000976562, 0.0751953, 0.37793, -9.69336, 1.25.2022 18:33:8.456
906, 2.17991, 359.574, 172.357, -0.000976562, -0.000976562, -0.000976562, 0.0722656, 0.378906, -9.73145, 1.25.2022 18:33:8.464
907, 2.17991, 359.574, 172.357, 0, 0, -0.000976562, 0.117188, 0.359375, -9.73535, 1.25.2022 18:33:8.472
908, 2.17991, 359.574, 172.357, 0, -0.000976562, -0.000976562, 0.0146484, 0.374023, -9.7373, 1.25.2022 18:33:8.480
909, 2.17991, 359.574, 172.357, 0, -0.000976562, -0.000976562, 0.0742188, 0.380859, -9.74121, 1.25.2022 18:33:8.488
910, 2.17991, 359.574, 172.357, 0, -0.000976562, -0.000976562, 0.0722656, 0.369141, -9.73828, 1.25.2022 18:33:8.496
911, 2.17991, 359.574, 172.357, 0.000976562, -0.000976562, -0.000976562, 0.0175781, 0.400391, -9.72266, 1.25.2022 18:33:8.504
912, 2.17294, 359.574, 172.357, 0, -0.000976562, -0.000976562, 0.125, 0.365234, -9.7041, 1.25.2022 18:33:8.512
913, 2.1734, 359.581, 172.356, 0, -0.000976562, 0, 0.0390625, 0.359375, -9.70996, 1.25.2022 18:33:8.520
914, 2.1734, 359.581, 172.356, 0, 0, 0.000976562, 0.0439453, 0.383789, -9.67676, 1.25.2022 18:33:8.528
915, 2.1734, 359.581, 172.356, 0, -0.000976562, -0.000976562, 0.100586, 0.349609, -9.72559, 1.25.2022 18:33:8.536
916, 2.1734, 359.581, 172.356, 0, -0.000976562, -0.000976562, 0.0410156, 0.367188, -9.74805, 1.25.2022 18:33:8.544
917, 2.1734, 359.581, 172.356, 0, -0.000976562, -0.000976562, 0.0771484, 0.358398, -9.68945, 1.25.2022 18:33:8.552
918, 2.1734, 359.581, 172.356, 0, -0.000976562, 0, 0.0957031, 0.366211, -9.72266, 1.25.2022 18:33:8.560
919, 2.1734, 359.581, 172.356, 0, -0.000976562, 0, 0.03125, 0.37207, -9.73828, 1.25.2022 18:33:8.568
920, 2.1734, 359.581, 172.356, 0.000976562, -0.000976562, -0.000976562, 0.120117, 0.349609, -9.71387, 1.25.2022 18:33:8.576
921, 2.1734, 359.581, 172.356, 0, -0.000976562, -0.00195312, 0.0488281, 0.351562, -9.72266, 1.25.2022 18:33:8.584
922, 2.1734, 359.581, 172.356, 0, 0, -0.000976562, 0.0654297, 0.395508, -9.72168, 1.25.2022 18:33:8.592
923, 2.1734, 359.581, 172.356, -0.000976562, -0.000976562, -0.000976562, 0.100586, 0.354492, -9.73242, 1.25.2022 18:33:8.600
924, 2.1734, 359.581, 172.356, 0, -0.000976562, -0.000976562, 0.0273438, 0.366211, -9.70508, 1.25.2022 18:33:8.608
925, 2.1734, 359.581, 172.356, 0, -0.00195312, 0, 0.0917969, 0.358398, -9.71289, 1.25.2022 18:33:8.616
926, 2.1734, 359.581, 172.356, 0, -0.00195312, 0, 0.0673828, 0.344727, -9.73438, 1.25.2022 18:33:8.624
927, 2.1734, 359.581, 172.356, 0, -0.000976562, -0.000976562, 0.0175781, 0.389648, -9.69922, 1.25.2022 18:33:8.632
928, 2.1734, 359.581, 172.356, 0, -0.000976562, -0.000976562, 0.131836, 0.344727, -9.70996, 1.25.2022 18:33:8.640
929, 2.16643, 359.582, 172.356, 0.000976562, -0.000976562, -0.000976562, 0.0488281, 0.375977, -9.72168, 1.25.2022 18:33:8.648
930, 2.16643, 359.582, 172.356, 0, -0.000976562, 0, 0.0742188, 0.361328, -9.71777, 1.25.2022 18:33:8.656
931, 2.16643, 359.582, 172.356, -0.00195312, 0, 0, 0.121094, 0.357422, -9.65723, 1.25.2022 18:33:8.664
932, 2.16643, 359.582, 172.356, 0, -0.000976562, -0.000976562, 0.000976562, 0.387695, -9.7041, 1.25.2022 18:33:8.672
933, 2.16643, 359.582, 172.356, 0, -0.000976562, -0.000976562, 0.0986328, 0.365234, -9.69238, 1.25.2022 18:33:8.680
934, 2.16643, 359.582, 172.356, -0.00195312, -0.000976562, -0.000976562, 0.0771484, 0.361328, -9.70605, 1.25.2022 18:33:8.688
935, 2.16643, 359.582, 172.356, 0, 0, -0.000976562, 0.0390625, 0.37793, -9.71191, 1.25.2022 18:33:8.696
936, 2.16643, 359.582, 172.356, 0, 0, 0, 0.0966797, 0.360352, -9.69238, 1.25.2022 18:33:8.704
937, 2.16643, 359.582, 172.356, 0, -0.000976562, -0.000976562, 0.0556641, 0.366211, -9.70801, 1.25.2022 18:33:8.712
938, 2.16643, 359.582, 172.356, 0, -0.000976562, -0.00195312, 0.0800781, 0.363281, -9.69141, 1.25.2022 18:33:8.720
939, 2.16643, 359.582, 172.356, 0, 0, -0.000976562, 0.100586, 0.350586, -9.74707, 1.25.2022 18:33:8.728
940, 2.16643, 359.582, 172.356, -0.00195312, -0.000976562, -0.000976562, 0.0273438, 0.384766, -9.70703, 1.25.2022 18:33:8.736
941, 2.16643, 359.582, 172.356, 0, -0.000976562, -0.000976562, 0.100586, 0.336914, -9.70703, 1.25.2022 18:33:8.744
942, 2.16643, 359.582, 172.356, 0, -0.000976562, -0.00195312, 0.0625, 0.362305, -9.73633, 1.25.2022 18:33:8.752
943, 2.16643, 359.582, 172.356, 0, 0, -0.000976562, 0.0488281, 0.373047, -9.7002, 1.25.2022 18:33:8.760
944, 2.16643, 359.582, 172.356, -0.00195312, -0.000976562, -0.000976562, 0.125, 0.356445, -9.7041, 1.25.2022 18:33:8.768
945, 2.16643, 359.582, 172.356, 0, -0.000976562, -0.000976562, 0.0224609, 0.361328, -9.70703, 1.25.2022 18:33:8.776
946, 2.16643, 359.582, 172.356, 0, -0.000976562, -0.000976562, 0.0634766, 0.373047, -9.7002, 1.25.2022 18:33:8.784
947, 2.16643, 359.582, 172.356, 0, 0.000976562, -0.00195312, 0.143555, 0.353516, -9.70508, 1.25.2022 18:33:8.792
948, 2.16643, 359.582, 172.356, 0, 0.000976562, -0.00195312, 0.0146484, 0.395508, -9.71777, 1.25.2022 18:33:8.800
949, 2.16597, 359.575, 172.357, 0.000976562, 0, -0.000976562, 0.09375, 0.34668, -9.7207, 1.25.2022 18:33:8.806
950, 2.16597, 359.575, 172.357, 0, -0.000976562, 0, 0.0800781, 0.348633, -9.68945, 1.25.2022 18:33:8.814
951, 2.15899, 359.575, 172.357, 0.000976562, -0.000976562, 0, 0.0507812, 0.371094, -9.72852, 1.25.2022 18:33:8.822
952, 2.15899, 359.575, 172.357, -0.00195312, -0.000976562, -0.000976562, 0.135742, 0.367188, -9.76074, 1.25.2022 18:33:8.830
953, 2.15899, 359.575, 172.357, 0, -0.000976562, -0.000976562, 0.0439453, 0.387695, -9.70898, 1.25.2022 18:33:8.838
954, 2.15899, 359.575, 172.357, 0, 0, -0.000976562, 0.0986328, 0.384766, -9.71484, 1.25.2022 18:33:8.846
955, 2.15899, 359.575, 172.357, 0, -0.000976562, -0.000976562, 0.119141, 0.335938, -9.73828, 1.25.2022 18:33:8.854
956, 2.15899, 359.575, 172.357, 0, 0, -0.000976562, 0.0273438, 0.37793, -9.71191, 1.25.2022 18:33:8.862
957, 2.15853, 359.568, 172.357, 0, 0, -0.000976562, 0.0703125, 0.354492, -9.71289, 1.25.2022 18:33:8.870
958, 2.15853, 359.568, 172.357, 0, -0.000976562, -0.000976562, 0.0791016, 0.363281, -9.71484, 1.25.2022 18:33:8.878
959, 2.15853, 359.568, 172.357, 0, -0.000976562, -0.000976562, 0.0273438, 0.375977, -9.71875, 1.25.2022 18:33:8.886
960, 2.15853, 359.568, 172.357, 0, -0.000976562, -0.000976562, 0.151367, 0.363281, -9.71875, 1.25.2022 18:33:8.894
961, 2.15853, 359.568, 172.357, 0, -0.000976562, 0, 0.0205078, 0.373047, -9.69238, 1.25.2022 18:33:8.902
962, 2.15853, 359.568, 172.357, 0, -0.000976562, 0, 0.0605469, 0.391602, -9.69727, 1.25.2022 18:33:8.910
963, 2.15853, 359.568, 172.357, 0, -0.000976562, -0.000976562, 0.09375, 0.361328, -9.72461, 1.25.2022 18:33:8.918
964, 2.1655, 359.568, 172.357, 0, -0.000976562, 0.000976562, 0.0371094, 0.392578, -9.71191, 1.25.2022 18:33:8.926
965, 2.1655, 359.568, 172.357, 0, -0.000976562, -0.000976562, 0.0986328, 0.375, -9.70801, 1.25.2022 18:33:8.934
966, 2.1655, 359.568, 172.357, 0, -0.000976562, -0.000976562, 0.0634766, 0.366211, -9.70117, 1.25.2022 18:33:8.942
967, 2.1655, 359.568, 172.357, 0, 0, -0.000976562, 0.0546875, 0.390625, -9.65527, 1.25.2022 18:33:8.950
968, 2.1655, 359.568, 172.357, -0.00195312, -0.000976562, -0.000976562, 0.110352, 0.370117, -9.70605, 1.25.2022 18:33:8.958
969, 2.1655, 359.568, 172.357, 0.000976562, -0.000976562, -0.000976562, 0.0527344, 0.365234, -9.75488, 1.25.2022 18:33:8.966
970, 2.1655, 359.568, 172.357, 0, -0.000976562, -0.00195312, 0.0625, 0.367188, -9.74316, 1.25.2022 18:33:8.974
971, 2.1655, 359.568, 172.357, 0.000976562, -0.000976562, -0.000976562, 0.0986328, 0.339844, -9.71875, 1.25.2022 18:33:8.982
972, 2.1655, 359.568, 172.357, 0, 0, -0.000976562, 0.0361328, 0.392578, -9.71875, 1.25.2022 18:33:8.990
973, 2.17247, 359.567, 172.357, 0.000976562, -0.000976562, -0.000976562, 0.110352, 0.382812, -9.71973, 1.25.2022 18:33:8.998
974, 2.17247, 359.567, 172.357, 0, -0.000976562, -0.000976562, 0.0556641, 0.37793, -9.71484, 1.25.2022 18:33:9.006
975, 2.17247, 359.567, 172.357, 0, -0.000976562, 0.000976562, 0.0458984, 0.366211, -9.7168, 1.25.2022 18:33:9.014
976, 2.17247, 359.567, 172.357, 0, -0.000976562, -0.000976562, 0.0917969, 0.353516, -9.69922, 1.25.2022 18:33:9.022
977, 2.17247, 359.567, 172.357, 0, -0.000976562, 0.000976562, 0.03125, 0.390625, -9.72363, 1.25.2022 18:33:9.030
978, 2.17247, 359.567, 172.357, 0, -0.000976562, -0.000976562, 0.0888672, 0.375977, -9.72949, 1.25.2022 18:33:9.038
979, 2.17247, 359.567, 172.357, 0, 0, -0.000976562, 0.0839844, 0.352539, -9.73438, 1.25.2022 18:33:9.046
980, 2.17247, 359.567, 172.357, 0, -0.000976562, -0.00195312, 0.0341797, 0.356445, -9.71289, 1.25.2022 18:33:9.054
981, 2.17247, 359.567, 172.357, 0.000976562, -0.000976562, -0.000976562, 0.118164, 0.352539, -9.66699, 1.25.2022 18:33:9.062
982, 2.17247, 359.567, 172.357, 0, -0.000976562, -0.00195312, 0.0791016, 0.359375, -9.73633, 1.25.2022 18:33:9.070
983, 2.17247, 359.567, 172.357, 0, -0.000976562, -0.00195312, 0.0175781, 0.363281, -9.7002, 1.25.2022 18:33:9.078
984, 2.17247, 359.567, 172.357, 0, -0.000976562, -0.000976562, 0.119141, 0.362305, -9.76367, 1.25.2022 18:33:9.086
985, 2.17294, 359.574, 172.357, 0, 0, -0.00195312, 0.0361328, 0.357422, -9.74805, 1.25.2022 18:33:9.094
986, 2.17294, 359.574, 172.357, 0, -0.000976562, -0.000976562, 0.0517578, 0.363281, -9.68457, 1.25.2022 18:33:9.102
987, 2.17294, 359.574, 172.357, 0, -0.000976562, -0.000976562, 0.0996094, 0.355469, -9.67383, 1.25.2022 18:33:9.110
988, 2.17294, 359.574, 172.357, 0, -0.000976562, -0.000976562, 0.0244141, 0.383789, -9.73047, 1.25.2022 18:33:9.118
989, 2.17294, 359.574, 172.357, 0, -0.000976562, 0.000976562, 0.0791016, 0.363281, -9.71484, 1.25.2022 18:33:9.126
990, 2.17294, 359.574, 172.357, -0.00195312, 0, 0, 0.0537109, 0.341797, -9.7041, 1.25.2022 18:33:9.134
991, 2.17294, 359.574, 172.357, 0, -0.000976562, -0.000976562, 0.0292969, 0.390625, -9.71875, 1.25.2022 18:33:9.142
992, 2.17294, 359.574, 172.357, 0, -0.000976562, -0.000976562, 0.103516, 0.339844, -9.7207, 1.25.2022 18:33:9.150
993, 2.17294, 359.574, 172.357, 0.000976562, -0.000976562, -0.000976562, 0.0537109, 0.363281, -9.70508, 1.25.2022 18:33:9.158
994, 2.1734, 359.581, 172.356, 0, -0.000976562, -0.000976562, 0.0791016, 0.374023, -9.72656, 1.25.2022 18:33:9.166
995, 2.1734, 359.581, 172.356, -0.000976562, -0.000976562, 0, 0.0957031, 0.359375, -9.72266, 1.25.2022 18:33:9.174
996, 2.16643, 359.582, 172.356, -0.000976562, -0.000976562, 0, 0.0322266, 0.404297, -9.71777, 1.25.2022 18:33:9.182
997, 2.16643, 359.582, 172.356, -0.00195312, -0.000976562, 0, 0.117188, 0.356445, -9.71875, 1.25.2022 18:33:9.190
998, 2.16643, 359.582, 172.356, -0.000976562, -0.00195312, -0.000976562, 0.0917969, 0.349609, -9.71094, 1.25.2022 18:33:9.198
999, 2.16643, 359.582, 172.356, -0.000976562, -0.000976562, 0, 0.0341797, 0.389648, -9.71191, 1.25.2022 18:33:9.206
1000, 2.16643, 359.582, 172.356, -0.000976562, 0, 0, 0.09375, 0.361328, -9.70898, 1.25.2022 18:33:9.214
1001, 2.16643, 359.582, 172.356, -0.000976562, -0.000976562, 0, 0.0507812, 0.410156, -9.74414, 1.25.2022 18:33:9.222
1002, 2.16643, 359.582, 172.356, 0, -0.000976562, 0, 0.0605469, 0.387695, -9.70703, 1.25.2022 18:33:9.230
1003, 2.16643, 359.582, 172.356, 0, -0.000976562, 0, 0.0791016, 0.361328, -9.72461, 1.25.2022 18:33:9.238
1004, 2.1734, 359.581, 172.356, -0.000976562, -0.000976562, 0, 0.0224609, 0.380859, -9.71191, 1.25.2022 18:33:9.246
1005, 2.1734, 359.581, 172.356, -0.000976562, -0.000976562, 0.000976562, 0.114258, 0.367188, -9.76074, 1.25.2022 18:33:9.254
1006, 2.1734, 359.581, 172.356, -0.000976562, -0.000976562, 0, 0.0673828, 0.359375, -9.71484, 1.25.2022 18:33:9.262
1007, 2.1734, 359.581, 172.356, -0.000976562, -0.00195312, -0.000976562, 0.0820312, 0.386719, -9.68359, 1.25.2022 18:33:9.270
1008, 2.1734, 359.581, 172.356, -0.000976562, -0.000976562, 0.000976562, 0.108398, 0.355469, -9.66895, 1.25.2022 18:33:9.278
1009, 2.1734, 359.581, 172.356, -0.000976562, -0.000976562, 0.000976562, 0.0273438, 0.356445, -9.71973, 1.25.2022 18:33:9.286
1010, 2.1734, 359.581, 172.356, -0.000976562, -0.000976562, 0, 0.0722656, 0.378906, -9.73828, 1.25.2022 18:33:9.294
1011, 2.1734, 359.581, 172.356, -0.000976562, -0.000976562, 0.000976562, 0.0986328, 0.390625, -9.72461, 1.25.2022 18:33:9.302
1012, 2.1734, 359.581, 172.356, -0.000976562, -0.000976562, 0.000976562, 0.0214844, 0.388672, -9.75391, 1.25.2022 18:33:9.310
1013, 2.18038, 359.581, 172.356, -0.000976562, -0.000976562, 0, 0.105469, 0.351562, -9.71387, 1.25.2022 18:33:9.318
1014, 2.18038, 359.581, 172.356, -0.000976562, -0.00195312, -0.000976562, 0.0673828, 0.337891, -9.74219, 1.25.2022 18:33:9.326
1015, 2.18038, 359.581, 172.356, 0, -0.000976562, 0, 0.0576172, 0.380859, -9.7334, 1.25.2022 18:33:9.334
1016, 2.18038, 359.581, 172.356, -0.000976562, -0.000976562, 0, 0.130859, 0.345703, -9.76172, 1.25.2022 18:33:9.342
1017, 2.18038, 359.581, 172.356, 0, -0.000976562, 0, 0.0458984, 0.387695, -9.72852, 1.25.2022 18:33:9.350
1018, 2.18038, 359.581, 172.356, -0.000976562, -0.000976562, 0, 0.104492, 0.369141, -9.66602, 1.25.2022 18:33:9.358
1019, 2.18038, 359.581, 172.356, -0.000976562, -0.000976562, 0, 0.102539, 0.360352, -9.75098, 1.25.2022 18:33:9.366
1020, 2.18038, 359.581, 172.356, -0.000976562, -0.000976562, 0.000976562, 0.0146484, 0.355469, -9.74805, 1.25.2022 18:33:9.374
1021, 2.18038, 359.581, 172.356, -0.000976562, -0.000976562, 0.000976562, 0.120117, 0.356445, -9.71875, 1.25.2022 18:33:9.382
1022, 2.18038, 359.581, 172.356, 0, -0.00195312, -0.000976562, 0.0791016, 0.342773, -9.74219, 1.25.2022 18:33:9.390
1023, 2.18038, 359.581, 172.356, 0, -0.000976562, 0, 0.0292969, 0.364258, -9.7334, 1.25.2022 18:33:9.398
1024, 2.17294, 359.574, 172.357, -0.000976562, 0, 0, 0.125, 0.348633, -9.70215, 1.25.2022 18:33:9.406
1025, 2.17294, 359.574, 172.357, -0.000976562, -0.000976562, 0, 0.0292969, 0.401367, -9.69922, 1.25.2022 18:33:9.414
1026, 2.17294, 359.574, 172.357, -0.00195312, -0.000976562, 0, 0.0800781, 0.396484, -9.7002, 1.25.2022 18:33:9.422
1027, 2.17294, 359.574, 172.357, -0.000976562, 0, -0.00195312, 0.120117, 0.366211, -9.7207, 1.25.2022 18:33:9.430
1028, 2.17294, 359.574, 172.357, -0.000976562, 0, -0.00195312, 0.0175781, 0.415039, -9.73145, 1.25.2022 18:33:9.438
1029, 2.17294, 359.574, 172.357, -0.000976562, 0, -0.000976562, 0.0986328, 0.361328, -9.70898, 1.25.2022 18:33:9.446
1030, 2.17991, 359.574, 172.357, -0.000976562, -0.000976562, -0.00195312, 0.0615234, 0.368164, -9.76953, 1.25.2022 18:33:9.454
1031, 2.17991, 359.574, 172.357, -0.000976562, 0, -0.000976562, 0.0585938, 0.384766, -9.70508, 1.25.2022 18:33:9.462
1032, 2.17991, 359.574, 172.357, -0.000976562, 0.000976562, -0.000976562, 0.121094, 0.359375, -9.66211, 1.25.2022 18:33:9.470
1033, 2.17991, 359.574, 172.357, -0.000976562, 0, -0.000976562, 0.00976562, 0.354492, -9.72852, 1.25.2022 18:33:9.478
1034, 2.17944, 359.567, 172.357, -0.000976562, 0, -0.000976562, 0.0751953, 0.382812, -9.69824, 1.25.2022 18:33:9.486
1035, 2.17944, 359.567, 172.357, -0.000976562, 0, -0.000976562, 0.0869141, 0.365234, -9.6875, 1.25.2022 18:33:9.494
1036, 2.17944, 359.567, 172.357, 0, 0, 0, 0.0322266, 0.356445, -9.69629, 1.25.2022 18:33:9.502
1037, 2.17944, 359.567, 172.357, -0.000976562, 0, 0, 0.0917969, 0.356445, -9.70605, 1.25.2022 18:33:9.510
1038, 2.17944, 359.567, 172.357, -0.000976562, 0, -0.000976562, 0.0527344, 0.369141, -9.72461, 1.25.2022 18:33:9.518
1039, 2.17991, 359.574, 172.357, -0.000976562, -0.000976562, -0.00195312, 0.0654297, 0.382812, -9.71191, 1.25.2022 18:33:9.526
1040, 2.17991, 359.574, 172.357, -0.000976562, -0.00195312, -0.000976562, 0.12207, 0.351562, -9.70898, 1.25.2022 18:33:9.534
1041, 2.17991, 359.574, 172.357, 0, 0, 0, 0.00292969, 0.382812, -9.7207, 1.25.2022 18:33:9.542
1042, 2.17991, 359.574, 172.357, -0.000976562, -0.00195312, -0.000976562, 0.0839844, 0.375977, -9.73438, 1.25.2022 18:33:9.550
1043, 2.17991, 359.574, 172.357, -0.000976562, 0, -0.000976562, 0.0976562, 0.324219, -9.75195, 1.25.2022 18:33:9.558
1044, 2.17991, 359.574, 172.357, -0.000976562, 0.000976562, -0.00195312, 0.0341797, 0.366211, -9.73145, 1.25.2022 18:33:9.566
1045, 2.17991, 359.574, 172.357, -0.000976562, 0, -0.000976562, 0.103516, 0.358398, -9.68262, 1.25.2022 18:33:9.574
1046, 2.17991, 359.574, 172.357, -0.000976562, -0.00195312, -0.000976562, 0.0664062, 0.360352, -9.66797, 1.25.2022 18:33:9.582
1047, 2.17991, 359.574, 172.357, -0.000976562, 0, -0.00195312, 0.0537109, 0.391602, -9.66895, 1.25.2022 18:33:9.590
1048, 2.17991, 359.574, 172.357, -0.00195312, 0, 0, 0.131836, 0.358398, -9.71191, 1.25.2022 18:33:9.598
1049, 2.17991, 359.574, 172.357, -0.000976562, 0, -0.000976562, 0.00488281, 0.354492, -9.72852, 1.25.2022 18:33:9.606
1050, 2.17991, 359.574, 172.357, 0, 0.000976562, -0.000976562, 0.0703125, 0.363281, -9.70312, 1.25.2022 18:33:9.614
1051, 2.17991, 359.574, 172.357, 0, 0.000976562, -0.00195312, 0.0751953, 0.351562, -9.71289, 1.25.2022 18:33:9.622
1052, 2.17294, 359.574, 172.357, 0, 0, -0.000976562, -0.00195312, 0.387695, -9.71289, 1.25.2022 18:33:9.630
1053, 2.17294, 359.574, 172.357, -0.000976562, 0, -0.000976562, 0.115234, 0.368164, -9.70898, 1.25.2022 18:33:9.638
1054, 2.17294, 359.574, 172.357, -0.000976562, 0, -0.000976562, 0.0576172, 0.371094, -9.7334, 1.25.2022 18:33:9.646
1055, 2.17294, 359.574, 172.357, -0.000976562, 0, 0, 0.0458984, 0.390625, -9.7168, 1.25.2022 18:33:9.654
1056, 2.17294, 359.574, 172.357, 0, 0, -0.00195312, 0.112305, 0.352539, -9.72754, 1.25.2022 18:33:9.662
