Seq, Rot x, Rot y, Rot z, Vel x, Vel y, Vel z, Acc x, Acc y, Acc z, Time(m.d.y h:m:s.ms)
0, 1.76015, 0.240859, 196.485, 0, -0.000976562, 0, -0.104492, 0.307617, -9.74023, 1.28.2022 18:35:39.836
1, 1.76015, 0.240859, 196.485, 0, -0.000976562, 0, -0.00390625, 0.299805, -9.72559, 1.28.2022 18:35:39.840
2, 1.76015, 0.240859, 196.485, -0.000976562, -0.000976562, 0, -0.0732422, 0.314453, -9.7334, 1.28.2022 18:35:39.847
3, 1.76015, 0.240859, 196.485, 0, 0, 0, -0.0898438, 0.316406, -9.72363, 1.28.2022 18:35:39.855
4, 1.76015, 0.240859, 196.485, 0, 0, 0, 0, 0.285156, -9.73047, 1.28.2022 18:35:39.863
5, 1.76707, 0.241862, 196.485, -0.000976562, 0, 0, -0.0498047, 0.307617, -9.75293, 1.28.2022 18:35:39.871
6, 1.76707, 0.241862, 196.485, 0, 0, 0.000976562, -0.0234375, 0.297852, -9.74121, 1.28.2022 18:35:39.879
7, 1.76707, 0.241862, 196.485, -0.000976562, 0, 0.000976562, -0.0146484, 0.269531, -9.75195, 1.28.2022 18:35:39.887
8, 1.76707, 0.241862, 196.485, -0.00195312, 0, 0, -0.118164, 0.333008, -9.71777, 1.28.2022 18:35:39.895
9, 1.76707, 0.241862, 196.485, -0.000976562, 0, 0, -0.0107422, 0.287109, -9.70703, 1.28.2022 18:35:39.903
10, 1.76707, 0.241862, 196.485, -0.00195312, 0, 0, -0.0615234, 0.286133, -9.74609, 1.28.2022 18:35:39.911
11, 1.76607, 0.248783, 196.484, -0.000976562, 0, -0.000976562, -0.0390625, 0.287109, -9.69629, 1.28.2022 18:35:39.919
12, 1.76607, 0.248783, 196.484, 0, 0, 0, 0.0078125, 0.266602, -9.73828, 1.28.2022 18:35:39.927
13, 1.76607, 0.248783, 196.484, 0.000976562, 0, -0.000976562, -0.0615234, 0.324219, -9.72852, 1.28.2022 18:35:39.935
14, 1.76607, 0.248783, 196.484, 0, -0.000976562, -0.000976562, -0.0556641, 0.317383, -9.68848, 1.28.2022 18:35:39.943
15, 1.76607, 0.248783, 196.484, -0.000976562, 0, 0, -0.0341797, 0.269531, -9.68262, 1.28.2022 18:35:39.951
16, 1.76607, 0.248783, 196.484, 0, 0, 0, -0.0830078, 0.28125, -9.75, 1.28.2022 18:35:39.959
17, 1.76607, 0.248783, 196.484, -0.000976562, -0.000976562, -0.000976562, -0.00390625, 0.274414, -9.69043, 1.28.2022 18:35:39.967
18, 1.76607, 0.248783, 196.484, 0, 0, 0, -0.0400391, 0.270508, -9.69922, 1.28.2022 18:35:39.975
19, 1.76607, 0.248783, 196.484, 0, -0.000976562, -0.000976562, -0.0878906, 0.3125, -9.7373, 1.28.2022 18:35:39.983
20, 1.76607, 0.248783, 196.484, 0, -0.000976562, 0, 0, 0.317383, -9.74805, 1.28.2022 18:35:39.991
21, 1.76607, 0.248783, 196.484, -0.000976562, 0, 0, -0.0820312, 0.303711, -9.69824, 1.28.2022 18:35:39.999
22, 1.76607, 0.248783, 196.484, -0.000976562, 0.000976562, 0, -0.0654297, 0.289062, -9.68945, 1.28.2022 18:35:40.007
23, 1.76607, 0.248783, 196.484, -0.000976562, 0.000976562, 0, 0.00585938, 0.279297, -9.68555, 1.28.2022 18:35:40.015
24, 1.75815, 0.254701, 196.484, -0.000976562, 0, 0, -0.0664062, 0.297852, -9.72656, 1.28.2022 18:35:40.023
25, 1.75815, 0.254701, 196.484, 0, 0, -0.000976562, -0.0253906, 0.313477, -9.71484, 1.28.2022 18:35:40.031
26, 1.75815, 0.254701, 196.484, -0.000976562, -0.000976562, 0, -0.0322266, 0.291992, -9.70801, 1.28.2022 18:35:40.039
27, 1.75815, 0.254701, 196.484, -0.000976562, -0.000976562, 0, -0.0771484, 0.339844, -9.69238, 1.28.2022 18:35:40.047
28, 1.75815, 0.254701, 196.484, -0.000976562, 0.000976562, 0.000976562, -0.00585938, 0.313477, -9.70605, 1.28.2022 18:35:40.055
29, 1.75815, 0.254701, 196.484, -0.000976562, 0, 0, -0.0537109, 0.287109, -9.69922, 1.28.2022 18:35:40.063
30, 1.75815, 0.254701, 196.484, 0, 0, 0, -0.0429688, 0.292969, -9.72949, 1.28.2022 18:35:40.071
31, 1.75815, 0.254701, 196.484, 0.000976562, 0.000976562, 0, 0.0107422, 0.280273, -9.70898, 1.28.2022 18:35:40.079
32, 1.75815, 0.254701, 196.484, 0, 0, 0, -0.0908203, 0.3125, -9.74219, 1.28.2022 18:35:40.087
33, 1.75815, 0.254701, 196.484, 0, 0, 0, -0.0253906, 0.313477, -9.69629, 1.28.2022 18:35:40.095
34, 1.75815, 0.254701, 196.484, -0.000976562, -0.000976562, 0, -0.0234375, 0.282227, -9.70215, 1.28.2022 18:35:40.103
35, 1.75815, 0.254701, 196.484, 0, 0, 0, -0.078125, 0.296875, -9.69531, 1.28.2022 18:35:40.111
36, 1.75815, 0.254701, 196.484, -0.000976562, 0, 0, 0.0175781, 0.296875, -9.7207, 1.28.2022 18:35:40.117
37, 1.75815, 0.254701, 196.484, -0.000976562, 0, -0.000976562, -0.00878906, 0.28125, -9.68359, 1.28.2022 18:35:40.125
38, 1.75915, 0.24778, 196.484, 0, 0, 0, -0.0546875, 0.329102, -9.75, 1.28.2022 18:35:40.133
39, 1.75915, 0.24778, 196.484, 0, 0, 0.000976562, 0.00585938, 0.287109, -9.71875, 1.28.2022 18:35:40.141
40, 1.75915, 0.24778, 196.484, 0, 0, 0, -0.101562, 0.292969, -9.72363, 1.28.2022 18:35:40.149
41, 1.75915, 0.24778, 196.484, -0.000976562, 0.000976562, 0, -0.0166016, 0.301758, -9.72461, 1.28.2022 18:35:40.157
42, 1.75915, 0.24778, 196.484, 0, 0.000976562, 0, -0.03125, 0.3125, -9.74805, 1.28.2022 18:35:40.165
43, 1.75915, 0.24778, 196.484, -0.000976562, 0, 0, -0.0800781, 0.316406, -9.71875, 1.28.2022 18:35:40.173
44, 1.76015, 0.240859, 196.485, -0.000976562, 0, 0, 0.0224609, 0.272461, -9.70703, 1.28.2022 18:35:40.181
45, 1.76015, 0.240859, 196.485, -0.00195312, 0, 0, -0.0527344, 0.305664, -9.75977, 1.28.2022 18:35:40.189
46, 1.76015, 0.240859, 196.485, -0.000976562, 0, 0, -0.0683594, 0.326172, -9.73535, 1.28.2022 18:35:40.197
47, 1.76015, 0.240859, 196.485, -0.000976562, 0, 0, -0.0166016, 0.283203, -9.73926, 1.28.2022 18:35:40.205
48, 1.76015, 0.240859, 196.485, 0, 0, 0, -0.0976562, 0.311523, -9.72559, 1.28.2022 18:35:40.213
49, 1.76015, 0.240859, 196.485, 0, 0, 0.000976562, -0.0332031, 0.316406, -9.72461, 1.28.2022 18:35:40.221
50, 1.76015, 0.240859, 196.485, 0, 0, 0, -0.0302734, 0.283203, -9.7207, 1.28.2022 18:35:40.229
51, 1.76015, 0.240859, 196.485, -0.000976562, 0, -0.000976562, -0.0761719, 0.321289, -9.73535, 1.28.2022 18:35:40.237
52, 1.76015, 0.240859, 196.485, -0.000976562, 0, 0, 0.0126953, 0.298828, -9.70215, 1.28.2022 18:35:40.245
53, 1.76015, 0.240859, 196.485, -0.000976562, -0.000976562, 0, -0.0761719, 0.270508, -9.71973, 1.28.2022 18:35:40.253
54, 1.76015, 0.240859, 196.485, -0.000976562, -0.000976562, 0, -0.0664062, 0.301758, -9.72461, 1.28.2022 18:35:40.261
55, 1.76015, 0.240859, 196.485, -0.000976562, 0, 0, 0.00292969, 0.303711, -9.70605, 1.28.2022 18:35:40.269
56, 1.76015, 0.240859, 196.485, -0.000976562, 0.000976562, 0, -0.0800781, 0.306641, -9.69824, 1.28.2022 18:35:40.277
57, 1.76015, 0.240859, 196.485, 0, -0.000976562, 0, -0.0283203, 0.30957, -9.74609, 1.28.2022 18:35:40.285
58, 1.76015, 0.240859, 196.485, 0, 0, -0.000976562, -0.0205078, 0.285156, -9.71094, 1.28.2022 18:35:40.293
59, 1.76015, 0.240859, 196.485, -0.000976562, 0, -0.000976562, -0.0878906, 0.333008, -9.7207, 1.28.2022 18:35:40.301
60, 1.76707, 0.241862, 196.485, -0.00195312, 0.000976562, 0, 0.00488281, 0.301758, -9.73047, 1.28.2022 18:35:40.309
61, 1.76707, 0.241862, 196.485, -0.000976562, 0, 0, -0.0234375, 0.299805, -9.73926, 1.28.2022 18:35:40.317
62, 1.76707, 0.241862, 196.485, -0.000976562, -0.000976562, -0.000976562, -0.078125, 0.299805, -9.73828, 1.28.2022 18:35:40.325
63, 1.76707, 0.241862, 196.485, -0.000976562, -0.000976562, 0, -0.00390625, 0.280273, -9.71582, 1.28.2022 18:35:40.333
64, 1.76707, 0.241862, 196.485, -0.000976562, -0.000976562, 0, -0.0947266, 0.296875, -9.72168, 1.28.2022 18:35:40.341
65, 1.76707, 0.241862, 196.485, 0, -0.000976562, 0, -0.0400391, 0.314453, -9.72656, 1.28.2022 18:35:40.349
66, 1.76707, 0.241862, 196.485, 0, -0.000976562, -0.00195312, -0.00683594, 0.301758, -9.72949, 1.28.2022 18:35:40.357
67, 1.76707, 0.241862, 196.485, -0.000976562, -0.00292969, 0, -0.0976562, 0.319336, -9.75391, 1.28.2022 18:35:40.365
68, 1.76707, 0.241862, 196.485, -0.000976562, -0.000976562, 0, 0.0107422, 0.295898, -9.67578, 1.28.2022 18:35:40.373
69, 1.76707, 0.241862, 196.485, 0, -0.000976562, 0.000976562, -0.0400391, 0.263672, -9.71582, 1.28.2022 18:35:40.381
70, 1.76707, 0.241862, 196.485, 0, 0.000976562, 0.000976562, -0.0556641, 0.321289, -9.66016, 1.28.2022 18:35:40.389
71, 1.76707, 0.241862, 196.485, -0.00195312, 0.000976562, 0, 0.0244141, 0.275391, -9.73145, 1.28.2022 18:35:40.397
72, 1.76707, 0.241862, 196.485, -0.000976562, 0.000976562, 0, -0.0498047, 0.291016, -9.75781, 1.28.2022 18:35:40.405
73, 1.76707, 0.241862, 196.485, -0.000976562, -0.000976562, 0, -0.0351562, 0.306641, -9.70801, 1.28.2022 18:35:40.413
74, 1.76807, 0.23494, 196.485, 0, -0.00195312, 0, -0.00878906, 0.296875, -9.72754, 1.28.2022 18:35:40.421
75, 1.76707, 0.241862, 196.485, -0.00195312, -0.00292969, -0.00195312, -0.0927734, 0.313477, -9.7168, 1.28.2022 18:35:40.429
76, 1.76707, 0.241862, 196.485, -0.00195312, -0.00195312, -0.00195312, 0.00292969, 0.291992, -9.70215, 1.28.2022 18:35:40.437
77, 1.76807, 0.23494, 196.485, -0.000976562, 0, -0.00292969, -0.0224609, 0.298828, -9.6875, 1.28.2022 18:35:40.445
78, 1.76807, 0.23494, 196.485, -0.000976562, -0.000976562, 0, -0.0869141, 0.306641, -9.7002, 1.28.2022 18:35:40.453
79, 1.76807, 0.23494, 196.485, -0.000976562, -0.000976562, 0, -0.00878906, 0.306641, -9.70801, 1.28.2022 18:35:40.461
80, 1.76807, 0.23494, 196.485, 0, -0.000976562, 0.000976562, -0.0683594, 0.294922, -9.72656, 1.28.2022 18:35:40.469
81, 1.76807, 0.23494, 196.485, 0, -0.000976562, 0, -0.0732422, 0.328125, -9.72754, 1.28.2022 18:35:40.477
82, 1.76807, 0.23494, 196.485, 0, -0.000976562, -0.00195312, -0.0205078, 0.272461, -9.68555, 1.28.2022 18:35:40.485
83, 1.76807, 0.23494, 196.485, -0.000976562, -0.000976562, 0, -0.100586, 0.333984, -9.66797, 1.28.2022 18:35:40.493
84, 1.76807, 0.23494, 196.485, 0, -0.000976562, 0, -0.0136719, 0.296875, -9.71777, 1.28.2022 18:35:40.501
85, 1.76807, 0.23494, 196.485, 0, -0.00195312, 0, -0.0332031, 0.292969, -9.72461, 1.28.2022 18:35:40.509
86, 1.76807, 0.23494, 196.485, -0.000976562, -0.00195312, 0, -0.0947266, 0.324219, -9.73242, 1.28.2022 18:35:40.517
87, 1.76807, 0.23494, 196.485, -0.000976562, -0.00195312, 0, 0.0214844, 0.266602, -9.74316, 1.28.2022 18:35:40.525
88, 1.77399, 0.242864, 196.485, -0.000976562, -0.00292969, 0, -0.0732422, 0.321289, -9.7334, 1.28.2022 18:35:40.533
89, 1.77399, 0.242864, 196.485, 0, -0.000976562, -0.00195312, -0.0488281, 0.317383, -9.68652, 1.28.2022 18:35:40.541
90, 1.77399, 0.242864, 196.485, 0, -0.00195312, 0, -0.00195312, 0.277344, -9.71191, 1.28.2022 18:35:40.549
91, 1.77399, 0.242864, 196.485, 0, -0.00195312, 0, -0.0683594, 0.318359, -9.71387, 1.28.2022 18:35:40.557
92, 1.77399, 0.242864, 196.485, -0.000976562, -0.000976562, 0, -0.0205078, 0.31543, -9.70312, 1.28.2022 18:35:40.565
93, 1.77399, 0.242864, 196.485, -0.000976562, -0.00195312, 0, -0.0439453, 0.28125, -9.6709, 1.28.2022 18:35:40.573
94, 1.77399, 0.242864, 196.485, -0.000976562, 0, 0, -0.0820312, 0.305664, -9.68359, 1.28.2022 18:35:40.581
95, 1.77399, 0.242864, 196.485, -0.000976562, 0, -0.000976562, -0.00195312, 0.298828, -9.71387, 1.28.2022 18:35:40.589
96, 1.77399, 0.242864, 196.485, 0, 0, 0, -0.0664062, 0.30957, -9.72656, 1.28.2022 18:35:40.597
97, 1.77399, 0.242864, 196.485, -0.000976562, 0.000976562, 0, -0.0361328, 0.292969, -9.75293, 1.28.2022 18:35:40.605
98, 1.77399, 0.242864, 196.485, -0.00195312, 0.000976562, 0.000976562, -0.00195312, 0.291992, -9.70215, 1.28.2022 18:35:40.613
99, 1.77399, 0.242864, 196.485, 0, 0.000976562, 0, -0.0908203, 0.301758, -9.77539, 1.28.2022 18:35:40.621
100, 1.77399, 0.242864, 196.485, 0, 0, 0, -0.0322266, 0.303711, -9.71484, 1.28.2022 18:35:40.629
101, 1.77399, 0.242864, 196.485, -0.000976562, 0, -0.000976562, -0.0273438, 0.293945, -9.70605, 1.28.2022 18:35:40.637
102, 1.77399, 0.242864, 196.485, 0, 0, 0, -0.0830078, 0.307617, -9.74023, 1.28.2022 18:35:40.645
103, 1.77399, 0.242864, 196.485, 0, 0, 0, 0.00292969, 0.285156, -9.72852, 1.28.2022 18:35:40.653
104, 1.77399, 0.242864, 196.485, 0, 0.000976562, 0, -0.0615234, 0.276367, -9.73438, 1.28.2022 18:35:40.661
105, 1.77399, 0.242864, 196.485, 0, -0.000976562, 0, -0.0527344, 0.289062, -9.75977, 1.28.2022 18:35:40.669
106, 1.77399, 0.242864, 196.485, 0, -0.000976562, 0, 0, 0.292969, -9.74902, 1.28.2022 18:35:40.677
107, 1.77399, 0.242864, 196.485, -0.000976562, 0, 0, -0.0800781, 0.291992, -9.71191, 1.28.2022 18:35:40.685
108, 1.77399, 0.242864, 196.485, -0.000976562, 0, 0, -0.00683594, 0.277344, -9.70898, 1.28.2022 18:35:40.693
109, 1.77399, 0.242864, 196.485, -0.000976562, 0, 0, -0.00683594, 0.275391, -9.7207, 1.28.2022 18:35:40.701
110, 1.76707, 0.241862, 196.485, -0.000976562, 0.000976562, 0, -0.0732422, 0.329102, -9.73242, 1.28.2022 18:35:40.709
111, 1.76707, 0.241862, 196.485, 0, 0.000976562, 0.000976562, -0.015625, 0.260742, -9.70703, 1.28.2022 18:35:40.717
112, 1.76707, 0.241862, 196.485, -0.000976562, -0.000976562, -0.000976562, -0.0517578, 0.296875, -9.71973, 1.28.2022 18:35:40.725
113, 1.76707, 0.241862, 196.485, 0, 0, 0, -0.0390625, 0.307617, -9.6582, 1.28.2022 18:35:40.733
114, 1.76707, 0.241862, 196.485, -0.000976562, 0, 0.000976562, 0.0253906, 0.295898, -9.6875, 1.28.2022 18:35:40.741
115, 1.76707, 0.241862, 196.485, -0.000976562, 0, 0, -0.0634766, 0.320312, -9.69531, 1.28.2022 18:35:40.749
116, 1.76015, 0.240859, 196.485, -0.000976562, 0.000976562, 0, -0.0273438, 0.298828, -9.69922, 1.28.2022 18:35:40.757
117, 1.76116, 0.233938, 196.485, -0.000976562, 0.000976562, 0, -0.0273438, 0.291016, -9.68262, 1.28.2022 18:35:40.765
118, 1.76116, 0.233938, 196.485, -0.00195312, -0.000976562, -0.000976562, -0.0566406, 0.306641, -9.72168, 1.28.2022 18:35:40.773
119, 1.76116, 0.233938, 196.485, -0.000976562, 0, -0.000976562, 0.0175781, 0.306641, -9.7207, 1.28.2022 18:35:40.781
120, 1.76116, 0.233938, 196.485, 0, 0, 0, -0.0478516, 0.27832, -9.7373, 1.28.2022 18:35:40.789
121, 1.76116, 0.233938, 196.485, 0, -0.000976562, -0.000976562, -0.0849609, 0.30957, -9.7168, 1.28.2022 18:35:40.797
122, 1.76116, 0.233938, 196.485, 0, 0, 0, -0.00585938, 0.265625, -9.70508, 1.28.2022 18:35:40.805
123, 1.76116, 0.233938, 196.485, -0.000976562, 0, 0, -0.0751953, 0.304688, -9.71484, 1.28.2022 18:35:40.813
124, 1.76116, 0.233938, 196.485, -0.000976562, 0, 0, -0.03125, 0.3125, -9.74805, 1.28.2022 18:35:40.821
125, 1.75524, 0.226014, 196.485, 0, -0.000976562, 0, 0.000976562, 0.279297, -9.68848, 1.28.2022 18:35:40.829
126, 1.75524, 0.226014, 196.485, -0.000976562, -0.000976562, 0.000976562, -0.0898438, 0.321289, -9.73242, 1.28.2022 18:35:40.837
127, 1.75524, 0.226014, 196.485, -0.00195312, -0.000976562, 0, 0.0126953, 0.313477, -9.69434, 1.28.2022 18:35:40.845
128, 1.75524, 0.226014, 196.485, 0, -0.00195312, 0, -0.0605469, 0.320312, -9.68555, 1.28.2022 18:35:40.853
129, 1.75524, 0.226014, 196.485, -0.000976562, -0.000976562, 0, -0.0751953, 0.310547, -9.67871, 1.28.2022 18:35:40.861
130, 1.75524, 0.226014, 196.485, 0, -0.000976562, 0, -0.0136719, 0.290039, -9.72754, 1.28.2022 18:35:40.869
131, 1.75524, 0.226014, 196.485, -0.00195312, -0.00195312, 0, -0.0751953, 0.326172, -9.71191, 1.28.2022 18:35:40.877
132, 1.76216, 0.227016, 196.485, -0.000976562, -0.000976562, 0, -0.0507812, 0.327148, -9.67871, 1.28.2022 18:35:40.885
133, 1.76216, 0.227016, 196.485, 0, -0.000976562, 0, -0.00878906, 0.266602, -9.72559, 1.28.2022 18:35:40.893
134, 1.76216, 0.227016, 196.485, 0, -0.000976562, 0, -0.109375, 0.299805, -9.7168, 1.28.2022 18:35:40.901
135, 1.76216, 0.227016, 196.485, -0.000976562, -0.000976562, 0, 0.00585938, 0.282227, -9.69727, 1.28.2022 18:35:40.909
136, 1.76216, 0.227016, 196.485, -0.000976562, 0.000976562, 0, -0.0214844, 0.302734, -9.73926, 1.28.2022 18:35:40.917
137, 1.76216, 0.227016, 196.485, 0, -0.000976562, 0, -0.0546875, 0.311523, -9.72852, 1.28.2022 18:35:40.925
138, 1.76216, 0.227016, 196.485, 0, -0.00195312, 0, 0.0146484, 0.285156, -9.70898, 1.28.2022 18:35:40.933
139, 1.76216, 0.227016, 196.485, -0.000976562, -0.00195312, -0.00195312, -0.111328, 0.313477, -9.69434, 1.28.2022 18:35:40.941
140, 1.76116, 0.233938, 196.485, -0.00195312, -0.00195312, 0, -0.0683594, 0.308594, -9.70312, 1.28.2022 18:35:40.949
141, 1.76116, 0.233938, 196.485, -0.000976562, -0.00195312, 0.000976562, -0.00195312, 0.27832, -9.72852, 1.28.2022 18:35:40.957
142, 1.76116, 0.233938, 196.485, -0.000976562, 0.000976562, 0, -0.0800781, 0.291992, -9.71484, 1.28.2022 18:35:40.965
143, 1.76116, 0.233938, 196.485, 0, -0.000976562, -0.00195312, -0.0166016, 0.311523, -9.73438, 1.28.2022 18:35:40.973
144, 1.76116, 0.233938, 196.485, 0, -0.00195312, 0, -0.0498047, 0.283203, -9.74121, 1.28.2022 18:35:40.981
145, 1.76116, 0.233938, 196.485, 0, -0.00195312, -0.00195312, -0.0654297, 0.325195, -9.70508, 1.28.2022 18:35:40.989
146, 1.76116, 0.233938, 196.485, -0.000976562, -0.00195312, 0, 0.0302734, 0.279297, -9.68164, 1.28.2022 18:35:40.997
147, 1.76116, 0.233938, 196.485, 0, -0.00195312, 0, -0.0625, 0.305664, -9.75977, 1.28.2022 18:35:41.005
148, 1.76116, 0.233938, 196.485, 0, -0.00195312, 0, -0.0634766, 0.283203, -9.72949, 1.28.2022 18:35:41.013
149, 1.76015, 0.240859, 196.485, -0.000976562, -0.00195312, 0, -0.0107422, 0.270508, -9.70898, 1.28.2022 18:35:41.021
150, 1.76015, 0.240859, 196.485, -0.000976562, -0.000976562, 0, -0.0878906, 0.304688, -9.71387, 1.28.2022 18:35:41.029
151, 1.76015, 0.240859, 196.485, -0.000976562, -0.000976562, -0.00195312, 0.0244141, 0.294922, -9.73535, 1.28.2022 18:35:41.037
152, 1.76015, 0.240859, 196.485, -0.000976562, -0.000976562, -0.00195312, -0.0283203, 0.313477, -9.71777, 1.28.2022 18:35:41.045
153, 1.76015, 0.240859, 196.485, -0.00195312, -0.000976562, 0, -0.0732422, 0.308594, -9.69043, 1.28.2022 18:35:41.053
154, 1.76015, 0.240859, 196.485, 0, -0.000976562, -0.00195312, 0.00683594, 0.264648, -9.74805, 1.28.2022 18:35:41.061
155, 1.76015, 0.240859, 196.485, 0, -0.000976562, 0, -0.0732422, 0.296875, -9.69336, 1.28.2022 18:35:41.069
156, 1.76015, 0.240859, 196.485, 0, 0.000976562, 0, -0.078125, 0.311523, -9.72168, 1.28.2022 18:35:41.077
157, 1.76015, 0.240859, 196.485, 0, -0.000976562, -0.00195312, 0.00585938, 0.267578, -9.69824, 1.28.2022 18:35:41.085
158, 1.76015, 0.240859, 196.485, -0.000976562, -0.000976562, -0.000976562, -0.0966797, 0.349609, -9.71973, 1.28.2022 18:35:41.093
159, 1.76015, 0.240859, 196.485, 0, -0.000976562, 0, -0.0244141, 0.3125, -9.7627, 1.28.2022 18:35:41.099
160, 1.76015, 0.240859, 196.485, 0, 0, 0.000976562, -0.0429688, 0.297852, -9.74805, 1.28.2022 18:35:41.107
161, 1.76015, 0.240859, 196.485, -0.000976562, 0, 0.000976562, -0.0849609, 0.268555, -9.71484, 1.28.2022 18:35:41.115
162, 1.76015, 0.240859, 196.485, -0.000976562, 0, 0.000976562, 0.00292969, 0.286133, -9.74707, 1.28.2022 18:35:41.123
163, 1.76015, 0.240859, 196.485, -0.000976562, 0.000976562, 0, -0.0712891, 0.279297, -9.75586, 1.28.2022 18:35:41.131
164, 1.76015, 0.240859, 196.485, 0, 0, -0.000976562, -0.0400391, 0.311523, -9.72461, 1.28.2022 18:35:41.139
165, 1.76015, 0.240859, 196.485, -0.000976562, -0.000976562, -0.000976562, -0.0234375, 0.296875, -9.70801, 1.28.2022 18:35:41.147
166, 1.76015, 0.240859, 196.485, -0.000976562, 0, 0, -0.0820312, 0.306641, -9.69824, 1.28.2022 18:35:41.155
167, 1.76015, 0.240859, 196.485, 0, 0, 0, -0.0371094, 0.330078, -9.71191, 1.28.2022 18:35:41.163
168, 1.76015, 0.240859, 196.485, 0, 0, -0.000976562, -0.0214844, 0.282227, -9.77734, 1.28.2022 18:35:41.171
169, 1.76015, 0.240859, 196.485, 0, 0, -0.000976562, -0.0849609, 0.328125, -9.7041, 1.28.2022 18:35:41.179
170, 1.76015, 0.240859, 196.485, 0, -0.000976562, 0, 0.0107422, 0.262695, -9.69141, 1.28.2022 18:35:41.187
171, 1.76015, 0.240859, 196.485, -0.000976562, 0, -0.000976562, -0.0351562, 0.290039, -9.70801, 1.28.2022 18:35:41.195
172, 1.76015, 0.240859, 196.485, -0.000976562, 0, 0, -0.0429688, 0.3125, -9.7666, 1.28.2022 18:35:41.203
173, 1.76015, 0.240859, 196.485, 0, 0, 0, 0.00683594, 0.286133, -9.76074, 1.28.2022 18:35:41.211
174, 1.75324, 0.239856, 196.485, 0, 0, 0, -0.0947266, 0.323242, -9.71582, 1.28.2022 18:35:41.219
175, 1.75324, 0.239856, 196.485, 0, 0, 0, -0.0449219, 0.289062, -9.75781, 1.28.2022 18:35:41.227
176, 1.75324, 0.239856, 196.485, 0, 0.000976562, -0.000976562, -0.0449219, 0.283203, -9.74902, 1.28.2022 18:35:41.235
177, 1.75324, 0.239856, 196.485, -0.000976562, -0.000976562, 0, -0.0712891, 0.322266, -9.74902, 1.28.2022 18:35:41.243
178, 1.75223, 0.246777, 196.484, -0.00195312, -0.000976562, -0.000976562, 0.00292969, 0.27832, -9.72168, 1.28.2022 18:35:41.251
179, 1.75223, 0.246777, 196.484, -0.000976562, 0, 0, -0.046875, 0.293945, -9.70801, 1.28.2022 18:35:41.259
180, 1.75223, 0.246777, 196.484, -0.000976562, 0.000976562, 0, -0.0419922, 0.308594, -9.71484, 1.28.2022 18:35:41.267
181, 1.75324, 0.239856, 196.485, 0, 0.000976562, 0, -0.0214844, 0.28125, -9.7373, 1.28.2022 18:35:41.275
182, 1.75324, 0.239856, 196.485, -0.000976562, 0.000976562, 0, -0.0800781, 0.303711, -9.71191, 1.28.2022 18:35:41.283
183, 1.75324, 0.239856, 196.485, 0, 0, 0.000976562, -0.0380859, 0.310547, -9.75977, 1.28.2022 18:35:41.291
184, 1.75324, 0.239856, 196.485, 0.000976562, 0, 0.000976562, -0.0175781, 0.305664, -9.67969, 1.28.2022 18:35:41.299
185, 1.75324, 0.239856, 196.485, 0, 0, 0, -0.0712891, 0.319336, -9.74512, 1.28.2022 18:35:41.307
186, 1.75324, 0.239856, 196.485, -0.000976562, 0, 0, 0.0292969, 0.280273, -9.71875, 1.28.2022 18:35:41.315
187, 1.75324, 0.239856, 196.485, 0, 0, 0, -0.0429688, 0.291016, -9.73926, 1.28.2022 18:35:41.323
188, 1.75324, 0.239856, 196.485, 0, -0.000976562, 0, -0.0488281, 0.305664, -9.69141, 1.28.2022 18:35:41.331
189, 1.75324, 0.239856, 196.485, -0.000976562, 0.000976562, -0.000976562, 0.000976562, 0.274414, -9.69043, 1.28.2022 18:35:41.339
190, 1.75324, 0.239856, 196.485, -0.000976562, -0.000976562, 0, -0.102539, 0.305664, -9.76367, 1.28.2022 18:35:41.347
191, 1.75324, 0.239856, 196.485, 0, -0.00195312, 0, -0.0380859, 0.275391, -9.72266, 1.28.2022 18:35:41.355
192, 1.75324, 0.239856, 196.485, 0, -0.000976562, 0, -0.0253906, 0.308594, -9.70996, 1.28.2022 18:35:41.363
193, 1.75324, 0.239856, 196.485, -0.000976562, -0.000976562, 0.000976562, -0.0966797, 0.306641, -9.69727, 1.28.2022 18:35:41.371
194, 1.75324, 0.239856, 196.485, 0, -0.000976562, 0, 0.00292969, 0.289062, -9.70215, 1.28.2022 18:35:41.379
195, 1.75324, 0.239856, 196.485, -0.000976562, -0.000976562, 0, -0.0380859, 0.297852, -9.75977, 1.28.2022 18:35:41.387
196, 1.75324, 0.239856, 196.485, 0, -0.000976562, 0, -0.0419922, 0.313477, -9.7002, 1.28.2022 18:35:41.395
197, 1.75324, 0.239856, 196.485, -0.000976562, -0.000976562, 0.000976562, 0.0224609, 0.270508, -9.7168, 1.28.2022 18:35:41.403
198, 1.75324, 0.239856, 196.485, -0.000976562, 0, 0, -0.0830078, 0.318359, -9.7041, 1.28.2022 18:35:41.411
199, 1.75324, 0.239856, 196.485, -0.000976562, -0.00195312, -0.00195312, -0.0302734, 0.333008, -9.7168, 1.28.2022 18:35:41.419
200, 1.75324, 0.239856, 196.485, -0.000976562, 0, 0, -0.00878906, 0.298828, -9.7041, 1.28.2022 18:35:41.427
201, 1.75324, 0.239856, 196.485, -0.000976562, -0.000976562, 0, -0.0898438, 0.314453, -9.73047, 1.28.2022 18:35:41.435
202, 1.75324, 0.239856, 196.485, -0.000976562, 0, 0, 0.0126953, 0.282227, -9.70703, 1.28.2022 18:35:41.443
203, 1.75424, 0.232935, 196.485, -0.000976562, 0.000976562, 0, -0.0400391, 0.302734, -9.74805, 1.28.2022 18:35:41.451
204, 1.75424, 0.232935, 196.485, -0.000976562, -0.00195312, 0.000976562, -0.0390625, 0.317383, -9.68652, 1.28.2022 18:35:41.459
205, 1.75424, 0.232935, 196.485, 0, -0.00195312, 0, 0.0263672, 0.301758, -9.73047, 1.28.2022 18:35:41.467
206, 1.76116, 0.233938, 196.485, 0, -0.00195312, 0, -0.0556641, 0.277344, -9.68457, 1.28.2022 18:35:41.475
207, 1.76116, 0.233938, 196.485, 0, 0, -0.00195312, -0.0332031, 0.306641, -9.73438, 1.28.2022 18:35:41.483
208, 1.76116, 0.233938, 196.485, -0.000976562, 0.000976562, -0.000976562, -0.00195312, 0.291992, -9.70215, 1.28.2022 18:35:41.491
209, 1.76116, 0.233938, 196.485, -0.000976562, 0.000976562, 0, -0.108398, 0.290039, -9.70703, 1.28.2022 18:35:41.499
210, 1.76216, 0.227016, 196.485, 0, -0.000976562, 0, -0.015625, 0.298828, -9.6875, 1.28.2022 18:35:41.507
211, 1.76216, 0.227016, 196.485, -0.000976562, -0.000976562, 0, -0.0234375, 0.289062, -9.75781, 1.28.2022 18:35:41.515
212, 1.76216, 0.227016, 196.485, -0.000976562, -0.000976562, 0.000976562, -0.0517578, 0.304688, -9.72168, 1.28.2022 18:35:41.523
213, 1.76216, 0.227016, 196.485, 0, -0.000976562, 0.000976562, 0.00585938, 0.277344, -9.69531, 1.28.2022 18:35:41.531
214, 1.76216, 0.227016, 196.485, 0, -0.000976562, 0.000976562, -0.0478516, 0.3125, -9.75684, 1.28.2022 18:35:41.539
215, 1.76216, 0.227016, 196.485, 0, -0.00195312, 0, -0.0722656, 0.295898, -9.68359, 1.28.2022 18:35:41.547
216, 1.76216, 0.227016, 196.485, -0.000976562, -0.000976562, 0, 0.0175781, 0.277344, -9.7168, 1.28.2022 18:35:41.555
217, 1.76216, 0.227016, 196.485, 0, -0.000976562, 0, -0.0800781, 0.308594, -9.69531, 1.28.2022 18:35:41.563
218, 1.75624, 0.219093, 196.485, 0, 0.000976562, 0.000976562, -0.00878906, 0.318359, -9.70801, 1.28.2022 18:35:41.571
219, 1.75624, 0.219093, 196.485, 0, 0.000976562, 0, -0.0302734, 0.293945, -9.69141, 1.28.2022 18:35:41.579
220, 1.75624, 0.219093, 196.485, 0, -0.00195312, 0.000976562, -0.0634766, 0.298828, -9.70312, 1.28.2022 18:35:41.587
221, 1.7563, 0.218985, 196.478, 0, -0.00195312, 0, 0.0458984, 0.290039, -9.7168, 1.28.2022 18:35:41.595
222, 1.7563, 0.218985, 196.478, -0.000976562, -0.000976562, -0.000976562, -0.0527344, 0.320312, -9.77344, 1.28.2022 18:35:41.603
223, 1.7563, 0.218985, 196.478, -0.000976562, -0.000976562, -0.000976562, -0.0419922, 0.321289, -9.7168, 1.28.2022 18:35:41.611
224, 1.7563, 0.218985, 196.478, -0.000976562, 0, -0.000976562, -0.0361328, 0.305664, -9.75098, 1.28.2022 18:35:41.619
225, 1.7563, 0.218985, 196.478, 0, 0, -0.000976562, -0.102539, 0.31543, -9.75879, 1.28.2022 18:35:41.627
226, 1.7563, 0.218985, 196.478, 0, -0.000976562, 0, -0.0283203, 0.291992, -9.71777, 1.28.2022 18:35:41.635
227, 1.7573, 0.212063, 196.478, 0, 0, -0.000976562, -0.00878906, 0.291992, -9.71777, 1.28.2022 18:35:41.643
228, 1.76422, 0.213066, 196.478, -0.000976562, 0, -0.000976562, -0.0878906, 0.308594, -9.71191, 1.28.2022 18:35:41.651
229, 1.76422, 0.213066, 196.478, 0, 0, -0.000976562, -0.00683594, 0.300781, -9.74902, 1.28.2022 18:35:41.659
230, 1.76422, 0.213066, 196.478, 0, 0, -0.000976562, -0.0546875, 0.304688, -9.7334, 1.28.2022 18:35:41.667
231, 1.76422, 0.213066, 196.478, 0, 0, -0.000976562, -0.0439453, 0.293945, -9.70312, 1.28.2022 18:35:41.675
232, 1.76416, 0.213174, 196.485, 0, 0, -0.000976562, -0.00683594, 0.273438, -9.7207, 1.28.2022 18:35:41.683
233, 1.76422, 0.213066, 196.478, 0.000976562, 0.000976562, 0, -0.116211, 0.306641, -9.70215, 1.28.2022 18:35:41.691
234, 1.76422, 0.213066, 196.478, 0, 0, 0, -0.0234375, 0.296875, -9.71289, 1.28.2022 18:35:41.699
235, 1.76422, 0.213066, 196.478, 0, 0, 0, -0.015625, 0.277344, -9.69043, 1.28.2022 18:35:41.707
236, 1.76422, 0.213066, 196.478, 0, 0.000976562, -0.000976562, -0.0654297, 0.289062, -9.68652, 1.28.2022 18:35:41.715
237, 1.76422, 0.213066, 196.478, 0, 0, -0.000976562, -0.0185547, 0.299805, -9.71777, 1.28.2022 18:35:41.723
238, 1.76322, 0.219987, 196.478, 0, 0, -0.000976562, -0.0566406, 0.301758, -9.72461, 1.28.2022 18:35:41.731
239, 1.76322, 0.219987, 196.478, -0.000976562, 0, 0, -0.0664062, 0.30957, -9.73145, 1.28.2022 18:35:41.739
240, 1.76322, 0.219987, 196.478, 0, -0.000976562, -0.000976562, -0.00585938, 0.279297, -9.69531, 1.28.2022 18:35:41.747
241, 1.76322, 0.219987, 196.478, -0.000976562, 0, -0.000976562, -0.0771484, 0.325195, -9.69238, 1.28.2022 18:35:41.755
242, 1.76322, 0.219987, 196.478, -0.000976562, 0.000976562, -0.000976562, -0.0439453, 0.306641, -9.70117, 1.28.2022 18:35:41.763
243, 1.76322, 0.219987, 196.478, -0.000976562, 0, -0.000976562, -0.0546875, 0.256836, -9.73242, 1.28.2022 18:35:41.771
244, 1.76322, 0.219987, 196.478, -0.000976562, 0, -0.000976562, -0.0546875, 0.306641, -9.72461, 1.28.2022 18:35:41.779
245, 1.76322, 0.219987, 196.478, 0, 0, -0.00195312, 0.0390625, 0.268555, -9.71484, 1.28.2022 18:35:41.787
246, 1.76222, 0.226908, 196.478, 0, 0, -0.000976562, -0.0371094, 0.311523, -9.71973, 1.28.2022 18:35:41.795
247, 1.7553, 0.225906, 196.478, 0, 0, -0.000976562, -0.0351562, 0.311523, -9.70508, 1.28.2022 18:35:41.803
248, 1.7553, 0.225906, 196.478, 0, 0, -0.000976562, -0.00195312, 0.285156, -9.7207, 1.28.2022 18:35:41.811
249, 1.7553, 0.225906, 196.478, 0, 0.000976562, 0, -0.0585938, 0.289062, -9.68457, 1.28.2022 18:35:41.819
250, 1.7553, 0.225906, 196.478, -0.000976562, 0, -0.000976562, -0.0449219, 0.297852, -9.74805, 1.28.2022 18:35:41.827
251, 1.7553, 0.225906, 196.478, -0.000976562, 0, -0.000976562, -0.00390625, 0.258789, -9.72363, 1.28.2022 18:35:41.835
252, 1.7553, 0.225906, 196.478, -0.000976562, -0.000976562, -0.000976562, -0.0742188, 0.313477, -9.77539, 1.28.2022 18:35:41.843
253, 1.7553, 0.225906, 196.478, 0, 0, -0.000976562, 0.0146484, 0.280273, -9.72363, 1.28.2022 18:35:41.851
254, 1.75524, 0.226014, 196.485, 0, 0, -0.00195312, -0.0449219, 0.317383, -9.74805, 1.28.2022 18:35:41.859
255, 1.75524, 0.226014, 196.485, -0.000976562, 0, -0.00195312, -0.0683594, 0.290039, -9.70996, 1.28.2022 18:35:41.867
256, 1.75524, 0.226014, 196.485, -0.000976562, -0.000976562, 0, 0.015625, 0.276367, -9.66699, 1.28.2022 18:35:41.875
257, 1.75624, 0.219093, 196.485, -0.000976562, -0.000976562, 0, -0.0800781, 0.27832, -9.71289, 1.28.2022 18:35:41.883
258, 1.74932, 0.21809, 196.485, 0, 0, -0.00195312, -0.0419922, 0.291992, -9.69922, 1.28.2022 18:35:41.891
259, 1.74932, 0.21809, 196.485, -0.000976562, -0.00195312, -0.00195312, -0.0351562, 0.314453, -9.72461, 1.28.2022 18:35:41.899
260, 1.74832, 0.225011, 196.485, 0, 0, -0.000976562, -0.0898438, 0.328125, -9.7207, 1.28.2022 18:35:41.907
261, 1.74832, 0.225011, 196.485, 0, -0.000976562, 0, -0.0185547, 0.3125, -9.75098, 1.28.2022 18:35:41.915
262, 1.74832, 0.225011, 196.485, -0.000976562, -0.000976562, 0, -0.0595703, 0.291016, -9.75293, 1.28.2022 18:35:41.923
263, 1.74832, 0.225011, 196.485, 0, -0.00195312, 0, -0.0576172, 0.298828, -9.76953, 1.28.2022 18:35:41.931
264, 1.74832, 0.225011, 196.485, -0.000976562, 0, -0.000976562, 0.0175781, 0.289062, -9.68555, 1.28.2022 18:35:41.939
265, 1.74832, 0.225011, 196.485, 0, -0.00195312, -0.00195312, -0.0898438, 0.299805, -9.71191, 1.28.2022 18:35:41.947
266, 1.74832, 0.225011, 196.485, -0.000976562, 0, -0.000976562, -0.0273438, 0.306641, -9.70801, 1.28.2022 18:35:41.955
267, 1.74832, 0.225011, 196.485, 0, 0, -0.000976562, -0.00878906, 0.282227, -9.70703, 1.28.2022 18:35:41.963
268, 1.74832, 0.225011, 196.485, -0.000976562, 0, -0.00195312, -0.0820312, 0.300781, -9.69043, 1.28.2022 18:35:41.971
269, 1.74832, 0.225011, 196.485, -0.000976562, 0, -0.000976562, 0.0214844, 0.302734, -9.74219, 1.28.2022 18:35:41.979
270, 1.74832, 0.225011, 196.485, 0, 0, -0.000976562, -0.0380859, 0.297852, -9.73438, 1.28.2022 18:35:41.987
271, 1.74832, 0.225011, 196.485, -0.000976562, 0, -0.000976562, -0.0683594, 0.329102, -9.73047, 1.28.2022 18:35:41.995
272, 1.74832, 0.225011, 196.485, -0.00195312, -0.00195312, -0.000976562, 0.00195312, 0.288086, -9.75586, 1.28.2022 18:35:42.003
273, 1.74832, 0.225011, 196.485, -0.000976562, 0, -0.000976562, -0.0498047, 0.316406, -9.72363, 1.28.2022 18:35:42.011
274, 1.75524, 0.226014, 196.485, -0.000976562, 0, -0.000976562, -0.046875, 0.308594, -9.70801, 1.28.2022 18:35:42.019
275, 1.75524, 0.226014, 196.485, 0, 0.000976562, -0.000976562, -0.00195312, 0.28125, -9.75391, 1.28.2022 18:35:42.027
276, 1.75524, 0.226014, 196.485, -0.000976562, -0.00195312, -0.00195312, -0.0927734, 0.337891, -9.72266, 1.28.2022 18:35:42.035
277, 1.75524, 0.226014, 196.485, -0.000976562, -0.00195312, -0.000976562, -0.00878906, 0.289062, -9.7041, 1.28.2022 18:35:42.043
278, 1.75524, 0.226014, 196.485, -0.000976562, 0, -0.00195312, -0.0185547, 0.291992, -9.69922, 1.28.2022 18:35:42.051
279, 1.75524, 0.226014, 196.485, 0, -0.00195312, -0.000976562, -0.0683594, 0.30957, -9.73145, 1.28.2022 18:35:42.059
280, 1.75524, 0.226014, 196.485, 0.000976562, -0.00195312, -0.000976562, 0.00683594, 0.269531, -9.75684, 1.28.2022 18:35:42.065
281, 1.75524, 0.226014, 196.485, 0, 0, -0.000976562, -0.0947266, 0.290039, -9.71973, 1.28.2022 18:35:42.073
282, 1.75524, 0.226014, 196.485, -0.000976562, 0, -0.000976562, -0.0537109, 0.298828, -9.70312, 1.28.2022 18:35:42.081
283, 1.75524, 0.226014, 196.485, -0.000976562, 0, -0.00195312, -0.0371094, 0.325195, -9.70703, 1.28.2022 18:35:42.089
284, 1.75524, 0.226014, 196.485, 0.000976562, -0.00195312, -0.000976562, -0.104492, 0.329102, -9.74902, 1.28.2022 18:35:42.097
285, 1.75524, 0.226014, 196.485, 0, -0.00195312, 0, -0.00878906, 0.301758, -9.72754, 1.28.2022 18:35:42.105
286, 1.75524, 0.226014, 196.485, 0, -0.000976562, 0, -0.0371094, 0.282227, -9.70898, 1.28.2022 18:35:42.115
287, 1.76116, 0.233938, 196.485, 0, 0, 0.000976562, -0.0898438, 0.311523, -9.7168, 1.28.2022 18:35:42.121
288, 1.76116, 0.233938, 196.485, -0.000976562, 0, 0, -0.00878906, 0.28418, -9.6875, 1.28.2022 18:35:42.129
289, 1.76116, 0.233938, 196.485, -0.000976562, 0, 0, -0.078125, 0.27832, -9.73438, 1.28.2022 18:35:42.137
290, 1.76116, 0.233938, 196.485, 0, 0, 0, -0.0585938, 0.289062, -9.68945, 1.28.2022 18:35:42.145
291, 1.76116, 0.233938, 196.485, 0, -0.000976562, 0, -0.0117188, 0.288086, -9.73047, 1.28.2022 18:35:42.153
292, 1.76116, 0.233938, 196.485, -0.000976562, -0.000976562, 0.000976562, -0.103516, 0.285156, -9.7002, 1.28.2022 18:35:42.161
293, 1.76116, 0.233938, 196.485, 0, 0.000976562, 0.000976562, -0.00683594, 0.27832, -9.7168, 1.28.2022 18:35:42.169
294, 1.76116, 0.233938, 196.485, 0, 0.000976562, 0, -0.0214844, 0.264648, -9.74023, 1.28.2022 18:35:42.177
295, 1.76015, 0.240859, 196.485, 0, 0, 0, -0.0830078, 0.287109, -9.7168, 1.28.2022 18:35:42.185
296, 1.76015, 0.240859, 196.485, -0.000976562, 0, 0, 0.03125, 0.296875, -9.7168, 1.28.2022 18:35:42.193
297, 1.76015, 0.240859, 196.485, -0.000976562, -0.000976562, 0, -0.0400391, 0.311523, -9.73145, 1.28.2022 18:35:42.201
298, 1.75324, 0.239856, 196.485, 0, 0.000976562, 0, -0.0517578, 0.318359, -9.71875, 1.28.2022 18:35:42.209
299, 1.75324, 0.239856, 196.485, 0, 0, 0, 0.0175781, 0.258789, -9.7168, 1.28.2022 18:35:42.217
300, 1.75324, 0.239856, 196.485, 0, 0.000976562, 0, -0.0898438, 0.301758, -9.7168, 1.28.2022 18:35:42.225
301, 1.75324, 0.239856, 196.485, 0, 0, 0, -0.0380859, 0.297852, -9.73633, 1.28.2022 18:35:42.233
302, 1.75324, 0.239856, 196.485, 0, 0, 0, -0.0283203, 0.288086, -9.72266, 1.28.2022 18:35:42.241
303, 1.75324, 0.239856, 196.485, -0.000976562, 0.000976562, 0, -0.0751953, 0.334961, -9.70703, 1.28.2022 18:35:42.249
304, 1.75324, 0.239856, 196.485, 0, 0, -0.00195312, -0.0234375, 0.316406, -9.71484, 1.28.2022 18:35:42.257
305, 1.74632, 0.238853, 196.485, 0, 0.000976562, 0, -0.0634766, 0.317383, -9.68848, 1.28.2022 18:35:42.265
306, 1.74632, 0.238853, 196.485, -0.000976562, 0.000976562, 0, -0.0878906, 0.306641, -9.71875, 1.28.2022 18:35:42.273
307, 1.74632, 0.238853, 196.485, -0.000976562, 0, 0, 0.00976562, 0.280273, -9.7168, 1.28.2022 18:35:42.281
308, 1.75324, 0.239856, 196.485, -0.000976562, 0, 0.000976562, -0.0830078, 0.311523, -9.71387, 1.28.2022 18:35:42.289
309, 1.75324, 0.239856, 196.485, 0, 0, 0, 0.00488281, 0.290039, -9.7207, 1.28.2022 18:35:42.297
310, 1.75324, 0.239856, 196.485, 0, 0, 0, -0.0302734, 0.28418, -9.70117, 1.28.2022 18:35:42.305
311, 1.75324, 0.239856, 196.485, 0, 0, 0, -0.0791016, 0.324219, -9.66699, 1.28.2022 18:35:42.313
312, 1.75324, 0.239856, 196.485, 0, 0, 0, 0.0146484, 0.268555, -9.71973, 1.28.2022 18:35:42.321
313, 1.75324, 0.239856, 196.485, 0, -0.000976562, 0, -0.0419922, 0.275391, -9.70898, 1.28.2022 18:35:42.329
314, 1.75324, 0.239856, 196.485, 0, 0, 0, -0.0449219, 0.318359, -9.72363, 1.28.2022 18:35:42.337
315, 1.74632, 0.238853, 196.485, 0, 0, 0, 0.00292969, 0.287109, -9.72363, 1.28.2022 18:35:42.345
316, 1.74632, 0.238853, 196.485, 0, 0, 0, -0.101562, 0.306641, -9.69727, 1.28.2022 18:35:42.353
317, 1.74632, 0.238853, 196.485, 0, 0, 0, -0.0302734, 0.323242, -9.71191, 1.28.2022 18:35:42.361
318, 1.74632, 0.238853, 196.485, 0, -0.000976562, -0.000976562, -0.0341797, 0.320312, -9.68848, 1.28.2022 18:35:42.369
319, 1.75324, 0.239856, 196.485, -0.000976562, -0.00195312, -0.00195312, -0.0810547, 0.324219, -9.73535, 1.28.2022 18:35:42.377
320, 1.75324, 0.239856, 196.485, -0.000976562, -0.00195312, -0.000976562, 0.000976562, 0.270508, -9.7168, 1.28.2022 18:35:42.386
321, 1.75324, 0.239856, 196.485, -0.000976562, -0.00195312, -0.000976562, -0.0595703, 0.297852, -9.74805, 1.28.2022 18:35:42.393
322, 1.75324, 0.239856, 196.485, -0.000976562, -0.00195312, -0.000976562, -0.0615234, 0.318359, -9.72363, 1.28.2022 18:35:42.401
323, 1.75324, 0.239856, 196.485, 0, -0.00195312, -0.000976562, 0.0195312, 0.289062, -9.7002, 1.28.2022 18:35:42.409
324, 1.75324, 0.239856, 196.485, 0, -0.000976562, -0.000976562, -0.108398, 0.318359, -9.70605, 1.28.2022 18:35:42.417
325, 1.75324, 0.239856, 196.485, -0.000976562, -0.000976562, -0.000976562, -0.0419922, 0.291992, -9.71973, 1.28.2022 18:35:42.425
326, 1.75324, 0.239856, 196.485, -0.000976562, -0.000976562, -0.000976562, -0.0332031, 0.28125, -9.73438, 1.28.2022 18:35:42.433
327, 1.76015, 0.240859, 196.485, -0.000976562, -0.000976562, -0.00195312, -0.111328, 0.294922, -9.70898, 1.28.2022 18:35:42.441
328, 1.76015, 0.240859, 196.485, -0.000976562, -0.000976562, -0.00195312, -0.00195312, 0.260742, -9.7168, 1.28.2022 18:35:42.449
329, 1.76015, 0.240859, 196.485, 0, -0.000976562, -0.000976562, -0.046875, 0.296875, -9.71777, 1.28.2022 18:35:42.457
330, 1.75915, 0.24778, 196.484, 0, -0.00195312, -0.000976562, -0.0527344, 0.329102, -9.75684, 1.28.2022 18:35:42.465
331, 1.75915, 0.24778, 196.484, 0, -0.000976562, -0.000976562, 0.0117188, 0.283203, -9.74023, 1.28.2022 18:35:42.473
332, 1.75915, 0.24778, 196.484, 0.000976562, -0.00195312, 0, -0.0419922, 0.306641, -9.70801, 1.28.2022 18:35:42.481
333, 1.75915, 0.24778, 196.484, -0.000976562, -0.000976562, 0.000976562, -0.0664062, 0.288086, -9.72266, 1.28.2022 18:35:42.489
334, 1.75915, 0.24778, 196.484, -0.000976562, -0.000976562, 0.000976562, -0.0371094, 0.277344, -9.7041, 1.28.2022 18:35:42.497
335, 1.75915, 0.24778, 196.484, 0, -0.000976562, 0, -0.106445, 0.291992, -9.69531, 1.28.2022 18:35:42.505
336, 1.75915, 0.24778, 196.484, 0, -0.00195312, -0.000976562, -0.0107422, 0.277344, -9.70898, 1.28.2022 18:35:42.513
337, 1.75915, 0.24778, 196.484, 0, 0, -0.000976562, -0.0410156, 0.302734, -9.75488, 1.28.2022 18:35:42.521
338, 1.75915, 0.24778, 196.484, 0, -0.000976562, -0.000976562, -0.0605469, 0.313477, -9.7002, 1.28.2022 18:35:42.529
339, 1.75915, 0.24778, 196.484, -0.000976562, 0, -0.000976562, 0.00488281, 0.257812, -9.75684, 1.28.2022 18:35:42.537
340, 1.75915, 0.24778, 196.484, -0.000976562, -0.000976562, -0.000976562, -0.0488281, 0.293945, -9.69141, 1.28.2022 18:35:42.545
341, 1.75915, 0.24778, 196.484, -0.000976562, -0.000976562, -0.000976562, -0.0341797, 0.288086, -9.6543, 1.28.2022 18:35:42.553
342, 1.75223, 0.246777, 196.484, 0, -0.000976562, -0.000976562, -0.0302734, 0.260742, -9.71875, 1.28.2022 18:35:42.561
343, 1.75123, 0.253698, 196.484, -0.000976562, -0.000976562, -0.000976562, -0.0869141, 0.295898, -9.68652, 1.28.2022 18:35:42.569
344, 1.75123, 0.253698, 196.484, -0.000976562, -0.00195312, -0.000976562, -0.0185547, 0.287109, -9.70215, 1.28.2022 18:35:42.577
345, 1.75123, 0.253698, 196.484, -0.000976562, -0.000976562, -0.00195312, -0.0302734, 0.266602, -9.73047, 1.28.2022 18:35:42.585
346, 1.75123, 0.253698, 196.484, -0.000976562, -0.000976562, -0.000976562, -0.0585938, 0.311523, -9.71484, 1.28.2022 18:35:42.593
347, 1.75123, 0.253698, 196.484, -0.000976562, -0.000976562, -0.000976562, 0.0214844, 0.275391, -9.72656, 1.28.2022 18:35:42.601
348, 1.75123, 0.253698, 196.484, -0.000976562, -0.000976562, -0.000976562, -0.0732422, 0.267578, -9.70117, 1.28.2022 18:35:42.609
349, 1.74431, 0.252696, 196.484, -0.000976562, -0.000976562, -0.000976562, -0.0576172, 0.331055, -9.66211, 1.28.2022 18:35:42.617
350, 1.74431, 0.252696, 196.484, -0.000976562, 0, 0, -0.00976562, 0.291016, -9.75098, 1.28.2022 18:35:42.625
351, 1.74431, 0.252696, 196.484, 0, 0, -0.00195312, -0.104492, 0.316406, -9.70898, 1.28.2022 18:35:42.633
352, 1.74431, 0.252696, 196.484, 0, -0.000976562, -0.00195312, -0.000976562, 0.307617, -9.67773, 1.28.2022 18:35:42.641
353, 1.74431, 0.252696, 196.484, 0, 0, -0.000976562, -0.0400391, 0.303711, -9.69824, 1.28.2022 18:35:42.649
354, 1.74431, 0.252696, 196.484, 0, 0, -0.000976562, -0.0634766, 0.305664, -9.69336, 1.28.2022 18:35:42.657
355, 1.7374, 0.251693, 196.484, 0, 0, -0.000976562, 0.0458984, 0.267578, -9.69629, 1.28.2022 18:35:42.665
356, 1.7374, 0.251693, 196.484, 0.000976562, -0.000976562, -0.00195312, -0.0527344, 0.3125, -9.75488, 1.28.2022 18:35:42.673
357, 1.7384, 0.244772, 196.484, 0, 0.000976562, 0, -0.0498047, 0.328125, -9.7168, 1.28.2022 18:35:42.681
358, 1.7384, 0.244772, 196.484, 0, 0, 0.000976562, 0.0107422, 0.287109, -9.70898, 1.28.2022 18:35:42.689
359, 1.7384, 0.244772, 196.484, 0, 0, -0.000976562, -0.0634766, 0.308594, -9.7168, 1.28.2022 18:35:42.697
360, 1.7384, 0.244772, 196.484, 0, -0.00195312, -0.000976562, -0.0136719, 0.288086, -9.72754, 1.28.2022 18:35:42.705
361, 1.7384, 0.244772, 196.484, -0.000976562, 0, 0, -0.0107422, 0.262695, -9.69043, 1.28.2022 18:35:42.713
362, 1.7384, 0.244772, 196.484, -0.000976562, 0, 0, -0.046875, 0.291992, -9.69434, 1.28.2022 18:35:42.721
363, 1.7384, 0.244772, 196.484, 0, -0.000976562, -0.000976562, 0.0273438, 0.303711, -9.71582, 1.28.2022 18:35:42.729
364, 1.7394, 0.237851, 196.485, -0.000976562, 0, 0, -0.0683594, 0.305664, -9.69824, 1.28.2022 18:35:42.737
365, 1.7394, 0.237851, 196.485, 0, 0, -0.000976562, -0.0732422, 0.316406, -9.70996, 1.28.2022 18:35:42.745
366, 1.7394, 0.237851, 196.485, -0.000976562, 0, 0.000976562, -0.00390625, 0.28418, -9.70215, 1.28.2022 18:35:42.753
367, 1.7394, 0.237851, 196.485, 0, 0.000976562, 0, -0.0898438, 0.322266, -9.69043, 1.28.2022 18:35:42.761
368, 1.7404, 0.230929, 196.485, -0.000976562, 0, 0.000976562, -0.0263672, 0.27832, -9.7373, 1.28.2022 18:35:42.769
369, 1.7404, 0.230929, 196.485, -0.000976562, -0.000976562, -0.000976562, -0.0136719, 0.289062, -9.69727, 1.28.2022 18:35:42.777
370, 1.7404, 0.230929, 196.485, 0, 0, -0.00195312, -0.0537109, 0.337891, -9.71387, 1.28.2022 18:35:42.785
371, 1.7404, 0.230929, 196.485, -0.000976562, 0, -0.00195312, 0.0146484, 0.314453, -9.73438, 1.28.2022 18:35:42.793
372, 1.7404, 0.230929, 196.485, -0.000976562, -0.000976562, -0.000976562, -0.0449219, 0.303711, -9.71289, 1.28.2022 18:35:42.801
373, 1.74141, 0.224008, 196.485, -0.000976562, 0, 0.000976562, -0.0664062, 0.304688, -9.71484, 1.28.2022 18:35:42.809
374, 1.74141, 0.224008, 196.485, 0, 0, -0.000976562, -0.00585938, 0.272461, -9.7002, 1.28.2022 18:35:42.817
375, 1.74141, 0.224008, 196.485, -0.000976562, 0, 0, -0.0859375, 0.299805, -9.73828, 1.28.2022 18:35:42.825
376, 1.74141, 0.224008, 196.485, -0.000976562, 0.000976562, 0, -0.0166016, 0.314453, -9.72461, 1.28.2022 18:35:42.833
377, 1.74832, 0.225011, 196.485, -0.000976562, -0.000976562, -0.00195312, -0.0478516, 0.3125, -9.75488, 1.28.2022 18:35:42.841
378, 1.74832, 0.225011, 196.485, 0, 0, -0.000976562, -0.0800781, 0.301758, -9.7002, 1.28.2022 18:35:42.849
379, 1.74832, 0.225011, 196.485, 0, 0, -0.000976562, -0.00195312, 0.316406, -9.73438, 1.28.2022 18:35:42.857
380, 1.74832, 0.225011, 196.485, -0.000976562, 0, 0, -0.0449219, 0.266602, -9.72266, 1.28.2022 18:35:42.865
381, 1.74932, 0.21809, 196.485, 0, 0, 0.000976562, -0.0712891, 0.299805, -9.7168, 1.28.2022 18:35:42.873
382, 1.74932, 0.21809, 196.485, 0, 0, 0, 0.00585938, 0.257812, -9.69141, 1.28.2022 18:35:42.881
383, 1.74932, 0.21809, 196.485, 0, 0, 0, -0.121094, 0.294922, -9.72852, 1.28.2022 18:35:42.889
384, 1.74932, 0.21809, 196.485, -0.000976562, 0.000976562, 0, -0.0517578, 0.313477, -9.70996, 1.28.2022 18:35:42.897
385, 1.74932, 0.21809, 196.485, -0.000976562, 0, 0, -0.0273438, 0.322266, -9.68359, 1.28.2022 18:35:42.905
386, 1.74832, 0.225011, 196.485, 0, 0, 0, -0.0830078, 0.30957, -9.72852, 1.28.2022 18:35:42.913
387, 1.75524, 0.226014, 196.485, -0.000976562, 0, 0.000976562, 0.0166016, 0.28125, -9.75195, 1.28.2022 18:35:42.921
388, 1.75524, 0.226014, 196.485, -0.000976562, -0.000976562, 0, -0.0634766, 0.290039, -9.72949, 1.28.2022 18:35:42.929
389, 1.75524, 0.226014, 196.485, -0.000976562, 0.000976562, 0, -0.0830078, 0.294922, -9.72363, 1.28.2022 18:35:42.937
390, 1.75524, 0.226014, 196.485, 0, 0, 0, 0.00585938, 0.303711, -9.6875, 1.28.2022 18:35:42.945
391, 1.75524, 0.226014, 196.485, 0, 0, 0, -0.078125, 0.304688, -9.72363, 1.28.2022 18:35:42.953
392, 1.75524, 0.226014, 196.485, 0, -0.000976562, -0.000976562, -0.0351562, 0.313477, -9.70996, 1.28.2022 18:35:42.961
393, 1.75524, 0.226014, 196.485, -0.000976562, 0.000976562, 0, -0.0107422, 0.295898, -9.67578, 1.28.2022 18:35:42.969
394, 1.75524, 0.226014, 196.485, -0.000976562, 0, 0, -0.0498047, 0.324219, -9.73828, 1.28.2022 18:35:42.977
395, 1.75424, 0.232935, 196.485, -0.000976562, 0, 0, 0.0195312, 0.291016, -9.74707, 1.28.2022 18:35:42.985
396, 1.75424, 0.232935, 196.485, -0.000976562, -0.000976562, -0.00195312, -0.0400391, 0.27832, -9.71582, 1.28.2022 18:35:42.993
397, 1.75424, 0.232935, 196.485, -0.000976562, 0, -0.00195312, -0.0585938, 0.305664, -9.69629, 1.28.2022 18:35:43.001
398, 1.76116, 0.233938, 196.485, -0.00195312, 0, -0.00195312, 0.00488281, 0.274414, -9.7666, 1.28.2022 18:35:43.009
399, 1.76116, 0.233938, 196.485, -0.000976562, 0.000976562, 0, -0.0683594, 0.290039, -9.71973, 1.28.2022 18:35:43.017
400, 1.76116, 0.233938, 196.485, -0.000976562, 0, 0, -0.0615234, 0.302734, -9.7334, 1.28.2022 18:35:43.025
401, 1.76116, 0.233938, 196.485, 0, -0.000976562, -0.000976562, -0.0117188, 0.280273, -9.7207, 1.28.2022 18:35:43.033
402, 1.76116, 0.233938, 196.485, -0.000976562, 0, 0, -0.0898438, 0.282227, -9.68457, 1.28.2022 18:35:43.039
403, 1.76116, 0.233938, 196.485, 0, 0.000976562, 0, -0.00683594, 0.298828, -9.71094, 1.28.2022 18:35:43.047
404, 1.76116, 0.233938, 196.485, 0, 0, 0, -0.0664062, 0.316406, -9.71191, 1.28.2022 18:35:43.055
405, 1.76116, 0.233938, 196.485, 0, 0, 0, -0.0517578, 0.314453, -9.72852, 1.28.2022 18:35:43.063
406, 1.76116, 0.233938, 196.485, -0.00195312, -0.000976562, 0, 0.0107422, 0.296875, -9.70703, 1.28.2022 18:35:43.071
407, 1.76116, 0.233938, 196.485, -0.000976562, -0.000976562, 0, -0.0859375, 0.3125, -9.73535, 1.28.2022 18:35:43.079
408, 1.76116, 0.233938, 196.485, 0, 0, 0, -0.0234375, 0.314453, -9.73438, 1.28.2022 18:35:43.087
409, 1.76116, 0.233938, 196.485, 0, 0, 0, -0.0351562, 0.287109, -9.71582, 1.28.2022 18:35:43.095
410, 1.76116, 0.233938, 196.485, 0, 0.000976562, 0.000976562, -0.111328, 0.314453, -9.7373, 1.28.2022 18:35:43.103
411, 1.76116, 0.233938, 196.485, 0, 0, -0.00195312, -0.0214844, 0.256836, -9.72656, 1.28.2022 18:35:43.111
412, 1.76116, 0.233938, 196.485, 0, 0.00195312, -0.000976562, -0.0439453, 0.291992, -9.69922, 1.28.2022 18:35:43.119
413, 1.76116, 0.233938, 196.485, -0.000976562, 0, 0, -0.0771484, 0.322266, -9.68359, 1.28.2022 18:35:43.127
414, 1.76116, 0.233938, 196.485, 0, -0.00195312, 0, 0.0107422, 0.259766, -9.68652, 1.28.2022 18:35:43.135
415, 1.76116, 0.233938, 196.485, -0.000976562, -0.00195312, 0, -0.0732422, 0.30957, -9.7168, 1.28.2022 18:35:43.143
416, 1.76116, 0.233938, 196.485, -0.00195312, -0.00195312, -0.00195312, -0.0517578, 0.300781, -9.69629, 1.28.2022 18:35:43.151
417, 1.76015, 0.240859, 196.485, -0.000976562, -0.000976562, 0, -0.00878906, 0.249023, -9.70801, 1.28.2022 18:35:43.159
418, 1.76015, 0.240859, 196.485, -0.000976562, -0.000976562, 0, -0.0878906, 0.306641, -9.72168, 1.28.2022 18:35:43.167
419, 1.76015, 0.240859, 196.485, 0.000976562, -0.000976562, 0, -0.0263672, 0.307617, -9.7627, 1.28.2022 18:35:43.175
420, 1.75324, 0.239856, 196.485, 0, 0.000976562, -0.000976562, -0.0351562, 0.297852, -9.72949, 1.28.2022 18:35:43.183
421, 1.75324, 0.239856, 196.485, 0, 0.000976562, 0, -0.0439453, 0.296875, -9.69434, 1.28.2022 18:35:43.191
422, 1.75324, 0.239856, 196.485, 0, -0.000976562, 0, 0.0292969, 0.274414, -9.68848, 1.28.2022 18:35:43.199
423, 1.75324, 0.239856, 196.485, -0.000976562, -0.00195312, 0, -0.0683594, 0.316406, -9.71387, 1.28.2022 18:35:43.207
424, 1.75324, 0.239856, 196.485, -0.000976562, -0.00195312, 0, -0.0371094, 0.326172, -9.7168, 1.28.2022 18:35:43.215
425, 1.75324, 0.239856, 196.485, 0, -0.000976562, 0, -0.00585938, 0.286133, -9.6875, 1.28.2022 18:35:43.223
426, 1.75324, 0.239856, 196.485, 0, -0.000976562, -0.00195312, -0.0800781, 0.298828, -9.67676, 1.28.2022 18:35:43.231
427, 1.75324, 0.239856, 196.485, 0, -0.000976562, 0, -0.0205078, 0.296875, -9.7041, 1.28.2022 18:35:43.239
428, 1.75324, 0.239856, 196.485, 0, -0.000976562, 0, -0.0517578, 0.273438, -9.71582, 1.28.2022 18:35:43.247
429, 1.75324, 0.239856, 196.485, 0, -0.000976562, 0, -0.0869141, 0.300781, -9.69336, 1.28.2022 18:35:43.255
430, 1.75324, 0.239856, 196.485, 0, -0.00195312, 0, 0.0146484, 0.251953, -9.74805, 1.28.2022 18:35:43.263
431, 1.75324, 0.239856, 196.485, 0, -0.000976562, 0, -0.0429688, 0.286133, -9.73633, 1.28.2022 18:35:43.271
432, 1.74632, 0.238853, 196.485, -0.000976562, -0.00195312, -0.00195312, -0.0449219, 0.316406, -9.72168, 1.28.2022 18:35:43.279
433, 1.74632, 0.238853, 196.485, 0, -0.000976562, 0, -0.0244141, 0.296875, -9.77734, 1.28.2022 18:35:43.287
434, 1.74632, 0.238853, 196.485, 0, -0.000976562, -0.00195312, -0.0878906, 0.326172, -9.7207, 1.28.2022 18:35:43.295
435, 1.74632, 0.238853, 196.485, -0.000976562, -0.000976562, 0, -0.00585938, 0.298828, -9.70117, 1.28.2022 18:35:43.303
436, 1.74632, 0.238853, 196.485, 0, -0.000976562, 0, -0.046875, 0.303711, -9.70117, 1.28.2022 18:35:43.311
437, 1.74632, 0.238853, 196.485, 0, -0.000976562, 0, -0.0712891, 0.275391, -9.71289, 1.28.2022 18:35:43.319
438, 1.74632, 0.238853, 196.485, -0.000976562, -0.000976562, 0, 0.0078125, 0.272461, -9.68555, 1.28.2022 18:35:43.327
439, 1.74632, 0.238853, 196.485, 0, -0.000976562, 0.000976562, -0.0537109, 0.275391, -9.69922, 1.28.2022 18:35:43.335
440, 1.74632, 0.238853, 196.485, 0, -0.00195312, 0, -0.0703125, 0.31543, -9.69531, 1.28.2022 18:35:43.343
441, 1.74532, 0.245774, 196.484, -0.000976562, -0.000976562, -0.000976562, 0.0107422, 0.249023, -9.69824, 1.28.2022 18:35:43.351
442, 1.74632, 0.238853, 196.485, 0, -0.000976562, 0, -0.0634766, 0.302734, -9.73145, 1.28.2022 18:35:43.359
443, 1.7394, 0.237851, 196.485, -0.000976562, -0.000976562, 0, -0.0234375, 0.299805, -9.71777, 1.28.2022 18:35:43.367
444, 1.7394, 0.237851, 196.485, 0, -0.000976562, 0, -0.0205078, 0.270508, -9.70898, 1.28.2022 18:35:43.375
445, 1.7394, 0.237851, 196.485, 0, -0.000976562, -0.00195312, -0.0703125, 0.328125, -9.70703, 1.28.2022 18:35:43.383
446, 1.7394, 0.237851, 196.485, 0, 0, 0, 0.0117188, 0.283203, -9.74707, 1.28.2022 18:35:43.391
447, 1.7394, 0.237851, 196.485, -0.000976562, 0, 0, -0.0800781, 0.306641, -9.69824, 1.28.2022 18:35:43.399
448, 1.7394, 0.237851, 196.485, -0.000976562, 0, -0.000976562, -0.0703125, 0.31543, -9.69727, 1.28.2022 18:35:43.407
449, 1.7394, 0.237851, 196.485, -0.000976562, 0, 0, 0.0078125, 0.283203, -9.73047, 1.28.2022 18:35:43.415
450, 1.7394, 0.237851, 196.485, -0.000976562, 0, 0, -0.0878906, 0.299805, -9.74023, 1.28.2022 18:35:43.423
451, 1.7394, 0.237851, 196.485, 0, 0, 0, -0.0234375, 0.291992, -9.72266, 1.28.2022 18:35:43.431
452, 1.7394, 0.237851, 196.485, 0, 0, 0, -0.00585938, 0.287109, -9.7041, 1.28.2022 18:35:43.439
453, 1.7394, 0.237851, 196.485, -0.00195312, -0.00292969, 0, -0.103516, 0.325195, -9.69922, 1.28.2022 18:35:43.447
454, 1.7394, 0.237851, 196.485, -0.000976562, 0, -0.000976562, 0.0078125, 0.28125, -9.74219, 1.28.2022 18:35:43.455
455, 1.7394, 0.237851, 196.485, -0.000976562, 0, -0.000976562, -0.0283203, 0.299805, -9.71582, 1.28.2022 18:35:43.463
456, 1.7394, 0.237851, 196.485, -0.000976562, 0, 0.000976562, -0.0332031, 0.301758, -9.71973, 1.28.2022 18:35:43.471
457, 1.7394, 0.237851, 196.485, 0, 0, -0.000976562, 0.00976562, 0.24707, -9.74121, 1.28.2022 18:35:43.479
458, 1.7394, 0.237851, 196.485, 0, 0, 0, -0.0712891, 0.306641, -9.72656, 1.28.2022 18:35:43.487
459, 1.7394, 0.237851, 196.485, -0.000976562, -0.000976562, 0.000976562, 0.00292969, 0.305664, -9.70117, 1.28.2022 18:35:43.495
460, 1.7394, 0.237851, 196.485, 0, -0.000976562, -0.000976562, -0.0253906, 0.267578, -9.7041, 1.28.2022 18:35:43.503
461, 1.7394, 0.237851, 196.485, -0.000976562, -0.000976562, -0.000976562, -0.0898438, 0.336914, -9.70117, 1.28.2022 18:35:43.511
462, 1.7394, 0.237851, 196.485, -0.000976562, -0.000976562, 0, -0.00195312, 0.311523, -9.72754, 1.28.2022 18:35:43.519
463, 1.7404, 0.230929, 196.485, -0.000976562, 0, 0.000976562, -0.0546875, 0.269531, -9.75391, 1.28.2022 18:35:43.527
464, 1.7404, 0.230929, 196.485, -0.000976562, -0.000976562, 0.000976562, -0.046875, 0.306641, -9.72949, 1.28.2022 18:35:43.535
465, 1.7404, 0.230929, 196.485, -0.000976562, 0, 0, 0.0146484, 0.275391, -9.70703, 1.28.2022 18:35:43.543
466, 1.7404, 0.230929, 196.485, 0, 0, -0.000976562, -0.0986328, 0.31543, -9.69238, 1.28.2022 18:35:43.551
467, 1.7404, 0.230929, 196.485, 0, 0, 0.000976562, -0.0234375, 0.328125, -9.73145, 1.28.2022 18:35:43.559
468, 1.7404, 0.230929, 196.485, 0, 0, 0, -0.0185547, 0.314453, -9.73633, 1.28.2022 18:35:43.567
469, 1.7404, 0.230929, 196.485, 0, 0, 0, -0.115234, 0.327148, -9.67285, 1.28.2022 18:35:43.575
470, 1.7404, 0.230929, 196.485, -0.000976562, 0.000976562, 0, -0.0195312, 0.292969, -9.75391, 1.28.2022 18:35:43.583
471, 1.7404, 0.230929, 196.485, -0.000976562, 0, 0, -0.0517578, 0.268555, -9.73242, 1.28.2022 18:35:43.591
472, 1.7404, 0.230929, 196.485, -0.00195312, 0, -0.000976562, -0.0654297, 0.286133, -9.67969, 1.28.2022 18:35:43.599
473, 1.7404, 0.230929, 196.485, -0.000976562, 0, 0, 0.00488281, 0.286133, -9.74707, 1.28.2022 18:35:43.607
474, 1.74732, 0.231932, 196.485, -0.000976562, 0, 0, -0.0917969, 0.320312, -9.70703, 1.28.2022 18:35:43.615
475, 1.74732, 0.231932, 196.485, 0, 0, 0, -0.0507812, 0.317383, -9.6748, 1.28.2022 18:35:43.623
476, 1.74732, 0.231932, 196.485, -0.000976562, 0.000976562, 0, 0.0244141, 0.288086, -9.73828, 1.28.2022 18:35:43.631
477, 1.74732, 0.231932, 196.485, 0, 0, 0, -0.0830078, 0.287109, -9.70312, 1.28.2022 18:35:43.639
478, 1.74732, 0.231932, 196.485, 0, 0, 0, -0.0244141, 0.297852, -9.66113, 1.28.2022 18:35:43.647
479, 1.74732, 0.231932, 196.485, -0.000976562, 0, 0, -0.0703125, 0.267578, -9.68262, 1.28.2022 18:35:43.655
480, 1.74732, 0.231932, 196.485, 0, 0.000976562, 0, -0.0878906, 0.308594, -9.71387, 1.28.2022 18:35:43.663
481, 1.74732, 0.231932, 196.485, 0, 0, -0.000976562, 0.0166016, 0.288086, -9.7373, 1.28.2022 18:35:43.671
482, 1.74732, 0.231932, 196.485, 0, 0.000976562, 0, -0.0996094, 0.321289, -9.71094, 1.28.2022 18:35:43.679
483, 1.74732, 0.231932, 196.485, -0.000976562, 0, 0, -0.0449219, 0.316406, -9.7168, 1.28.2022 18:35:43.687
484, 1.74732, 0.231932, 196.485, -0.000976562, 0, 0, -0.00878906, 0.268555, -9.70996, 1.28.2022 18:35:43.695
485, 1.74732, 0.231932, 196.485, -0.000976562, 0, 0, -0.0986328, 0.307617, -9.68066, 1.28.2022 18:35:43.703
486, 1.74732, 0.231932, 196.485, -0.000976562, 0, 0.000976562, -0.000976562, 0.285156, -9.65234, 1.28.2022 18:35:43.711
487, 1.75324, 0.239856, 196.485, -0.000976562, 0, 0, -0.046875, 0.292969, -9.72754, 1.28.2022 18:35:43.719
488, 1.75324, 0.239856, 196.485, -0.000976562, -0.000976562, -0.00195312, -0.0800781, 0.334961, -9.69727, 1.28.2022 18:35:43.727
489, 1.75324, 0.239856, 196.485, -0.000976562, -0.000976562, -0.00195312, -0.00878906, 0.293945, -9.69434, 1.28.2022 18:35:43.735
490, 1.75324, 0.239856, 196.485, 0, 0, -0.000976562, -0.0830078, 0.338867, -9.74219, 1.28.2022 18:35:43.743
491, 1.75324, 0.239856, 196.485, 0, 0, -0.000976562, -0.0683594, 0.308594, -9.69531, 1.28.2022 18:35:43.751
492, 1.75324, 0.239856, 196.485, -0.000976562, 0.000976562, -0.000976562, -0.0234375, 0.270508, -9.72559, 1.28.2022 18:35:43.759
493, 1.75324, 0.239856, 196.485, -0.000976562, 0, 0, -0.0947266, 0.324219, -9.72754, 1.28.2022 18:35:43.767
494, 1.75223, 0.246777, 196.484, -0.000976562, 0, -0.000976562, 0.015625, 0.289062, -9.69531, 1.28.2022 18:35:43.775
495, 1.75223, 0.246777, 196.484, 0, 0, 0, -0.0419922, 0.283203, -9.72266, 1.28.2022 18:35:43.783
496, 1.75915, 0.24778, 196.484, -0.000976562, 0.000976562, 0, -0.0664062, 0.314453, -9.72363, 1.28.2022 18:35:43.791
497, 1.75915, 0.24778, 196.484, 0, 0, 0, 0.015625, 0.300781, -9.69922, 1.28.2022 18:35:43.799
498, 1.75915, 0.24778, 196.484, -0.000976562, -0.000976562, 0, -0.0458984, 0.27832, -9.66113, 1.28.2022 18:35:43.807
499, 1.75915, 0.24778, 196.484, -0.000976562, 0, 0, -0.0625, 0.283203, -9.66113, 1.28.2022 18:35:43.815
500, 1.75915, 0.24778, 196.484, 0, 0.000976562, -0.000976562, 0.0126953, 0.291992, -9.7207, 1.28.2022 18:35:43.823
501, 1.75909, 0.247888, 196.492, 0, 0, -0.000976562, -0.0947266, 0.292969, -9.7334, 1.28.2022 18:35:43.831
502, 1.75909, 0.247888, 196.492, 0, 0, 0.000976562, 0.0107422, 0.300781, -9.69727, 1.28.2022 18:35:43.839
503, 1.75915, 0.24778, 196.484, 0, 0, 0, -0.0449219, 0.313477, -9.7168, 1.28.2022 18:35:43.847
504, 1.75915, 0.24778, 196.484, -0.000976562, -0.000976562, 0.000976562, -0.0830078, 0.326172, -9.72559, 1.28.2022 18:35:43.855
505, 1.75915, 0.24778, 196.484, -0.000976562, 0, 0, 0.00390625, 0.289062, -9.68359, 1.28.2022 18:35:43.863
506, 1.75915, 0.24778, 196.484, 0, 0, 0, -0.0908203, 0.295898, -9.77148, 1.28.2022 18:35:43.871
507, 1.75915, 0.24778, 196.484, -0.000976562, 0, -0.000976562, -0.0566406, 0.323242, -9.71875, 1.28.2022 18:35:43.879
508, 1.75915, 0.24778, 196.484, -0.000976562, 0, 0, -0.00195312, 0.302734, -9.7373, 1.28.2022 18:35:43.887
509, 1.75915, 0.24778, 196.484, -0.000976562, -0.000976562, 0, -0.0849609, 0.303711, -9.68555, 1.28.2022 18:35:43.895
510, 1.75915, 0.24778, 196.484, -0.000976562, 0, -0.000976562, -0.00488281, 0.324219, -9.74805, 1.28.2022 18:35:43.903
511, 1.75915, 0.24778, 196.484, -0.000976562, -0.000976562, 0, -0.0273438, 0.289062, -9.68945, 1.28.2022 18:35:43.911
512, 1.76607, 0.248783, 196.484, -0.000976562, -0.000976562, 0.000976562, -0.0722656, 0.291016, -9.68164, 1.28.2022 18:35:43.919
513, 1.76607, 0.248783, 196.484, 0.000976562, -0.000976562, 0.000976562, 0.0195312, 0.294922, -9.72852, 1.28.2022 18:35:43.927
514, 1.76607, 0.248783, 196.484, -0.000976562, -0.000976562, 0.000976562, -0.0449219, 0.302734, -9.74121, 1.28.2022 18:35:43.935
515, 1.76607, 0.248783, 196.484, -0.000976562, 0, -0.000976562, -0.0654297, 0.308594, -9.70508, 1.28.2022 18:35:43.943
516, 1.76607, 0.248783, 196.484, 0, -0.000976562, 0, 0.0078125, 0.303711, -9.70605, 1.28.2022 18:35:43.951
517, 1.76607, 0.248783, 196.484, -0.000976562, -0.000976562, 0, -0.101562, 0.301758, -9.70215, 1.28.2022 18:35:43.959
518, 1.76607, 0.248783, 196.484, -0.000976562, -0.000976562, 0, -0.0566406, 0.275391, -9.70117, 1.28.2022 18:35:43.967
519, 1.76607, 0.248783, 196.484, -0.000976562, -0.00195312, 0, -0.0126953, 0.3125, -9.66797, 1.28.2022 18:35:43.975
520, 1.76607, 0.248783, 196.484, -0.000976562, -0.00195312, -0.000976562, -0.0810547, 0.311523, -9.73047, 1.28.2022 18:35:43.983
521, 1.76607, 0.248783, 196.484, -0.000976562, 0.000976562, 0, -0.0107422, 0.262695, -9.67676, 1.28.2022 18:35:43.991
522, 1.76607, 0.248783, 196.484, 0, -0.000976562, 0, -0.0664062, 0.28125, -9.74805, 1.28.2022 18:35:43.999
523, 1.76607, 0.248783, 196.484, 0, -0.000976562, 0, -0.0615234, 0.294922, -9.70996, 1.28.2022 18:35:44.007
524, 1.76607, 0.248783, 196.484, -0.000976562, -0.00195312, 0, 0.00976562, 0.300781, -9.75391, 1.28.2022 18:35:44.013
525, 1.76607, 0.248783, 196.484, -0.000976562, -0.000976562, 0, -0.0800781, 0.326172, -9.71387, 1.28.2022 18:35:44.021
526, 1.76607, 0.248783, 196.484, -0.000976562, -0.00195312, 0.000976562, -0.0439453, 0.320312, -9.70508, 1.28.2022 18:35:44.029
527, 1.76607, 0.248783, 196.484, -0.000976562, 0, -0.000976562, -0.0332031, 0.273438, -9.72754, 1.28.2022 18:35:44.037
528, 1.76607, 0.248783, 196.484, 0.000976562, -0.000976562, 0, -0.0732422, 0.316406, -9.71875, 1.28.2022 18:35:44.045
529, 1.76607, 0.248783, 196.484, 0.000976562, -0.00195312, 0, 0.00292969, 0.306641, -9.71289, 1.28.2022 18:35:44.053
530, 1.76607, 0.248783, 196.484, 0, -0.000976562, 0, -0.0253906, 0.301758, -9.70117, 1.28.2022 18:35:44.061
531, 1.76607, 0.248783, 196.484, -0.000976562, -0.000976562, 0, -0.0585938, 0.308594, -9.71484, 1.28.2022 18:35:44.069
532, 1.76607, 0.248783, 196.484, -0.000976562, -0.00195312, 0, -0.00195312, 0.313477, -9.70605, 1.28.2022 18:35:44.077
533, 1.76607, 0.248783, 196.484, 0, -0.00195312, 0, -0.0771484, 0.325195, -9.69531, 1.28.2022 18:35:44.085
534, 1.76607, 0.248783, 196.484, 0, -0.000976562, 0, -0.0185547, 0.303711, -9.70605, 1.28.2022 18:35:44.093
535, 1.76607, 0.248783, 196.484, -0.000976562, 0.000976562, 0, -0.0302734, 0.277344, -9.69043, 1.28.2022 18:35:44.101
536, 1.76607, 0.248783, 196.484, 0, -0.000976562, 0, -0.0722656, 0.286133, -9.67676, 1.28.2022 18:35:44.109
537, 1.76607, 0.248783, 196.484, 0, -0.000976562, 0, 0.0390625, 0.269531, -9.69629, 1.28.2022 18:35:44.117
538, 1.76607, 0.248783, 196.484, 0, -0.000976562, 0, -0.0517578, 0.296875, -9.69629, 1.28.2022 18:35:44.125
539, 1.76607, 0.248783, 196.484, 0, -0.00195312, 0, -0.078125, 0.31543, -9.70215, 1.28.2022 18:35:44.133
540, 1.76607, 0.248783, 196.484, 0, -0.00195312, 0, 0.0175781, 0.298828, -9.70703, 1.28.2022 18:35:44.141
541, 1.76607, 0.248783, 196.484, 0, 0, -0.000976562, -0.0869141, 0.293945, -9.70508, 1.28.2022 18:35:44.149
542, 1.76607, 0.248783, 196.484, -0.000976562, 0, 0, -0.0224609, 0.287109, -9.70117, 1.28.2022 18:35:44.157
543, 1.76707, 0.241862, 196.485, -0.000976562, 0, 0.000976562, -0.00488281, 0.285156, -9.7373, 1.28.2022 18:35:44.165
544, 1.76707, 0.241862, 196.485, 0, 0, 0.000976562, -0.0800781, 0.306641, -9.70508, 1.28.2022 18:35:44.173
545, 1.76707, 0.241862, 196.485, -0.000976562, 0.000976562, 0.000976562, 0.00488281, 0.292969, -9.74414, 1.28.2022 18:35:44.181
546, 1.76707, 0.241862, 196.485, 0, -0.000976562, -0.000976562, -0.0332031, 0.27832, -9.74609, 1.28.2022 18:35:44.189
547, 1.76707, 0.241862, 196.485, 0, 0, 0.000976562, -0.0390625, 0.3125, -9.66309, 1.28.2022 18:35:44.197
548, 1.76707, 0.241862, 196.485, 0, -0.000976562, -0.000976562, 0.0175781, 0.263672, -9.71973, 1.28.2022 18:35:44.205
549, 1.76015, 0.240859, 196.485, -0.000976562, -0.000976562, -0.000976562, -0.0634766, 0.292969, -9.72949, 1.28.2022 18:35:44.213
550, 1.76116, 0.233938, 196.485, 0, 0, -0.00195312, -0.0703125, 0.308594, -9.7002, 1.28.2022 18:35:44.221
551, 1.76116, 0.233938, 196.485, -0.000976562, 0, 0, -0.0205078, 0.268555, -9.71875, 1.28.2022 18:35:44.229
552, 1.76116, 0.233938, 196.485, 0, 0, -0.00195312, -0.0908203, 0.289062, -9.75977, 1.28.2022 18:35:44.237
553, 1.76116, 0.233938, 196.485, 0, 0, 0, -0.0107422, 0.293945, -9.70605, 1.28.2022 18:35:44.245
554, 1.76116, 0.233938, 196.485, 0, 0, 0, -0.0595703, 0.302734, -9.75977, 1.28.2022 18:35:44.253
555, 1.76116, 0.233938, 196.485, -0.000976562, 0, -0.00195312, -0.0800781, 0.303711, -9.68652, 1.28.2022 18:35:44.261
556, 1.75424, 0.232935, 196.485, -0.000976562, 0, 0, 0.0185547, 0.283203, -9.65723, 1.28.2022 18:35:44.269
557, 1.75424, 0.232935, 196.485, -0.000976562, 0, 0, -0.0517578, 0.298828, -9.68652, 1.28.2022 18:35:44.277
558, 1.75424, 0.232935, 196.485, -0.000976562, 0, 0, -0.0234375, 0.314453, -9.73633, 1.28.2022 18:35:44.285
559, 1.75424, 0.232935, 196.485, 0, 0, 0, -0.00390625, 0.291992, -9.72266, 1.28.2022 18:35:44.293
560, 1.75424, 0.232935, 196.485, -0.00195312, 0, 0, -0.0947266, 0.311523, -9.70215, 1.28.2022 18:35:44.301
561, 1.75424, 0.232935, 196.485, 0, 0, 0.000976562, 0.00488281, 0.291992, -9.72363, 1.28.2022 18:35:44.309
562, 1.75424, 0.232935, 196.485, -0.000976562, -0.000976562, 0.000976562, -0.0283203, 0.268555, -9.74023, 1.28.2022 18:35:44.317
563, 1.75424, 0.232935, 196.485, -0.000976562, 0, 0.000976562, -0.0849609, 0.311523, -9.70215, 1.28.2022 18:35:44.325
564, 1.75524, 0.226014, 196.485, 0, 0, 0, -0.0166016, 0.28125, -9.75586, 1.28.2022 18:35:44.333
565, 1.75524, 0.226014, 196.485, 0, 0, 0, -0.0898438, 0.304688, -9.71387, 1.28.2022 18:35:44.341
566, 1.74832, 0.225011, 196.485, 0, 0, 0.000976562, -0.0537109, 0.308594, -9.70996, 1.28.2022 18:35:44.349
567, 1.74832, 0.225011, 196.485, -0.000976562, -0.000976562, -0.000976562, 0, 0.269531, -9.74512, 1.28.2022 18:35:44.357
568, 1.74732, 0.231932, 196.485, -0.000976562, 0, 0, -0.0859375, 0.331055, -9.73926, 1.28.2022 18:35:44.365
569, 1.74732, 0.231932, 196.485, 0, 0, 0, -0.0234375, 0.298828, -9.71289, 1.28.2022 18:35:44.373
570, 1.74732, 0.231932, 196.485, 0, 0, -0.00195312, -0.0283203, 0.276367, -9.74219, 1.28.2022 18:35:44.381
571, 1.74732, 0.231932, 196.485, 0, -0.000976562, -0.000976562, -0.0605469, 0.3125, -9.66504, 1.28.2022 18:35:44.389
572, 1.74732, 0.231932, 196.485, 0, 0, 0, 0.00585938, 0.287109, -9.70215, 1.28.2022 18:35:44.397
573, 1.74732, 0.231932, 196.485, 0, -0.000976562, -0.000976562, -0.046875, 0.328125, -9.71387, 1.28.2022 18:35:44.405
574, 1.74732, 0.231932, 196.485, 0, -0.000976562, -0.000976562, -0.0400391, 0.321289, -9.71973, 1.28.2022 18:35:44.413
575, 1.74732, 0.231932, 196.485, 0, 0.000976562, -0.000976562, -0.00195312, 0.285156, -9.73535, 1.28.2022 18:35:44.421
576, 1.74732, 0.231932, 196.485, -0.000976562, -0.000976562, -0.000976562, -0.0878906, 0.294922, -9.73145, 1.28.2022 18:35:44.429
577, 1.74732, 0.231932, 196.485, 0, 0, -0.000976562, -0.0166016, 0.290039, -9.73438, 1.28.2022 18:35:44.437
578, 1.74732, 0.231932, 196.485, 0, 0, -0.000976562, -0.0283203, 0.285156, -9.72949, 1.28.2022 18:35:44.445
579, 1.74732, 0.231932, 196.485, -0.000976562, 0, -0.000976562, -0.0712891, 0.319336, -9.72852, 1.28.2022 18:35:44.453
580, 1.74732, 0.231932, 196.485, -0.000976562, -0.000976562, -0.00195312, -0.0107422, 0.285156, -9.71094, 1.28.2022 18:35:44.461
581, 1.74732, 0.231932, 196.485, -0.000976562, 0, 0, -0.0585938, 0.308594, -9.70312, 1.28.2022 18:35:44.469
582, 1.74732, 0.231932, 196.485, -0.000976562, -0.000976562, -0.000976562, -0.0585938, 0.31543, -9.69336, 1.28.2022 18:35:44.477
583, 1.75424, 0.232935, 196.485, -0.000976562, 0, -0.000976562, -0.0234375, 0.251953, -9.72168, 1.28.2022 18:35:44.485
584, 1.75424, 0.232935, 196.485, -0.000976562, -0.000976562, -0.000976562, -0.0966797, 0.313477, -9.7041, 1.28.2022 18:35:44.493
585, 1.75424, 0.232935, 196.485, 0, -0.000976562, -0.000976562, -0.0292969, 0.320312, -9.68652, 1.28.2022 18:35:44.501
586, 1.75424, 0.232935, 196.485, 0, -0.000976562, -0.000976562, -0.0517578, 0.27832, -9.7207, 1.28.2022 18:35:44.509
587, 1.75424, 0.232935, 196.485, -0.000976562, 0, -0.00195312, -0.0898438, 0.313477, -9.70898, 1.28.2022 18:35:44.517
588, 1.75424, 0.232935, 196.485, -0.000976562, -0.000976562, -0.00195312, 0.00390625, 0.317383, -9.68457, 1.28.2022 18:35:44.525
589, 1.75424, 0.232935, 196.485, 0, 0.000976562, -0.000976562, -0.0478516, 0.286133, -9.73926, 1.28.2022 18:35:44.533
590, 1.75424, 0.232935, 196.485, -0.000976562, 0.000976562, 0.000976562, -0.0585938, 0.338867, -9.68066, 1.28.2022 18:35:44.541
591, 1.75324, 0.239856, 196.485, -0.000976562, 0, 0, -0.00390625, 0.273438, -9.72363, 1.28.2022 18:35:44.549
592, 1.75324, 0.239856, 196.485, -0.000976562, 0.000976562, -0.000976562, -0.0664062, 0.325195, -9.70898, 1.28.2022 18:35:44.557
593, 1.75324, 0.239856, 196.485, -0.000976562, 0, -0.000976562, -0.0214844, 0.317383, -9.75, 1.28.2022 18:35:44.565
594, 1.76015, 0.240859, 196.485, -0.000976562, 0, -0.000976562, -0.0283203, 0.280273, -9.73047, 1.28.2022 18:35:44.573
595, 1.76015, 0.240859, 196.485, -0.000976562, 0, -0.000976562, -0.078125, 0.335938, -9.7207, 1.28.2022 18:35:44.581
596, 1.76015, 0.240859, 196.485, 0, 0, -0.000976562, 0.00683594, 0.279297, -9.75391, 1.28.2022 18:35:44.589
597, 1.76015, 0.240859, 196.485, 0, 0, -0.000976562, -0.0380859, 0.295898, -9.75293, 1.28.2022 18:35:44.597
598, 1.76015, 0.240859, 196.485, 0, 0, -0.000976562, -0.0742188, 0.3125, -9.75, 1.28.2022 18:35:44.605
599, 1.76015, 0.240859, 196.485, -0.00195312, 0, -0.000976562, 0.00976562, 0.288086, -9.7373, 1.28.2022 18:35:44.613
600, 1.76015, 0.240859, 196.485, 0, 0, -0.000976562, -0.0761719, 0.335938, -9.72266, 1.28.2022 18:35:44.621
601, 1.76707, 0.241862, 196.485, 0, -0.000976562, -0.000976562, -0.0292969, 0.307617, -9.6748, 1.28.2022 18:35:44.629
602, 1.76707, 0.241862, 196.485, -0.000976562, 0, -0.000976562, -0.0419922, 0.291016, -9.68457, 1.28.2022 18:35:44.637
603, 1.76707, 0.241862, 196.485, -0.000976562, 0, 0, -0.0488281, 0.308594, -9.69629, 1.28.2022 18:35:44.645
604, 1.76707, 0.241862, 196.485, 0, 0, -0.000976562, -0.0117188, 0.271484, -9.73047, 1.28.2022 18:35:44.653
605, 1.76707, 0.241862, 196.485, -0.000976562, 0, -0.000976562, -0.0683594, 0.270508, -9.70801, 1.28.2022 18:35:44.661
606, 1.76707, 0.241862, 196.485, -0.000976562, 0, 0.000976562, -0.0732422, 0.291992, -9.69336, 1.28.2022 18:35:44.669
607, 1.76707, 0.241862, 196.485, -0.000976562, -0.000976562, -0.000976562, -0.0078125, 0.28418, -9.67578, 1.28.2022 18:35:44.677
608, 1.76707, 0.241862, 196.485, -0.000976562, 0, -0.000976562, -0.111328, 0.285156, -9.72363, 1.28.2022 18:35:44.685
609, 1.76707, 0.241862, 196.485, -0.000976562, 0, -0.000976562, -0.0351562, 0.291992, -9.71973, 1.28.2022 18:35:44.693
610, 1.76707, 0.241862, 196.485, -0.000976562, 0, -0.00195312, -0.0136719, 0.287109, -9.70898, 1.28.2022 18:35:44.701
611, 1.76707, 0.241862, 196.485, -0.000976562, -0.000976562, -0.00195312, -0.0830078, 0.326172, -9.73047, 1.28.2022 18:35:44.709
612, 1.76707, 0.241862, 196.485, -0.000976562, -0.000976562, -0.000976562, -0.0351562, 0.296875, -9.71582, 1.28.2022 18:35:44.717
613, 1.76707, 0.241862, 196.485, -0.00195312, 0, -0.000976562, -0.0214844, 0.304688, -9.73926, 1.28.2022 18:35:44.725
614, 1.76707, 0.241862, 196.485, -0.000976562, -0.000976562, -0.000976562, -0.0683594, 0.323242, -9.7168, 1.28.2022 18:35:44.733
615, 1.76707, 0.241862, 196.485, -0.000976562, 0, -0.000976562, 0.0078125, 0.296875, -9.71582, 1.28.2022 18:35:44.741
616, 1.76607, 0.248783, 196.484, 0, 0, 0.000976562, -0.0820312, 0.310547, -9.69727, 1.28.2022 18:35:44.749
617, 1.76607, 0.248783, 196.484, 0, 0, -0.000976562, -0.0332031, 0.319336, -9.74316, 1.28.2022 18:35:44.757
618, 1.76607, 0.248783, 196.484, 0, 0, -0.000976562, 0.0078125, 0.272461, -9.71191, 1.28.2022 18:35:44.765
619, 1.76607, 0.248783, 196.484, -0.000976562, -0.000976562, -0.000976562, -0.0898438, 0.290039, -9.71191, 1.28.2022 18:35:44.773
620, 1.76607, 0.248783, 196.484, -0.000976562, -0.000976562, -0.000976562, -0.00683594, 0.299805, -9.72559, 1.28.2022 18:35:44.781
621, 1.76607, 0.248783, 196.484, 0, -0.000976562, 0, -0.0517578, 0.296875, -9.71973, 1.28.2022 18:35:44.789
622, 1.76607, 0.248783, 196.484, 0, 0, -0.000976562, -0.0595703, 0.316406, -9.73535, 1.28.2022 18:35:44.797
623, 1.76607, 0.248783, 196.484, 0, 0, -0.000976562, -0.00488281, 0.257812, -9.77148, 1.28.2022 18:35:44.805
624, 1.76607, 0.248783, 196.484, 0, 0, -0.000976562, -0.0859375, 0.298828, -9.75684, 1.28.2022 18:35:44.813
625, 1.76607, 0.248783, 196.484, 0, 0, -0.000976562, -0.0585938, 0.337891, -9.71582, 1.28.2022 18:35:44.821
626, 1.76607, 0.248783, 196.484, -0.000976562, 0, -0.000976562, -0.000976562, 0.28418, -9.69531, 1.28.2022 18:35:44.829
627, 1.76607, 0.248783, 196.484, -0.000976562, -0.000976562, -0.000976562, -0.09375, 0.310547, -9.67871, 1.28.2022 18:35:44.837
628, 1.76607, 0.248783, 196.484, -0.000976562, 0.000976562, -0.000976562, -0.00878906, 0.294922, -9.71582, 1.28.2022 18:35:44.845
629, 1.76607, 0.248783, 196.484, 0, 0, -0.000976562, -0.0322266, 0.289062, -9.69434, 1.28.2022 18:35:44.853
630, 1.76607, 0.248783, 196.484, -0.000976562, 0.000976562, -0.000976562, -0.0634766, 0.269531, -9.68262, 1.28.2022 18:35:44.861
631, 1.76607, 0.248783, 196.484, -0.000976562, 0, -0.000976562, 0.00488281, 0.288086, -9.75684, 1.28.2022 18:35:44.869
632, 1.76607, 0.248783, 196.484, -0.00195312, 0, -0.00195312, -0.0830078, 0.290039, -9.70801, 1.28.2022 18:35:44.877
633, 1.76607, 0.248783, 196.484, -0.00195312, 0, -0.00195312, -0.0732422, 0.306641, -9.72852, 1.28.2022 18:35:44.885
634, 1.76607, 0.248783, 196.484, -0.000976562, 0, -0.000976562, 0.00976562, 0.254883, -9.74805, 1.28.2022 18:35:44.893
635, 1.76607, 0.248783, 196.484, -0.00195312, 0, -0.00195312, -0.0878906, 0.305664, -9.75879, 1.28.2022 18:35:44.901
636, 1.76607, 0.248783, 196.484, -0.000976562, 0, -0.000976562, -0.0136719, 0.304688, -9.74121, 1.28.2022 18:35:44.909
637, 1.75915, 0.24778, 196.484, 0, 0, -0.000976562, -0.0234375, 0.273438, -9.73535, 1.28.2022 18:35:44.917
638, 1.75915, 0.24778, 196.484, -0.000976562, 0, 0, -0.0751953, 0.310547, -9.7002, 1.28.2022 18:35:44.925
639, 1.75915, 0.24778, 196.484, 0, 0, 0, 0.0107422, 0.295898, -9.69531, 1.28.2022 18:35:44.933
640, 1.75915, 0.24778, 196.484, 0, 0, -0.000976562, -0.0400391, 0.307617, -9.73633, 1.28.2022 18:35:44.941
641, 1.75915, 0.24778, 196.484, -0.000976562, 0.000976562, 0, -0.0498047, 0.311523, -9.71484, 1.28.2022 18:35:44.949
642, 1.75915, 0.24778, 196.484, 0, 0.000976562, 0.000976562, 0.00976562, 0.269531, -9.74512, 1.28.2022 18:35:44.957
643, 1.75915, 0.24778, 196.484, -0.00195312, 0, 0, -0.0898438, 0.328125, -9.72754, 1.28.2022 18:35:44.965
644, 1.75223, 0.246777, 196.484, -0.000976562, 0, 0, -0.0263672, 0.276367, -9.74414, 1.28.2022 18:35:44.973
645, 1.75223, 0.246777, 196.484, -0.00195312, 0, 0, -0.0429688, 0.273438, -9.73047, 1.28.2022 18:35:44.979
646, 1.75223, 0.246777, 196.484, -0.000976562, 0, 0, -0.0947266, 0.304688, -9.71191, 1.28.2022 18:35:44.987
647, 1.75223, 0.246777, 196.484, -0.000976562, 0, -0.000976562, 0.000976562, 0.289062, -9.69043, 1.28.2022 18:35:44.995
648, 1.75223, 0.246777, 196.484, -0.000976562, 0, -0.000976562, -0.0761719, 0.316406, -9.72363, 1.28.2022 18:35:45.003
649, 1.75223, 0.246777, 196.484, 0, -0.000976562, 0, -0.0322266, 0.286133, -9.67578, 1.28.2022 18:35:45.011
650, 1.75223, 0.246777, 196.484, -0.000976562, -0.000976562, 0.000976562, -0.0185547, 0.28125, -9.73535, 1.28.2022 18:35:45.019
651, 1.75223, 0.246777, 196.484, 0, -0.000976562, 0, -0.101562, 0.296875, -9.71387, 1.28.2022 18:35:45.027
652, 1.75223, 0.246777, 196.484, 0, -0.000976562, 0, -0.0332031, 0.306641, -9.71777, 1.28.2022 18:35:45.035
653, 1.75223, 0.246777, 196.484, -0.000976562, 0, 0, -0.0351562, 0.27832, -9.72754, 1.28.2022 18:35:45.043
654, 1.75223, 0.246777, 196.484, -0.000976562, 0, 0, -0.0703125, 0.321289, -9.71387, 1.28.2022 18:35:45.051
655, 1.74532, 0.245774, 196.484, -0.000976562, 0, 0.000976562, 0.0146484, 0.294922, -9.73047, 1.28.2022 18:35:45.059
656, 1.74532, 0.245774, 196.484, -0.000976562, 0, 0, -0.0595703, 0.291016, -9.74316, 1.28.2022 18:35:45.067
657, 1.74532, 0.245774, 196.484, -0.000976562, 0, 0, -0.0683594, 0.28418, -9.69141, 1.28.2022 18:35:45.075
658, 1.74532, 0.245774, 196.484, -0.000976562, 0, 0, 0.00585938, 0.267578, -9.69531, 1.28.2022 18:35:45.083
659, 1.74532, 0.245774, 196.484, -0.000976562, 0, 0, -0.0712891, 0.307617, -9.74316, 1.28.2022 18:35:45.091
660, 1.74532, 0.245774, 196.484, 0, 0, 0, -0.00878906, 0.294922, -9.7373, 1.28.2022 18:35:45.099
661, 1.74532, 0.245774, 196.484, 0, 0.000976562, 0, -0.00390625, 0.28418, -9.69531, 1.28.2022 18:35:45.107
662, 1.74532, 0.245774, 196.484, -0.000976562, 0, 0, -0.0761719, 0.30957, -9.72168, 1.28.2022 18:35:45.115
663, 1.74532, 0.245774, 196.484, 0, 0, 0, 0.00878906, 0.295898, -9.6875, 1.28.2022 18:35:45.123
664, 1.74532, 0.245774, 196.484, -0.000976562, -0.000976562, 0, -0.0566406, 0.311523, -9.72852, 1.28.2022 18:35:45.131
665, 1.74532, 0.245774, 196.484, -0.000976562, 0, 0.000976562, -0.0537109, 0.293945, -9.67773, 1.28.2022 18:35:45.139
666, 1.74532, 0.245774, 196.484, 0, 0, 0, 0, 0.283203, -9.74707, 1.28.2022 18:35:45.147
667, 1.7384, 0.244772, 196.484, 0, -0.000976562, 0, -0.0732422, 0.316406, -9.72363, 1.28.2022 18:35:45.155
668, 1.7384, 0.244772, 196.484, 0, 0, 0, -0.0185547, 0.314453, -9.72461, 1.28.2022 18:35:45.163
669, 1.7384, 0.244772, 196.484, 0, 0, 0, 0.000976562, 0.263672, -9.71191, 1.28.2022 18:35:45.171
670, 1.7394, 0.237851, 196.485, 0, 0, -0.000976562, -0.0820312, 0.325195, -9.69531, 1.28.2022 18:35:45.179
671, 1.7394, 0.237851, 196.485, -0.000976562, -0.00292969, -0.000976562, -0.0234375, 0.285156, -9.72559, 1.28.2022 18:35:45.187
672, 1.7394, 0.237851, 196.485, -0.000976562, -0.000976562, -0.000976562, -0.0400391, 0.268555, -9.73047, 1.28.2022 18:35:45.195
673, 1.7394, 0.237851, 196.485, 0, 0, -0.000976562, -0.0634766, 0.296875, -9.69824, 1.28.2022 18:35:45.203
674, 1.7394, 0.237851, 196.485, 0, 0.000976562, 0.000976562, -0.015625, 0.267578, -9.70215, 1.28.2022 18:35:45.211
675, 1.7394, 0.237851, 196.485, 0.000976562, -0.000976562, -0.000976562, -0.106445, 0.28125, -9.72852, 1.28.2022 18:35:45.219
676, 1.7394, 0.237851, 196.485, 0, -0.000976562, -0.00195312, -0.0273438, 0.292969, -9.67285, 1.28.2022 18:35:45.227
677, 1.7394, 0.237851, 196.485, -0.000976562, 0, -0.000976562, -0.0214844, 0.292969, -9.74121, 1.28.2022 18:35:45.235
678, 1.7394, 0.237851, 196.485, 0, 0, -0.000976562, -0.0683594, 0.311523, -9.70996, 1.28.2022 18:35:45.243
679, 1.7394, 0.237851, 196.485, -0.000976562, 0, -0.000976562, 0.0410156, 0.323242, -9.7207, 1.28.2022 18:35:45.251
680, 1.7394, 0.237851, 196.485, 0, -0.000976562, -0.000976562, -0.0458984, 0.286133, -9.67773, 1.28.2022 18:35:45.259
681, 1.73248, 0.236848, 196.485, 0, 0, -0.000976562, -0.0683594, 0.304688, -9.71484, 1.28.2022 18:35:45.267
682, 1.73248, 0.236848, 196.485, 0, 0, -0.00195312, 0.0175781, 0.282227, -9.71387, 1.28.2022 18:35:45.275
683, 1.73248, 0.236848, 196.485, 0, 0, -0.000976562, -0.0761719, 0.333008, -9.72559, 1.28.2022 18:35:45.283
684, 1.73248, 0.236848, 196.485, 0, -0.00195312, 0.000976562, -0.0683594, 0.321289, -9.72168, 1.28.2022 18:35:45.291
685, 1.73248, 0.236848, 196.485, 0, 0, -0.000976562, -0.0234375, 0.273438, -9.71875, 1.28.2022 18:35:45.299
686, 1.73248, 0.236848, 196.485, -0.000976562, -0.000976562, -0.000976562, -0.116211, 0.302734, -9.72852, 1.28.2022 18:35:45.307
687, 1.73248, 0.236848, 196.485, -0.000976562, 0, -0.000976562, -0.0185547, 0.280273, -9.7041, 1.28.2022 18:35:45.315
688, 1.73248, 0.236848, 196.485, 0, 0, 0.000976562, -0.0615234, 0.307617, -9.75488, 1.28.2022 18:35:45.323
689, 1.7394, 0.237851, 196.485, 0, 0, 0.000976562, -0.0830078, 0.303711, -9.71191, 1.28.2022 18:35:45.331
690, 1.7394, 0.237851, 196.485, 0, 0, 0.000976562, -0.0136719, 0.287109, -9.7207, 1.28.2022 18:35:45.339
691, 1.7394, 0.237851, 196.485, -0.000976562, 0.000976562, 0, -0.0683594, 0.289062, -9.70117, 1.28.2022 18:35:45.347
692, 1.7394, 0.237851, 196.485, 0, 0, -0.000976562, -0.0761719, 0.297852, -9.73145, 1.28.2022 18:35:45.355
693, 1.7394, 0.237851, 196.485, -0.000976562, 0, -0.000976562, -0.0205078, 0.282227, -9.71582, 1.28.2022 18:35:45.363
694, 1.7384, 0.244772, 196.484, 0, 0, -0.000976562, -0.0878906, 0.329102, -9.73535, 1.28.2022 18:35:45.371
695, 1.7384, 0.244772, 196.484, 0, 0, -0.00195312, -0.0185547, 0.295898, -9.74902, 1.28.2022 18:35:45.379
696, 1.7384, 0.244772, 196.484, 0, 0, -0.000976562, -0.00878906, 0.253906, -9.70996, 1.28.2022 18:35:45.387
697, 1.7384, 0.244772, 196.484, -0.000976562, 0, -0.000976562, -0.0654297, 0.287109, -9.70117, 1.28.2022 18:35:45.395
698, 1.7384, 0.244772, 196.484, -0.000976562, -0.000976562, -0.000976562, 0.0214844, 0.27832, -9.72363, 1.28.2022 18:35:45.403
699, 1.7384, 0.244772, 196.484, 0, 0, -0.000976562, -0.0751953, 0.287109, -9.69629, 1.28.2022 18:35:45.411
700, 1.7374, 0.251693, 196.484, -0.00195312, 0, 0.000976562, -0.0507812, 0.322266, -9.67676, 1.28.2022 18:35:45.419
701, 1.7374, 0.251693, 196.484, -0.000976562, 0, -0.000976562, -0.0332031, 0.283203, -9.73926, 1.28.2022 18:35:45.427
702, 1.7374, 0.251693, 196.484, -0.00195312, 0.000976562, -0.000976562, -0.108398, 0.330078, -9.69238, 1.28.2022 18:35:45.435
703, 1.7374, 0.251693, 196.484, -0.000976562, 0.000976562, -0.000976562, -0.0117188, 0.319336, -9.73828, 1.28.2022 18:35:45.443
704, 1.7374, 0.251693, 196.484, -0.000976562, 0, 0.000976562, -0.0537109, 0.293945, -9.69629, 1.28.2022 18:35:45.451
705, 1.7374, 0.251693, 196.484, -0.000976562, -0.000976562, 0, -0.0830078, 0.335938, -9.72266, 1.28.2022 18:35:45.459
706, 1.74431, 0.252696, 196.484, 0, -0.000976562, -0.000976562, -0.00390625, 0.277344, -9.71191, 1.28.2022 18:35:45.467
707, 1.74431, 0.252696, 196.484, 0, -0.000976562, -0.000976562, -0.0751953, 0.282227, -9.68164, 1.28.2022 18:35:45.475
708, 1.74431, 0.252696, 196.484, -0.000976562, 0, -0.000976562, -0.0517578, 0.318359, -9.70703, 1.28.2022 18:35:45.483
709, 1.74431, 0.252696, 196.484, 0, 0, -0.000976562, -0.0253906, 0.303711, -9.70801, 1.28.2022 18:35:45.491
710, 1.74331, 0.259617, 196.484, 0, 0, -0.000976562, -0.0751953, 0.328125, -9.70898, 1.28.2022 18:35:45.499
711, 1.74331, 0.259617, 196.484, -0.000976562, 0.000976562, -0.000976562, -0.0078125, 0.3125, -9.68262, 1.28.2022 18:35:45.507
712, 1.74331, 0.259617, 196.484, 0, 0, -0.000976562, -0.0166016, 0.271484, -9.75195, 1.28.2022 18:35:45.515
713, 1.74331, 0.259617, 196.484, -0.000976562, 0, -0.000976562, -0.0849609, 0.294922, -9.72168, 1.28.2022 18:35:45.523
714, 1.75023, 0.26062, 196.484, -0.000976562, 0, -0.000976562, 0.000976562, 0.275391, -9.70703, 1.28.2022 18:35:45.531
715, 1.75023, 0.26062, 196.484, 0, 0, -0.00195312, -0.0498047, 0.301758, -9.71777, 1.28.2022 18:35:45.539
716, 1.75023, 0.26062, 196.484, -0.000976562, 0.000976562, -0.000976562, -0.0761719, 0.297852, -9.75293, 1.28.2022 18:35:45.547
717, 1.75023, 0.26062, 196.484, 0, 0, 0, -0.0205078, 0.280273, -9.70215, 1.28.2022 18:35:45.555
718, 1.75023, 0.26062, 196.484, -0.000976562, 0, 0.000976562, -0.100586, 0.295898, -9.75488, 1.28.2022 18:35:45.563
719, 1.75023, 0.26062, 196.484, 0, 0, -0.000976562, 0.0107422, 0.293945, -9.71094, 1.28.2022 18:35:45.571
720, 1.75023, 0.26062, 196.484, 0, 0, -0.000976562, -0.0332031, 0.30957, -9.74609, 1.28.2022 18:35:45.579
721, 1.75023, 0.26062, 196.484, 0, -0.000976562, -0.000976562, -0.0888672, 0.330078, -9.68555, 1.28.2022 18:35:45.587
722, 1.75023, 0.26062, 196.484, 0, -0.000976562, 0, 0.00390625, 0.305664, -9.69434, 1.28.2022 18:35:45.595
723, 1.75023, 0.26062, 196.484, 0, -0.000976562, 0, -0.0400391, 0.303711, -9.71484, 1.28.2022 18:35:45.603
724, 1.75023, 0.26062, 196.484, 0, -0.000976562, 0, -0.0332031, 0.298828, -9.7627, 1.28.2022 18:35:45.611
725, 1.75023, 0.26062, 196.484, 0, -0.000976562, -0.000976562, 0.0195312, 0.259766, -9.73828, 1.28.2022 18:35:45.619
726, 1.75023, 0.26062, 196.484, -0.000976562, 0, -0.000976562, -0.0732422, 0.276367, -9.72754, 1.28.2022 18:35:45.627
727, 1.75023, 0.26062, 196.484, 0, 0.000976562, -0.000976562, -0.0654297, 0.301758, -9.69824, 1.28.2022 18:35:45.635
728, 1.75023, 0.26062, 196.484, -0.000976562, 0, -0.000976562, -0.0546875, 0.296875, -9.72461, 1.28.2022 18:35:45.643
729, 1.75023, 0.26062, 196.484, 0, 0, -0.000976562, -0.0830078, 0.326172, -9.74219, 1.28.2022 18:35:45.651
730, 1.75023, 0.26062, 196.484, 0, 0, 0, 0.0195312, 0.280273, -9.7168, 1.28.2022 18:35:45.659
731, 1.75023, 0.26062, 196.484, 0, 0, -0.000976562, -0.0615234, 0.317383, -9.74707, 1.28.2022 18:35:45.667
732, 1.75023, 0.26062, 196.484, -0.000976562, 0, -0.000976562, -0.0605469, 0.308594, -9.69824, 1.28.2022 18:35:45.675
733, 1.75123, 0.253698, 196.484, -0.000976562, -0.000976562, -0.00195312, -0.00683594, 0.280273, -9.72559, 1.28.2022 18:35:45.683
734, 1.75123, 0.253698, 196.484, 0, -0.000976562, -0.00195312, -0.0800781, 0.323242, -9.70898, 1.28.2022 18:35:45.691
735, 1.75123, 0.253698, 196.484, 0, 0, -0.000976562, -0.0136719, 0.291992, -9.70605, 1.28.2022 18:35:45.699
736, 1.75123, 0.253698, 196.484, -0.000976562, 0, -0.000976562, -0.00976562, 0.292969, -9.73926, 1.28.2022 18:35:45.707
737, 1.75123, 0.253698, 196.484, -0.000976562, 0, -0.000976562, -0.0771484, 0.325195, -9.69238, 1.28.2022 18:35:45.715
738, 1.75815, 0.254701, 196.484, 0, 0, -0.00195312, -0.00878906, 0.273438, -9.73047, 1.28.2022 18:35:45.723
739, 1.75815, 0.254701, 196.484, -0.000976562, 0, -0.00195312, -0.0185547, 0.27832, -9.71582, 1.28.2022 18:35:45.731
740, 1.75815, 0.254701, 196.484, -0.000976562, -0.000976562, -0.000976562, -0.0507812, 0.28125, -9.66602, 1.28.2022 18:35:45.739
741, 1.75815, 0.254701, 196.484, 0, -0.000976562, -0.00195312, 0.0458984, 0.280273, -9.71973, 1.28.2022 18:35:45.747
742, 1.75123, 0.253698, 196.484, 0, 0, -0.000976562, -0.0830078, 0.320312, -9.75684, 1.28.2022 18:35:45.755
743, 1.75123, 0.253698, 196.484, 0, 0, -0.00195312, -0.0205078, 0.318359, -9.70117, 1.28.2022 18:35:45.763
744, 1.75223, 0.246777, 196.484, 0, -0.000976562, -0.00195312, -0.0292969, 0.246094, -9.76855, 1.28.2022 18:35:45.771
745, 1.75223, 0.246777, 196.484, -0.000976562, 0, -0.000976562, -0.0869141, 0.257812, -9.69238, 1.28.2022 18:35:45.779
746, 1.75223, 0.246777, 196.484, -0.000976562, 0, -0.000976562, -0.0195312, 0.271484, -9.75195, 1.28.2022 18:35:45.787
747, 1.75223, 0.246777, 196.484, 0, 0, -0.00195312, -0.0283203, 0.292969, -9.72949, 1.28.2022 18:35:45.795
748, 1.75223, 0.246777, 196.484, -0.000976562, 0, -0.00195312, -0.0830078, 0.316406, -9.72363, 1.28.2022 18:35:45.803
749, 1.75223, 0.246777, 196.484, -0.000976562, 0, -0.000976562, 0.0390625, 0.267578, -9.70508, 1.28.2022 18:35:45.811
750, 1.75324, 0.239856, 196.485, 0, 0, -0.000976562, -0.0693359, 0.317383, -9.74023, 1.28.2022 18:35:45.819
751, 1.74632, 0.238853, 196.485, 0, 0, 0, -0.015625, 0.299805, -9.71777, 1.28.2022 18:35:45.827
752, 1.74632, 0.238853, 196.485, 0, -0.000976562, -0.000976562, -0.0253906, 0.294922, -9.71777, 1.28.2022 18:35:45.835
753, 1.74632, 0.238853, 196.485, -0.000976562, -0.000976562, -0.00195312, -0.0917969, 0.272461, -9.69141, 1.28.2022 18:35:45.843
754, 1.74632, 0.238853, 196.485, -0.000976562, 0, -0.00195312, -0.00683594, 0.285156, -9.72754, 1.28.2022 18:35:45.851
755, 1.74632, 0.238853, 196.485, 0, -0.000976562, -0.000976562, -0.0253906, 0.294922, -9.7207, 1.28.2022 18:35:45.859
756, 1.7394, 0.237851, 196.485, 0, 0, -0.000976562, -0.0732422, 0.301758, -9.70996, 1.28.2022 18:35:45.867
757, 1.7394, 0.237851, 196.485, -0.000976562, -0.000976562, -0.000976562, 0.00976562, 0.27832, -9.73535, 1.28.2022 18:35:45.875
758, 1.7394, 0.237851, 196.485, -0.000976562, 0, -0.000976562, -0.0507812, 0.317383, -9.68652, 1.28.2022 18:35:45.883
759, 1.7404, 0.230929, 196.485, 0, 0, 0, -0.0253906, 0.288086, -9.72559, 1.28.2022 18:35:45.891
760, 1.7404, 0.230929, 196.485, -0.000976562, 0, -0.00195312, -0.0136719, 0.283203, -9.72363, 1.28.2022 18:35:45.899
761, 1.74034, 0.231036, 196.492, 0, -0.000976562, -0.000976562, -0.106445, 0.337891, -9.72754, 1.28.2022 18:35:45.907
762, 1.74034, 0.231036, 196.492, 0, 0, -0.000976562, 0.0107422, 0.300781, -9.69727, 1.28.2022 18:35:45.915
763, 1.74034, 0.231036, 196.492, 0, 0, -0.000976562, -0.046875, 0.290039, -9.73438, 1.28.2022 18:35:45.923
764, 1.73343, 0.230033, 196.492, 0, -0.000976562, -0.000976562, -0.0849609, 0.311523, -9.72559, 1.28.2022 18:35:45.931
765, 1.73343, 0.230033, 196.492, 0, -0.000976562, -0.000976562, 0.0146484, 0.276367, -9.73535, 1.28.2022 18:35:45.939
766, 1.73343, 0.230033, 196.492, -0.000976562, 0, 0, -0.078125, 0.304688, -9.7334, 1.28.2022 18:35:45.947
767, 1.73343, 0.230033, 196.492, -0.000976562, 0, -0.000976562, -0.0517578, 0.306641, -9.72852, 1.28.2022 18:35:45.953
768, 1.73343, 0.230033, 196.492, -0.000976562, 0, 0, -0.0185547, 0.301758, -9.72754, 1.28.2022 18:35:45.961
769, 1.74034, 0.231036, 196.492, -0.00195312, 0, 0.000976562, -0.0517578, 0.313477, -9.70801, 1.28.2022 18:35:45.969
770, 1.7404, 0.230929, 196.485, -0.000976562, -0.000976562, 0, 0.00292969, 0.280273, -9.70703, 1.28.2022 18:35:45.977
771, 1.7404, 0.230929, 196.485, -0.000976562, 0, 0, -0.0517578, 0.297852, -9.73438, 1.28.2022 18:35:45.985
772, 1.7404, 0.230929, 196.485, 0, -0.000976562, -0.000976562, -0.0498047, 0.301758, -9.72656, 1.28.2022 18:35:45.993
773, 1.74135, 0.224115, 196.492, 0, 0, -0.000976562, 0.0244141, 0.286133, -9.74219, 1.28.2022 18:35:46.001
774, 1.74135, 0.224115, 196.492, 0, 0, -0.000976562, -0.0517578, 0.304688, -9.72168, 1.28.2022 18:35:46.009
775, 1.74135, 0.224115, 196.492, 0, 0, -0.000976562, -0.046875, 0.290039, -9.71094, 1.28.2022 18:35:46.017
776, 1.74135, 0.224115, 196.492, -0.000976562, 0, 0, -0.0283203, 0.307617, -9.73926, 1.28.2022 18:35:46.025
777, 1.74135, 0.224115, 196.492, -0.000976562, 0, 0, -0.0927734, 0.333984, -9.74609, 1.28.2022 18:35:46.033
778, 1.74135, 0.224115, 196.492, -0.000976562, 0, 0.000976562, 0.0146484, 0.286133, -9.75879, 1.28.2022 18:35:46.041
779, 1.74135, 0.224115, 196.492, 0, 0, 0, -0.0224609, 0.257812, -9.69336, 1.28.2022 18:35:46.049
780, 1.74135, 0.224115, 196.492, -0.000976562, 0, 0, -0.0683594, 0.298828, -9.70996, 1.28.2022 18:35:46.057
781, 1.74141, 0.224008, 196.485, 0, 0, 0, -0.0253906, 0.265625, -9.71191, 1.28.2022 18:35:46.065
782, 1.74141, 0.224008, 196.485, 0, -0.000976562, 0, -0.0703125, 0.291992, -9.69336, 1.28.2022 18:35:46.073
783, 1.74141, 0.224008, 196.485, -0.000976562, 0.000976562, 0.000976562, -0.0771484, 0.310547, -9.68555, 1.28.2022 18:35:46.081
784, 1.74141, 0.224008, 196.485, -0.000976562, 0, 0, -0.0146484, 0.264648, -9.75879, 1.28.2022 18:35:46.089
785, 1.74141, 0.224008, 196.485, 0, 0, 0, -0.0800781, 0.295898, -9.67188, 1.28.2022 18:35:46.097
786, 1.74141, 0.224008, 196.485, 0, 0, 0.000976562, -0.0214844, 0.290039, -9.73242, 1.28.2022 18:35:46.105
787, 1.74141, 0.224008, 196.485, -0.000976562, 0, 0, -0.0253906, 0.262695, -9.70215, 1.28.2022 18:35:46.113
788, 1.74141, 0.224008, 196.485, 0, 0.000976562, 0, -0.0800781, 0.328125, -9.71875, 1.28.2022 18:35:46.121
789, 1.74141, 0.224008, 196.485, -0.000976562, 0, 0, -0.00195312, 0.302734, -9.73926, 1.28.2022 18:35:46.129
790, 1.74141, 0.224008, 196.485, 0, -0.000976562, 0, -0.0488281, 0.291992, -9.71094, 1.28.2022 18:35:46.137
791, 1.74141, 0.224008, 196.485, 0, -0.000976562, 0, -0.078125, 0.30957, -9.71875, 1.28.2022 18:35:46.145
792, 1.74141, 0.224008, 196.485, -0.000976562, 0, 0.000976562, -0.00390625, 0.287109, -9.71582, 1.28.2022 18:35:46.153
793, 1.74141, 0.224008, 196.485, 0, -0.000976562, 0, -0.121094, 0.294922, -9.73047, 1.28.2022 18:35:46.161
794, 1.7404, 0.230929, 196.485, 0, -0.000976562, -0.000976562, -0.0449219, 0.306641, -9.72656, 1.28.2022 18:35:46.169
795, 1.7404, 0.230929, 196.485, 0, 0, -0.000976562, -0.0234375, 0.287109, -9.71777, 1.28.2022 18:35:46.177
796, 1.7404, 0.230929, 196.485, 0, 0, 0, -0.0654297, 0.333008, -9.7041, 1.28.2022 18:35:46.185
797, 1.7404, 0.230929, 196.485, 0, 0, 0, 0.0146484, 0.297852, -9.75195, 1.28.2022 18:35:46.193
798, 1.7404, 0.230929, 196.485, -0.000976562, 0, 0, -0.0537109, 0.296875, -9.71289, 1.28.2022 18:35:46.201
799, 1.7404, 0.230929, 196.485, -0.000976562, -0.000976562, 0, -0.046875, 0.301758, -9.72461, 1.28.2022 18:35:46.209
800, 1.7404, 0.230929, 196.485, -0.000976562, 0, 0, 0.0195312, 0.255859, -9.70508, 1.28.2022 18:35:46.217
801, 1.7394, 0.237851, 196.485, 0, 0, 0, -0.0927734, 0.296875, -9.72168, 1.28.2022 18:35:46.225
802, 1.7394, 0.237851, 196.485, 0, 0, 0, -0.0449219, 0.291992, -9.70605, 1.28.2022 18:35:46.233
803, 1.7394, 0.237851, 196.485, -0.000976562, 0, 0, -0.015625, 0.301758, -9.69922, 1.28.2022 18:35:46.241
804, 1.7394, 0.237851, 196.485, 0, 0, 0, -0.0820312, 0.329102, -9.66602, 1.28.2022 18:35:46.249
805, 1.7394, 0.237851, 196.485, 0, 0, 0, -0.00390625, 0.299805, -9.72754, 1.28.2022 18:35:46.257
806, 1.7394, 0.237851, 196.485, -0.000976562, 0, 0.000976562, -0.0664062, 0.301758, -9.72656, 1.28.2022 18:35:46.265
807, 1.7394, 0.237851, 196.485, 0, -0.000976562, 0, -0.046875, 0.318359, -9.71973, 1.28.2022 18:35:46.273
808, 1.7394, 0.237851, 196.485, -0.000976562, 0, 0.000976562, -0.00195312, 0.283203, -9.73535, 1.28.2022 18:35:46.281
809, 1.7394, 0.237851, 196.485, 0, 0, 0, -0.0732422, 0.320312, -9.69531, 1.28.2022 18:35:46.289
810, 1.7394, 0.237851, 196.485, -0.000976562, -0.000976562, 0, -0.0615234, 0.296875, -9.72461, 1.28.2022 18:35:46.297
811, 1.74632, 0.238853, 196.485, 0, 0, 0, -0.0136719, 0.285156, -9.73047, 1.28.2022 18:35:46.305
812, 1.74632, 0.238853, 196.485, 0.000976562, 0, 0, -0.0751953, 0.291992, -9.69824, 1.28.2022 18:35:46.313
813, 1.74632, 0.238853, 196.485, 0, -0.000976562, 0, 0.0185547, 0.306641, -9.65234, 1.28.2022 18:35:46.321
814, 1.74632, 0.238853, 196.485, 0, -0.000976562, 0, -0.0234375, 0.318359, -9.71973, 1.28.2022 18:35:46.329
815, 1.74632, 0.238853, 196.485, 0, -0.000976562, -0.00195312, -0.0585938, 0.290039, -9.71289, 1.28.2022 18:35:46.337
816, 1.74632, 0.238853, 196.485, 0, 0, 0, 0.00292969, 0.270508, -9.71191, 1.28.2022 18:35:46.345
817, 1.74632, 0.238853, 196.485, -0.000976562, 0.000976562, 0, -0.0830078, 0.326172, -9.7207, 1.28.2022 18:35:46.353
818, 1.74632, 0.238853, 196.485, -0.000976562, 0.000976562, 0, -0.0634766, 0.291992, -9.69141, 1.28.2022 18:35:46.361
819, 1.74632, 0.238853, 196.485, 0, 0, 0, -0.0166016, 0.292969, -9.74414, 1.28.2022 18:35:46.369
820, 1.74632, 0.238853, 196.485, -0.000976562, 0, 0, -0.103516, 0.300781, -9.68848, 1.28.2022 18:35:46.377
821, 1.74632, 0.238853, 196.485, -0.000976562, 0, 0, -0.00585938, 0.298828, -9.68945, 1.28.2022 18:35:46.385
822, 1.74632, 0.238853, 196.485, 0, 0, 0, -0.0488281, 0.291992, -9.70117, 1.28.2022 18:35:46.393
823, 1.75324, 0.239856, 196.485, -0.000976562, -0.000976562, 0.000976562, -0.0654297, 0.301758, -9.7002, 1.28.2022 18:35:46.401
824, 1.75324, 0.239856, 196.485, -0.000976562, 0, 0, 0.0244141, 0.280273, -9.71191, 1.28.2022 18:35:46.409
825, 1.75324, 0.239856, 196.485, -0.000976562, 0, 0, -0.0830078, 0.290039, -9.71973, 1.28.2022 18:35:46.417
826, 1.75324, 0.239856, 196.485, 0, 0, 0, -0.0351562, 0.285156, -9.71777, 1.28.2022 18:35:46.425
827, 1.75324, 0.239856, 196.485, -0.000976562, 0, 0, -0.0166016, 0.27832, -9.73535, 1.28.2022 18:35:46.433
828, 1.75324, 0.239856, 196.485, 0, 0, 0.000976562, -0.109375, 0.296875, -9.71191, 1.28.2022 18:35:46.441
829, 1.75324, 0.239856, 196.485, 0, 0, 0.000976562, -0.015625, 0.298828, -9.70898, 1.28.2022 18:35:46.449
830, 1.75324, 0.239856, 196.485, 0, 0, -0.000976562, -0.0449219, 0.307617, -9.74512, 1.28.2022 18:35:46.457
831, 1.75324, 0.239856, 196.485, -0.00195312, 0, -0.00195312, -0.0634766, 0.30957, -9.72656, 1.28.2022 18:35:46.465
832, 1.75324, 0.239856, 196.485, 0, 0.000976562, -0.000976562, 0.0273438, 0.287109, -9.69336, 1.28.2022 18:35:46.473
833, 1.75324, 0.239856, 196.485, 0, 0, -0.00195312, -0.0576172, 0.314453, -9.75195, 1.28.2022 18:35:46.481
834, 1.75324, 0.239856, 196.485, -0.000976562, 0, -0.00195312, -0.015625, 0.275391, -9.7041, 1.28.2022 18:35:46.489
835, 1.75324, 0.239856, 196.485, -0.00195312, -0.000976562, -0.000976562, -0.00292969, 0.291016, -9.76562, 1.28.2022 18:35:46.497
836, 1.75324, 0.239856, 196.485, -0.000976562, -0.000976562, 0, -0.0927734, 0.297852, -9.7334, 1.28.2022 18:35:46.505
837, 1.75324, 0.239856, 196.485, 0, -0.000976562, -0.000976562, -0.0205078, 0.282227, -9.69922, 1.28.2022 18:35:46.513
838, 1.75324, 0.239856, 196.485, -0.000976562, 0, -0.000976562, -0.0234375, 0.270508, -9.7207, 1.28.2022 18:35:46.521
839, 1.75324, 0.239856, 196.485, 0, 0, -0.00195312, -0.0722656, 0.320312, -9.68848, 1.28.2022 18:35:46.529
840, 1.74632, 0.238853, 196.485, 0, 0, -0.00195312, 0.0244141, 0.282227, -9.70508, 1.28.2022 18:35:46.537
841, 1.74632, 0.238853, 196.485, 0, 0, -0.000976562, -0.0449219, 0.311523, -9.70801, 1.28.2022 18:35:46.545
842, 1.74632, 0.238853, 196.485, 0, -0.000976562, -0.000976562, -0.0283203, 0.314453, -9.72656, 1.28.2022 18:35:46.553
843, 1.74632, 0.238853, 196.485, -0.000976562, -0.000976562, -0.000976562, 0.00585938, 0.265625, -9.70312, 1.28.2022 18:35:46.561
844, 1.74632, 0.238853, 196.485, -0.00292969, 0, -0.000976562, -0.0849609, 0.311523, -9.72852, 1.28.2022 18:35:46.569
845, 1.74632, 0.238853, 196.485, -0.00195312, 0, -0.000976562, -0.0302734, 0.285156, -9.73242, 1.28.2022 18:35:46.577
846, 1.74632, 0.238853, 196.485, -0.000976562, 0, -0.000976562, -0.0302734, 0.283203, -9.7207, 1.28.2022 18:35:46.585
847, 1.74732, 0.231932, 196.485, -0.000976562, 0, -0.000976562, -0.0917969, 0.316406, -9.7041, 1.28.2022 18:35:46.593
848, 1.74732, 0.231932, 196.485, -0.000976562, 0, -0.000976562, 0.0117188, 0.28125, -9.73828, 1.28.2022 18:35:46.601
849, 1.74732, 0.231932, 196.485, -0.000976562, 0, -0.000976562, -0.0507812, 0.303711, -9.68652, 1.28.2022 18:35:46.609
850, 1.74732, 0.231932, 196.485, 0.000976562, -0.000976562, -0.000976562, -0.0546875, 0.298828, -9.7627, 1.28.2022 18:35:46.617
851, 1.74732, 0.231932, 196.485, 0, 0, 0, 0.000976562, 0.285156, -9.70898, 1.28.2022 18:35:46.625
852, 1.74732, 0.231932, 196.485, -0.000976562, 0, -0.000976562, -0.0732422, 0.30957, -9.7168, 1.28.2022 18:35:46.633
853, 1.74732, 0.231932, 196.485, -0.000976562, 0.000976562, -0.00195312, -0.0136719, 0.277344, -9.70898, 1.28.2022 18:35:46.641
854, 1.74732, 0.231932, 196.485, -0.000976562, 0, -0.000976562, -0.0498047, 0.290039, -9.73145, 1.28.2022 18:35:46.649
855, 1.74732, 0.231932, 196.485, 0, 0, -0.000976562, -0.0830078, 0.326172, -9.72559, 1.28.2022 18:35:46.657
856, 1.74732, 0.231932, 196.485, 0, 0, -0.000976562, 0.0244141, 0.289062, -9.69336, 1.28.2022 18:35:46.665
857, 1.74832, 0.225011, 196.485, 0, 0, -0.000976562, -0.0664062, 0.319336, -9.73828, 1.28.2022 18:35:46.673
858, 1.74832, 0.225011, 196.485, -0.000976562, 0, -0.000976562, -0.0537109, 0.308594, -9.7002, 1.28.2022 18:35:46.681
859, 1.74832, 0.225011, 196.485, 0, -0.000976562, -0.000976562, -0.0107422, 0.261719, -9.66992, 1.28.2022 18:35:46.689
860, 1.74832, 0.225011, 196.485, 0, -0.000976562, -0.000976562, -0.0966797, 0.308594, -9.71387, 1.28.2022 18:35:46.697
861, 1.74832, 0.225011, 196.485, 0, 0.000976562, -0.000976562, -0.0302734, 0.304688, -9.72266, 1.28.2022 18:35:46.705
862, 1.74832, 0.225011, 196.485, 0, 0, 0, -0.0273438, 0.319336, -9.67676, 1.28.2022 18:35:46.713
863, 1.74832, 0.225011, 196.485, 0, 0.000976562, 0, -0.0888672, 0.317383, -9.67871, 1.28.2022 18:35:46.721
864, 1.74832, 0.225011, 196.485, 0, 0, 0, -0.00878906, 0.273438, -9.72852, 1.28.2022 18:35:46.729
865, 1.74832, 0.225011, 196.485, 0, 0, 0.000976562, -0.0644531, 0.292969, -9.73828, 1.28.2022 18:35:46.737
866, 1.74732, 0.231932, 196.485, 0, -0.000976562, 0, -0.0419922, 0.290039, -9.70605, 1.28.2022 18:35:46.745
867, 1.74732, 0.231932, 196.485, 0, -0.000976562, 0, 0.00585938, 0.285156, -9.70898, 1.28.2022 18:35:46.753
868, 1.74732, 0.231932, 196.485, -0.000976562, 0, 0, -0.078125, 0.328125, -9.72559, 1.28.2022 18:35:46.761
869, 1.74732, 0.231932, 196.485, 0, -0.000976562, 0, -0.0537109, 0.330078, -9.71387, 1.28.2022 18:35:46.769
870, 1.74732, 0.231932, 196.485, 0, 0.000976562, 0, 0.000976562, 0.296875, -9.72559, 1.28.2022 18:35:46.777
871, 1.74732, 0.231932, 196.485, -0.000976562, -0.000976562, 0.000976562, -0.0683594, 0.293945, -9.70117, 1.28.2022 18:35:46.785
872, 1.74732, 0.231932, 196.485, 0, 0, -0.000976562, 0.0175781, 0.250977, -9.71484, 1.28.2022 18:35:46.793
873, 1.74732, 0.231932, 196.485, -0.000976562, -0.000976562, -0.000976562, -0.0439453, 0.272461, -9.69922, 1.28.2022 18:35:46.801
874, 1.74732, 0.231932, 196.485, -0.000976562, -0.000976562, 0, -0.0820312, 0.328125, -9.69727, 1.28.2022 18:35:46.809
875, 1.74732, 0.231932, 196.485, -0.000976562, 0, 0, 0.0078125, 0.287109, -9.72363, 1.28.2022 18:35:46.817
876, 1.74732, 0.231932, 196.485, -0.000976562, 0, 0, -0.0761719, 0.329102, -9.73242, 1.28.2022 18:35:46.825
877, 1.74732, 0.231932, 196.485, -0.000976562, 0, -0.000976562, -0.0205078, 0.308594, -9.70312, 1.28.2022 18:35:46.833
878, 1.75424, 0.232935, 196.485, -0.000976562, 0, 0, -0.0185547, 0.292969, -9.74609, 1.28.2022 18:35:46.841
879, 1.75424, 0.232935, 196.485, -0.000976562, 0, 0, -0.078125, 0.307617, -9.7334, 1.28.2022 18:35:46.849
880, 1.75424, 0.232935, 196.485, -0.000976562, 0, -0.000976562, -0.00390625, 0.290039, -9.7207, 1.28.2022 18:35:46.857
881, 1.75424, 0.232935, 196.485, -0.000976562, 0, 0.000976562, -0.0498047, 0.266602, -9.72266, 1.28.2022 18:35:46.865
882, 1.75424, 0.232935, 196.485, -0.000976562, 0.000976562, 0.000976562, -0.0839844, 0.297852, -9.6748, 1.28.2022 18:35:46.873
883, 1.75424, 0.232935, 196.485, -0.000976562, 0.000976562, 0, -0.00195312, 0.262695, -9.70312, 1.28.2022 18:35:46.881
884, 1.75424, 0.232935, 196.485, -0.00195312, 0.000976562, 0, -0.0849609, 0.308594, -9.69043, 1.28.2022 18:35:46.889
885, 1.75424, 0.232935, 196.485, -0.000976562, 0, 0, -0.0351562, 0.288086, -9.72461, 1.28.2022 18:35:46.897
886, 1.75424, 0.232935, 196.485, -0.000976562, 0, 0, -0.0283203, 0.28418, -9.75879, 1.28.2022 18:35:46.905
887, 1.75424, 0.232935, 196.485, -0.000976562, 0, -0.000976562, -0.0908203, 0.291016, -9.74316, 1.28.2022 18:35:46.913
888, 1.75424, 0.232935, 196.485, 0, -0.000976562, 0, 0.0126953, 0.323242, -9.72461, 1.28.2022 18:35:46.921
889, 1.75424, 0.232935, 196.485, 0, 0, 0, -0.0517578, 0.290039, -9.71777, 1.28.2022 18:35:46.927
890, 1.75424, 0.232935, 196.485, 0, 0, 0, -0.0732422, 0.316406, -9.71191, 1.28.2022 18:35:46.935
891, 1.75424, 0.232935, 196.485, 0, 0.000976562, 0, 0.00976562, 0.295898, -9.76367, 1.28.2022 18:35:46.943
892, 1.74732, 0.231932, 196.485, -0.000976562, 0, 0, -0.0761719, 0.28125, -9.72949, 1.28.2022 18:35:46.951
893, 1.74732, 0.231932, 196.485, -0.000976562, -0.000976562, 0, -0.0478516, 0.302734, -9.75488, 1.28.2022 18:35:46.959
894, 1.74732, 0.231932, 196.485, -0.000976562, 0, 0, -0.00878906, 0.290039, -9.72266, 1.28.2022 18:35:46.969
895, 1.74732, 0.231932, 196.485, 0.000976562, 0, 0, -0.0957031, 0.322266, -9.76074, 1.28.2022 18:35:46.975
896, 1.74632, 0.238853, 196.485, 0, 0, 0, 0.0126953, 0.299805, -9.73535, 1.28.2022 18:35:46.983
897, 1.74632, 0.238853, 196.485, -0.000976562, 0, -0.00195312, -0.0117188, 0.286133, -9.74219, 1.28.2022 18:35:46.991
898, 1.74632, 0.238853, 196.485, -0.000976562, -0.000976562, -0.00195312, -0.0869141, 0.303711, -9.68359, 1.28.2022 18:35:46.999
899, 1.74632, 0.238853, 196.485, 0, 0, 0, 0.0175781, 0.291992, -9.70898, 1.28.2022 18:35:47.007
900, 1.74632, 0.238853, 196.485, 0, 0, 0, -0.0761719, 0.299805, -9.72852, 1.28.2022 18:35:47.015
901, 1.74632, 0.238853, 196.485, 0, 0, -0.00195312, -0.0439453, 0.287109, -9.69922, 1.28.2022 18:35:47.023
902, 1.74632, 0.238853, 196.485, 0, 0, 0, -0.00878906, 0.287109, -9.71387, 1.28.2022 18:35:47.031
903, 1.74632, 0.238853, 196.485, -0.000976562, 0, 0, -0.0830078, 0.299805, -9.72656, 1.28.2022 18:35:47.039
904, 1.74632, 0.238853, 196.485, 0, 0, 0, -0.00585938, 0.289062, -9.69238, 1.28.2022 18:35:47.047
905, 1.74632, 0.238853, 196.485, -0.000976562, 0, 0, -0.0517578, 0.280273, -9.72754, 1.28.2022 18:35:47.055
906, 1.74632, 0.238853, 196.485, -0.000976562, 0.000976562, 0, -0.0791016, 0.319336, -9.66699, 1.28.2022 18:35:47.063
907, 1.74632, 0.238853, 196.485, -0.000976562, 0, 0.000976562, 0.0224609, 0.308594, -9.70898, 1.28.2022 18:35:47.071
908, 1.74632, 0.238853, 196.485, -0.000976562, -0.00195312, 0, -0.0527344, 0.289062, -9.76953, 1.28.2022 18:35:47.079
909, 1.74632, 0.238853, 196.485, -0.000976562, 0, -0.00195312, -0.0302734, 0.311523, -9.71777, 1.28.2022 18:35:47.087
910, 1.74632, 0.238853, 196.485, -0.000976562, 0, 0, 0.0458984, 0.275391, -9.71973, 1.28.2022 18:35:47.095
911, 1.74732, 0.231932, 196.485, -0.000976562, 0, 0.000976562, -0.0898438, 0.291992, -9.70996, 1.28.2022 18:35:47.103
912, 1.74732, 0.231932, 196.485, -0.000976562, -0.000976562, -0.00195312, -0.0322266, 0.28418, -9.69238, 1.28.2022 18:35:47.111
913, 1.74732, 0.231932, 196.485, 0, 0, 0, -0.0322266, 0.282227, -9.69727, 1.28.2022 18:35:47.119
914, 1.74732, 0.231932, 196.485, 0, -0.00195312, -0.000976562, -0.101562, 0.294922, -9.71875, 1.28.2022 18:35:47.127
915, 1.74732, 0.231932, 196.485, 0, 0, 0, -0.0136719, 0.280273, -9.73242, 1.28.2022 18:35:47.135
916, 1.74732, 0.231932, 196.485, 0, 0, 0, -0.0878906, 0.288086, -9.72656, 1.28.2022 18:35:47.143
917, 1.74732, 0.231932, 196.485, -0.000976562, 0, 0.000976562, -0.0400391, 0.303711, -9.69824, 1.28.2022 18:35:47.151
918, 1.74732, 0.231932, 196.485, -0.000976562, 0.000976562, 0, 0.0175781, 0.272461, -9.71191, 1.28.2022 18:35:47.159
919, 1.7404, 0.230929, 196.485, -0.000976562, 0, 0, -0.078125, 0.297852, -9.73145, 1.28.2022 18:35:47.167
920, 1.7404, 0.230929, 196.485, 0, 0, -0.00195312, -0.0253906, 0.311523, -9.70996, 1.28.2022 18:35:47.175
921, 1.7404, 0.230929, 196.485, 0, 0, 0, -0.0712891, 0.279297, -9.75781, 1.28.2022 18:35:47.183
922, 1.7404, 0.230929, 196.485, -0.000976562, 0, -0.00195312, -0.0800781, 0.330078, -9.69922, 1.28.2022 18:35:47.191
923, 1.7404, 0.230929, 196.485, 0, 0, -0.00195312, 0.00976562, 0.263672, -9.71484, 1.28.2022 18:35:47.199
924, 1.7404, 0.230929, 196.485, 0, 0.000976562, -0.00195312, -0.0351562, 0.280273, -9.7207, 1.28.2022 18:35:47.207
925, 1.74034, 0.231036, 196.492, -0.000976562, 0.000976562, -0.00195312, -0.0205078, 0.305664, -9.68262, 1.28.2022 18:35:47.215
926, 1.74034, 0.231036, 196.492, -0.000976562, 0.000976562, 0, 0.0146484, 0.253906, -9.71484, 1.28.2022 18:35:47.223
927, 1.7404, 0.230929, 196.485, 0, -0.000976562, 0.000976562, -0.0947266, 0.304688, -9.7168, 1.28.2022 18:35:47.231
928, 1.73349, 0.229927, 196.485, -0.000976562, -0.000976562, 0, -0.0498047, 0.274414, -9.75391, 1.28.2022 18:35:47.239
929, 1.73349, 0.229927, 196.485, -0.000976562, -0.000976562, 0.000976562, -0.0517578, 0.283203, -9.72461, 1.28.2022 18:35:47.247
930, 1.73349, 0.229927, 196.485, -0.000976562, -0.000976562, 0, -0.121094, 0.321289, -9.71582, 1.28.2022 18:35:47.255
931, 1.73349, 0.229927, 196.485, 0.000976562, -0.000976562, 0, -0.00195312, 0.294922, -9.73242, 1.28.2022 18:35:47.263
932, 1.73248, 0.236848, 196.485, -0.000976562, -0.000976562, 0, -0.0800781, 0.306641, -9.71875, 1.28.2022 18:35:47.271
933, 1.73248, 0.236848, 196.485, -0.00195312, -0.000976562, 0, -0.0683594, 0.298828, -9.70996, 1.28.2022 18:35:47.279
934, 1.73248, 0.236848, 196.485, -0.000976562, -0.000976562, 0, 0.0185547, 0.283203, -9.66699, 1.28.2022 18:35:47.287
935, 1.73248, 0.236848, 196.485, 0, -0.000976562, 0, -0.0664062, 0.292969, -9.72656, 1.28.2022 18:35:47.295
936, 1.73248, 0.236848, 196.485, 0, -0.000976562, 0, -0.0224609, 0.300781, -9.69434, 1.28.2022 18:35:47.303
937, 1.73248, 0.236848, 196.485, -0.000976562, -0.000976562, 0, -0.00878906, 0.27832, -9.72559, 1.28.2022 18:35:47.311
938, 1.73248, 0.236848, 196.485, -0.000976562, -0.000976562, 0, -0.0996094, 0.304688, -9.71191, 1.28.2022 18:35:47.319
939, 1.73248, 0.236848, 196.485, -0.000976562, -0.000976562, 0, -0.00878906, 0.27832, -9.73242, 1.28.2022 18:35:47.327
940, 1.73148, 0.243769, 196.484, 0, 0.000976562, 0, -0.0351562, 0.296875, -9.71582, 1.28.2022 18:35:47.335
941, 1.73148, 0.243769, 196.484, 0, -0.000976562, 0, -0.0654297, 0.3125, -9.68652, 1.28.2022 18:35:47.343
942, 1.73148, 0.243769, 196.484, 0, -0.00195312, 0, 0.0195312, 0.269531, -9.75195, 1.28.2022 18:35:47.351
943, 1.73148, 0.243769, 196.484, 0, -0.000976562, 0, -0.0693359, 0.293945, -9.75781, 1.28.2022 18:35:47.359
944, 1.73148, 0.243769, 196.484, 0, 0.000976562, 0, -0.0234375, 0.296875, -9.72266, 1.28.2022 18:35:47.367
945, 1.72456, 0.242766, 196.484, 0, -0.00195312, 0, -0.0166016, 0.266602, -9.75684, 1.28.2022 18:35:47.375
946, 1.72456, 0.242766, 196.484, 0, -0.00292969, 0.000976562, -0.0908203, 0.302734, -9.75, 1.28.2022 18:35:47.383
947, 1.72456, 0.242766, 196.484, -0.00195312, -0.000976562, 0.000976562, -0.0234375, 0.299805, -9.73242, 1.28.2022 18:35:47.391
948, 1.72456, 0.242766, 196.484, -0.000976562, -0.000976562, 0.000976562, -0.0712891, 0.304688, -9.7168, 1.28.2022 18:35:47.399
949, 1.72456, 0.242766, 196.484, 0, -0.000976562, 0, -0.0751953, 0.324219, -9.66895, 1.28.2022 18:35:47.407
950, 1.72456, 0.242766, 196.484, 0, -0.00195312, 0, -0.0302734, 0.270508, -9.71094, 1.28.2022 18:35:47.415
951, 1.72456, 0.242766, 196.484, 0, -0.00195312, 0, -0.0732422, 0.304688, -9.73145, 1.28.2022 18:35:47.423
952, 1.72456, 0.242766, 196.484, 0, -0.000976562, 0, -0.0400391, 0.280273, -9.72754, 1.28.2022 18:35:47.431
953, 1.72356, 0.249687, 196.484, 0, -0.000976562, 0, -0.0136719, 0.291992, -9.7207, 1.28.2022 18:35:47.439
954, 1.72356, 0.249687, 196.484, 0, -0.00195312, 0, -0.0898438, 0.30957, -9.71875, 1.28.2022 18:35:47.447
955, 1.72356, 0.249687, 196.484, 0, -0.000976562, 0, -0.00683594, 0.272461, -9.70703, 1.28.2022 18:35:47.455
956, 1.72356, 0.249687, 196.484, -0.000976562, -0.000976562, 0, -0.0380859, 0.27832, -9.72754, 1.28.2022 18:35:47.463
957, 1.72356, 0.249687, 196.484, -0.000976562, -0.000976562, 0.000976562, -0.0634766, 0.298828, -9.70996, 1.28.2022 18:35:47.471
958, 1.72356, 0.249687, 196.484, -0.000976562, 0, -0.000976562, -0.0117188, 0.28125, -9.75879, 1.28.2022 18:35:47.479
959, 1.72356, 0.249687, 196.484, 0, -0.000976562, -0.000976562, -0.0751953, 0.298828, -9.69531, 1.28.2022 18:35:47.487
960, 1.72356, 0.249687, 196.484, 0, -0.000976562, -0.00195312, -0.0253906, 0.304688, -9.72461, 1.28.2022 18:35:47.495
961, 1.72356, 0.249687, 196.484, -0.000976562, 0, -0.000976562, -0.0185547, 0.272461, -9.71191, 1.28.2022 18:35:47.503
962, 1.72356, 0.249687, 196.484, -0.000976562, 0, -0.000976562, -0.0947266, 0.321289, -9.73535, 1.28.2022 18:35:47.511
963, 1.72356, 0.249687, 196.484, 0.000976562, 0, -0.000976562, -0.00683594, 0.307617, -9.76074, 1.28.2022 18:35:47.519
964, 1.72356, 0.249687, 196.484, -0.000976562, 0, -0.00195312, -0.0517578, 0.294922, -9.73145, 1.28.2022 18:35:47.527
965, 1.72256, 0.256609, 196.484, -0.000976562, 0, -0.000976562, -0.0585938, 0.303711, -9.70996, 1.28.2022 18:35:47.535
966, 1.72256, 0.256609, 196.484, -0.00195312, -0.000976562, -0.00195312, 0.0107422, 0.291992, -9.71191, 1.28.2022 18:35:47.543
967, 1.72948, 0.257611, 196.484, -0.000976562, -0.000976562, -0.000976562, -0.0898438, 0.321289, -9.72754, 1.28.2022 18:35:47.551
968, 1.72948, 0.257611, 196.484, 0, 0, -0.000976562, -0.0566406, 0.293945, -9.69629, 1.28.2022 18:35:47.559
969, 1.72948, 0.257611, 196.484, 0, 0, -0.000976562, 0.0126953, 0.277344, -9.70703, 1.28.2022 18:35:47.567
970, 1.72948, 0.257611, 196.484, -0.000976562, 0, -0.000976562, -0.0849609, 0.294922, -9.71191, 1.28.2022 18:35:47.575
971, 1.72948, 0.257611, 196.484, -0.000976562, 0, -0.000976562, 0.00292969, 0.296875, -9.70898, 1.28.2022 18:35:47.583
972, 1.72948, 0.257611, 196.484, -0.000976562, 0, -0.000976562, -0.0478516, 0.264648, -9.74902, 1.28.2022 18:35:47.591
973, 1.73048, 0.25069, 196.484, -0.000976562, 0.000976562, -0.000976562, -0.0546875, 0.321289, -9.72656, 1.28.2022 18:35:47.599
974, 1.73048, 0.25069, 196.484, 0, 0, -0.000976562, 0.0126953, 0.291016, -9.69238, 1.28.2022 18:35:47.607
975, 1.73048, 0.25069, 196.484, -0.000976562, 0, -0.000976562, -0.078125, 0.302734, -9.75, 1.28.2022 18:35:47.615
976, 1.73048, 0.25069, 196.484, -0.000976562, 0, -0.000976562, -0.0332031, 0.324219, -9.74023, 1.28.2022 18:35:47.623
977, 1.73048, 0.25069, 196.484, 0, 0, -0.00195312, -0.00683594, 0.291992, -9.71387, 1.28.2022 18:35:47.631
978, 1.73048, 0.25069, 196.484, 0, 0, -0.00195312, -0.0830078, 0.325195, -9.7041, 1.28.2022 18:35:47.639
979, 1.73048, 0.25069, 196.484, 0, 0, -0.000976562, -0.0136719, 0.27832, -9.71582, 1.28.2022 18:35:47.647
980, 1.7374, 0.251693, 196.484, 0, 0, -0.000976562, -0.0234375, 0.307617, -9.74805, 1.28.2022 18:35:47.655
981, 1.7374, 0.251693, 196.484, 0, 0, -0.00195312, -0.0517578, 0.328125, -9.70996, 1.28.2022 18:35:47.663
982, 1.7374, 0.251693, 196.484, -0.000976562, 0, -0.000976562, 0.0214844, 0.299805, -9.73242, 1.28.2022 18:35:47.671
983, 1.7384, 0.244772, 196.484, -0.000976562, 0.000976562, 0, -0.0664062, 0.294922, -9.71289, 1.28.2022 18:35:47.679
984, 1.7384, 0.244772, 196.484, -0.000976562, 0.000976562, 0, -0.0517578, 0.301758, -9.71777, 1.28.2022 18:35:47.687
985, 1.7384, 0.244772, 196.484, -0.000976562, 0, -0.000976562, -0.00292969, 0.286133, -9.66895, 1.28.2022 18:35:47.695
986, 1.7384, 0.244772, 196.484, -0.000976562, 0, -0.00195312, -0.078125, 0.316406, -9.7168, 1.28.2022 18:35:47.703
987, 1.74632, 0.238853, 196.485, 0, 0, -0.00195312, 0.0078125, 0.306641, -9.71777, 1.28.2022 18:35:47.711
988, 1.74632, 0.238853, 196.485, -0.000976562, 0, -0.000976562, -0.0107422, 0.267578, -9.70508, 1.28.2022 18:35:47.719
989, 1.74632, 0.238853, 196.485, -0.000976562, 0, -0.000976562, -0.0595703, 0.314453, -9.74707, 1.28.2022 18:35:47.727
990, 1.74632, 0.238853, 196.485, -0.00195312, 0, 0, 0.0400391, 0.286133, -9.75488, 1.28.2022 18:35:47.735
991, 1.74732, 0.231932, 196.485, -0.000976562, 0, 0, -0.0478516, 0.3125, -9.74512, 1.28.2022 18:35:47.743
992, 1.74732, 0.231932, 196.485, -0.000976562, -0.00195312, 0, -0.0585938, 0.321289, -9.72363, 1.28.2022 18:35:47.751
993, 1.74732, 0.231932, 196.485, 0.000976562, 0, 0, 0.0078125, 0.275391, -9.72559, 1.28.2022 18:35:47.759
994, 1.74732, 0.231932, 196.485, -0.000976562, 0, 0, -0.101562, 0.293945, -9.70215, 1.28.2022 18:35:47.767
995, 1.74732, 0.231932, 196.485, -0.000976562, -0.00195312, 0.000976562, -0.0253906, 0.30957, -9.72461, 1.28.2022 18:35:47.775
996, 1.75524, 0.226014, 196.485, 0, 0, 0.000976562, -0.0263672, 0.286133, -9.7373, 1.28.2022 18:35:47.783
997, 1.75524, 0.226014, 196.485, -0.000976562, 0.000976562, 0.000976562, -0.0634766, 0.298828, -9.69336, 1.28.2022 18:35:47.791
998, 1.75524, 0.226014, 196.485, -0.000976562, 0, 0, 0.000976562, 0.27832, -9.71875, 1.28.2022 18:35:47.799
999, 1.75524, 0.226014, 196.485, -0.00195312, 0, 0, -0.0634766, 0.308594, -9.71484, 1.28.2022 18:35:47.807
1000, 1.75524, 0.226014, 196.485, 0, 0, -0.000976562, -0.0498047, 0.307617, -9.74316, 1.28.2022 18:35:47.815
1001, 1.75624, 0.219093, 196.485, 0, 0, -0.000976562, 0, 0.27832, -9.73535, 1.28.2022 18:35:47.823
1002, 1.75624, 0.219093, 196.485, 0, 0, 0.000976562, -0.0957031, 0.31543, -9.77539, 1.28.2022 18:35:47.831
1003, 1.75624, 0.219093, 196.485, -0.000976562, 0, 0, 0, 0.273438, -9.73535, 1.28.2022 18:35:47.839
1004, 1.75624, 0.219093, 196.485, -0.000976562, 0, 0, -0.03125, 0.292969, -9.74902, 1.28.2022 18:35:47.847
1005, 1.75624, 0.219093, 196.485, -0.000976562, 0, 0, -0.0917969, 0.313477, -9.71387, 1.28.2022 18:35:47.855
1006, 1.75624, 0.219093, 196.485, 0, -0.00195312, 0, 0.0175781, 0.313477, -9.72266, 1.28.2022 18:35:47.863
1007, 1.75624, 0.219093, 196.485, 0, -0.00195312, 0, -0.0332031, 0.304688, -9.74121, 1.28.2022 18:35:47.871
1008, 1.75624, 0.219093, 196.485, -0.000976562, -0.00195312, 0, -0.0439453, 0.303711, -9.68652, 1.28.2022 18:35:47.879
1009, 1.75624, 0.219093, 196.485, -0.000976562, 0, 0.000976562, 0.00390625, 0.261719, -9.66699, 1.28.2022 18:35:47.887
1010, 1.75624, 0.219093, 196.485, 0.000976562, 0.000976562, 0, -0.078125, 0.306641, -9.73047, 1.28.2022 18:35:47.895
1011, 1.75624, 0.219093, 196.485, 0, 0, 0, -0.0498047, 0.291992, -9.71484, 1.28.2022 18:35:47.901
1012, 1.75624, 0.219093, 196.485, -0.000976562, 0, 0, -0.0517578, 0.292969, -9.74121, 1.28.2022 18:35:47.909
1013, 1.75624, 0.219093, 196.485, 0, 0, 0, -0.0849609, 0.311523, -9.7168, 1.28.2022 18:35:47.917
1014, 1.75624, 0.219093, 196.485, 0, 0, 0, 0.00292969, 0.282227, -9.70703, 1.28.2022 18:35:47.925
1015, 1.74932, 0.21809, 196.485, 0, 0, 0, -0.0400391, 0.319336, -9.72852, 1.28.2022 18:35:47.933
1016, 1.74932, 0.21809, 196.485, 0.000976562, 0, 0, -0.0498047, 0.347656, -9.72559, 1.28.2022 18:35:47.941
1017, 1.74932, 0.21809, 196.485, 0, 0, -0.000976562, 0.0214844, 0.272461, -9.76855, 1.28.2022 18:35:47.949
1018, 1.74932, 0.21809, 196.485, 0, 0.000976562, -0.000976562, -0.109375, 0.283203, -9.74023, 1.28.2022 18:35:47.957
1019, 1.74932, 0.21809, 196.485, 0, 0, 0, -0.0537109, 0.303711, -9.70996, 1.28.2022 18:35:47.965
1020, 1.74932, 0.21809, 196.485, 0, 0, 0, -0.0185547, 0.283203, -9.7207, 1.28.2022 18:35:47.973
1021, 1.74932, 0.21809, 196.485, 0, 0, 0, -0.0800781, 0.329102, -9.67383, 1.28.2022 18:35:47.981
1022, 1.74932, 0.21809, 196.485, 0, 0, 0.000976562, -0.0205078, 0.308594, -9.69141, 1.28.2022 18:35:47.989
1023, 1.74932, 0.21809, 196.485, 0.000976562, -0.00195312, -0.000976562, -0.0371094, 0.282227, -9.69434, 1.28.2022 18:35:47.997
1024, 1.74832, 0.225011, 196.485, 0, -0.00195312, -0.000976562, -0.0371094, 0.313477, -9.69629, 1.28.2022 18:35:48.005
1025, 1.74832, 0.225011, 196.485, 0, 0, 0.000976562, -0.00878906, 0.270508, -9.70508, 1.28.2022 18:35:48.013
1026, 1.75524, 0.226014, 196.485, 0, -0.00195312, -0.000976562, -0.0683594, 0.305664, -9.69141, 1.28.2022 18:35:48.021
1027, 1.75524, 0.226014, 196.485, 0, 0, -0.00195312, -0.0253906, 0.304688, -9.72266, 1.28.2022 18:35:48.029
1028, 1.75524, 0.226014, 196.485, 0, -0.00195312, -0.000976562, -0.00195312, 0.282227, -9.71191, 1.28.2022 18:35:48.037
1029, 1.75524, 0.226014, 196.485, 0, 0, -0.000976562, -0.0712891, 0.302734, -9.74023, 1.28.2022 18:35:48.045
1030, 1.75524, 0.226014, 196.485, 0, 0, -0.000976562, 0.0273438, 0.287109, -9.71387, 1.28.2022 18:35:48.053
1031, 1.75524, 0.226014, 196.485, 0, 0, -0.00195312, -0.0283203, 0.296875, -9.71289, 1.28.2022 18:35:48.061
1032, 1.75524, 0.226014, 196.485, -0.000976562, 0, -0.000976562, -0.0566406, 0.297852, -9.74609, 1.28.2022 18:35:48.069
1033, 1.75524, 0.226014, 196.485, 0, -0.00195312, -0.000976562, 0.0078125, 0.297852, -9.74219, 1.28.2022 18:35:48.077
1034, 1.75524, 0.226014, 196.485, 0, 0, -0.00195312, -0.0703125, 0.311523, -9.70508, 1.28.2022 18:35:48.085
1035, 1.75524, 0.226014, 196.485, 0, 0, 0.000976562, -0.0400391, 0.311523, -9.73145, 1.28.2022 18:35:48.093
1036, 1.75524, 0.226014, 196.485, -0.000976562, 0.000976562, -0.000976562, 0.000976562, 0.306641, -9.72754, 1.28.2022 18:35:48.101
1037, 1.75624, 0.219093, 196.485, -0.000976562, 0, 0.000976562, -0.0927734, 0.307617, -9.73047, 1.28.2022 18:35:48.109
1038, 1.75624, 0.219093, 196.485, 0, 0.000976562, -0.000976562, 0.0146484, 0.285156, -9.72168, 1.28.2022 18:35:48.117
1039, 1.75624, 0.219093, 196.485, 0, 0, -0.000976562, -0.0732422, 0.277344, -9.69922, 1.28.2022 18:35:48.125
1040, 1.75624, 0.219093, 196.485, 0, 0, -0.000976562, -0.0585938, 0.316406, -9.71484, 1.28.2022 18:35:48.133
1041, 1.75624, 0.219093, 196.485, 0, 0, -0.000976562, -0.00683594, 0.291992, -9.72266, 1.28.2022 18:35:48.141
1042, 1.75624, 0.219093, 196.485, 0.000976562, -0.00195312, -0.000976562, -0.0683594, 0.299805, -9.71191, 1.28.2022 18:35:48.149
1043, 1.75624, 0.219093, 196.485, 0, -0.00195312, -0.000976562, -0.0517578, 0.306641, -9.73145, 1.28.2022 18:35:48.157
1044, 1.75624, 0.219093, 196.485, -0.000976562, 0, -0.000976562, 0.00976562, 0.280273, -9.71191, 1.28.2022 18:35:48.165
1045, 1.75624, 0.219093, 196.485, -0.000976562, 0.000976562, -0.000976562, -0.0927734, 0.318359, -9.71582, 1.28.2022 18:35:48.173
1046, 1.75624, 0.219093, 196.485, 0, 0, -0.000976562, -0.00878906, 0.296875, -9.70605, 1.28.2022 18:35:48.181
1047, 1.75624, 0.219093, 196.485, 0, 0, -0.000976562, -0.0253906, 0.291992, -9.71094, 1.28.2022 18:35:48.189
1048, 1.75624, 0.219093, 196.485, -0.000976562, 0, -0.000976562, -0.0654297, 0.336914, -9.69727, 1.28.2022 18:35:48.197
1049, 1.75624, 0.219093, 196.485, -0.000976562, 0, -0.000976562, 0.0107422, 0.279297, -9.68066, 1.28.2022 18:35:48.205
1050, 1.75624, 0.219093, 196.485, 0, 0, 0.000976562, -0.0751953, 0.311523, -9.70996, 1.28.2022 18:35:48.213
1051, 1.75624, 0.219093, 196.485, 0, 0, -0.000976562, -0.0537109, 0.298828, -9.69141, 1.28.2022 18:35:48.221
1052, 1.75624, 0.219093, 196.485, 0, 0, -0.000976562, -0.0117188, 0.270508, -9.7207, 1.28.2022 18:35:48.229
1053, 1.75624, 0.219093, 196.485, 0, -0.00195312, -0.000976562, -0.078125, 0.30957, -9.74023, 1.28.2022 18:35:48.237
1054, 1.75624, 0.219093, 196.485, 0, -0.000976562, -0.000976562, -0.0166016, 0.297852, -9.76074, 1.28.2022 18:35:48.245
1055, 1.75624, 0.219093, 196.485, 0, 0, -0.000976562, -0.0664062, 0.28125, -9.74121, 1.28.2022 18:35:48.253
1056, 1.75624, 0.219093, 196.485, 0.000976562, 0, -0.000976562, -0.078125, 0.319336, -9.74902, 1.28.2022 18:35:48.261
1057, 1.75624, 0.219093, 196.485, 0, 0.000976562, 0, 0.00585938, 0.265625, -9.69824, 1.28.2022 18:35:48.269
1058, 1.75624, 0.219093, 196.485, 0, 0, -0.000976562, -0.0615234, 0.268555, -9.73438, 1.28.2022 18:35:48.277
1059, 1.75624, 0.219093, 196.485, 0, 0, -0.000976562, -0.0751953, 0.282227, -9.70605, 1.28.2022 18:35:48.285
1060, 1.75524, 0.226014, 196.485, 0, -0.00195312, -0.000976562, -0.00195312, 0.294922, -9.71582, 1.28.2022 18:35:48.293
1061, 1.75524, 0.226014, 196.485, 0, 0, -0.000976562, -0.0771484, 0.310547, -9.68555, 1.28.2022 18:35:48.301
1062, 1.75524, 0.226014, 196.485, 0, 0, -0.000976562, -0.0117188, 0.304688, -9.73242, 1.28.2022 18:35:48.309
1063, 1.75524, 0.226014, 196.485, -0.000976562, 0, -0.000976562, 0, 0.259766, -9.73828, 1.28.2022 18:35:48.317
1064, 1.75524, 0.226014, 196.485, 0, -0.000976562, -0.00195312, -0.0517578, 0.311523, -9.72363, 1.28.2022 18:35:48.325
