Seq, Rot x, Rot y, Rot z, Vel x, Vel y, Vel z, Acc x, Acc y, Acc z, Time(m.d.y h:m:s.ms)
0, 1.75897, 0.248105, 196.506, 0.000976562, 0, -0.000976562, -0.111328, 0.294922, -9.71875, 1.28.2022 18:36:59.524
1, 1.75897, 0.248105, 196.506, 0, 0, -0.000976562, -0.0136719, 0.277344, -9.71191, 1.28.2022 18:36:59.530
2, 1.75897, 0.248105, 196.506, 0, -0.000976562, -0.000976562, -0.0400391, 0.291016, -9.74121, 1.28.2022 18:36:59.538
3, 1.75897, 0.248105, 196.506, -0.000976562, 0, -0.00195312, -0.0634766, 0.31543, -9.67676, 1.28.2022 18:36:59.546
4, 1.75897, 0.248105, 196.506, 0, 0.000976562, -0.00195312, 0.0107422, 0.28418, -9.69727, 1.28.2022 18:36:59.554
5, 1.75897, 0.248105, 196.506, -0.000976562, 0.000976562, -0.000976562, -0.0732422, 0.307617, -9.73828, 1.28.2022 18:36:59.562
6, 1.75897, 0.248105, 196.506, -0.000976562, 0, -0.000976562, -0.0488281, 0.310547, -9.69336, 1.28.2022 18:36:59.570
7, 1.75897, 0.248105, 196.506, 0, 0, -0.000976562, -0.0175781, 0.27832, -9.66699, 1.28.2022 18:36:59.578
8, 1.75897, 0.248105, 196.506, 0, 0, -0.000976562, -0.106445, 0.303711, -9.68848, 1.28.2022 18:36:59.586
9, 1.75897, 0.248105, 196.506, 0, 0, -0.000976562, 0.0166016, 0.280273, -9.73535, 1.28.2022 18:36:59.594
10, 1.75897, 0.248105, 196.506, 0, 0.000976562, -0.000976562, -0.0380859, 0.283203, -9.72559, 1.28.2022 18:36:59.602
11, 1.75897, 0.248105, 196.506, 0.000976562, 0, -0.000976562, -0.0859375, 0.321289, -9.7373, 1.28.2022 18:36:59.610
12, 1.75897, 0.248105, 196.506, -0.000976562, 0, -0.000976562, 0.0322266, 0.282227, -9.70996, 1.28.2022 18:36:59.618
13, 1.75897, 0.248105, 196.506, 0, 0, -0.000976562, -0.0595703, 0.317383, -9.74316, 1.28.2022 18:36:59.626
14, 1.75897, 0.248105, 196.506, -0.000976562, 0.000976562, -0.000976562, -0.0341797, 0.322266, -9.66992, 1.28.2022 18:36:59.634
15, 1.75997, 0.241184, 196.506, -0.000976562, 0, -0.000976562, -0.015625, 0.300781, -9.68945, 1.28.2022 18:36:59.642
16, 1.75997, 0.241184, 196.506, -0.000976562, 0.000976562, -0.000976562, -0.09375, 0.291016, -9.66992, 1.28.2022 18:36:59.650
17, 1.75997, 0.241184, 196.506, -0.000976562, 0, -0.000976562, 0.00390625, 0.286133, -9.66699, 1.28.2022 18:36:59.658
18, 1.75997, 0.241184, 196.506, 0, 0, -0.000976562, -0.0273438, 0.279297, -9.67578, 1.28.2022 18:36:59.666
19, 1.75997, 0.241184, 196.506, -0.000976562, -0.000976562, -0.00195312, -0.101562, 0.311523, -9.71875, 1.28.2022 18:36:59.674
20, 1.75997, 0.241184, 196.506, -0.000976562, 0, -0.000976562, 0.00488281, 0.292969, -9.73535, 1.28.2022 18:36:59.682
21, 1.75997, 0.241184, 196.506, 0, -0.000976562, 0, -0.0664062, 0.326172, -9.74023, 1.28.2022 18:36:59.690
22, 1.75997, 0.241184, 196.506, -0.000976562, -0.000976562, -0.000976562, -0.0566406, 0.311523, -9.70312, 1.28.2022 18:36:59.698
23, 1.75997, 0.241184, 196.506, -0.000976562, -0.000976562, 0, 0.0175781, 0.280273, -9.72363, 1.28.2022 18:36:59.706
24, 1.75997, 0.241184, 196.506, -0.000976562, -0.000976562, 0, -0.0927734, 0.324219, -9.75586, 1.28.2022 18:36:59.714
25, 1.75997, 0.241184, 196.506, -0.000976562, 0.000976562, -0.000976562, -0.0214844, 0.288086, -9.73047, 1.28.2022 18:36:59.722
26, 1.75997, 0.241184, 196.506, -0.000976562, 0, -0.000976562, -0.0273438, 0.286133, -9.67773, 1.28.2022 18:36:59.730
27, 1.75997, 0.241184, 196.506, -0.000976562, 0, -0.000976562, -0.108398, 0.327148, -9.69238, 1.28.2022 18:36:59.738
28, 1.75997, 0.241184, 196.506, -0.000976562, 0, -0.000976562, -0.0078125, 0.276367, -9.66895, 1.28.2022 18:36:59.746
29, 1.75997, 0.241184, 196.506, -0.000976562, 0, -0.000976562, -0.0488281, 0.28418, -9.69922, 1.28.2022 18:36:59.754
30, 1.75997, 0.241184, 196.506, 0, -0.000976562, -0.000976562, -0.0566406, 0.321289, -9.72852, 1.28.2022 18:36:59.762
31, 1.75997, 0.241184, 196.506, 0, 0, -0.000976562, 0.00976562, 0.294922, -9.72363, 1.28.2022 18:36:59.770
32, 1.75997, 0.241184, 196.506, 0, 0, -0.000976562, -0.0800781, 0.304688, -9.72168, 1.28.2022 18:36:59.778
33, 1.75997, 0.241184, 196.506, -0.000976562, -0.00195312, -0.000976562, -0.0371094, 0.333008, -9.72363, 1.28.2022 18:36:59.786
34, 1.75997, 0.241184, 196.506, 0, 0, -0.000976562, -0.0439453, 0.303711, -9.69824, 1.28.2022 18:36:59.794
35, 1.76689, 0.242188, 196.506, -0.000976562, 0, 0, -0.0830078, 0.293945, -9.70312, 1.28.2022 18:36:59.802
36, 1.76689, 0.242188, 196.506, 0.000976562, 0, -0.000976562, 0.00488281, 0.30957, -9.73926, 1.28.2022 18:36:59.810
37, 1.76689, 0.242188, 196.506, 0, 0, -0.00195312, -0.03125, 0.291016, -9.76074, 1.28.2022 18:36:59.818
38, 1.76689, 0.242188, 196.506, 0, 0, -0.000976562, -0.0322266, 0.283203, -9.65918, 1.28.2022 18:36:59.826
39, 1.76689, 0.242188, 196.506, 0, -0.00292969, -0.00195312, -0.0107422, 0.279297, -9.69043, 1.28.2022 18:36:59.834
40, 1.76689, 0.242188, 196.506, -0.000976562, -0.00195312, -0.00195312, -0.0830078, 0.337891, -9.70898, 1.28.2022 18:36:59.842
41, 1.76689, 0.242188, 196.506, -0.000976562, -0.00195312, -0.000976562, -0.0449219, 0.304688, -9.74609, 1.28.2022 18:36:59.850
42, 1.76689, 0.242188, 196.506, 0, 0, 0.000976562, -0.0380859, 0.28418, -9.75586, 1.28.2022 18:36:59.858
43, 1.76689, 0.242188, 196.506, -0.000976562, 0, 0, -0.0761719, 0.3125, -9.75, 1.28.2022 18:36:59.866
44, 1.76689, 0.242188, 196.506, 0, 0, -0.00195312, 0.00585938, 0.272461, -9.70996, 1.28.2022 18:36:59.874
45, 1.76689, 0.242188, 196.506, 0.000976562, -0.00195312, -0.000976562, -0.046875, 0.297852, -9.72656, 1.28.2022 18:36:59.882
46, 1.76689, 0.242188, 196.506, 0, -0.00195312, 0.000976562, -0.0546875, 0.30957, -9.71973, 1.28.2022 18:36:59.890
47, 1.76689, 0.242188, 196.506, 0.000976562, -0.00195312, -0.000976562, 0.00878906, 0.269531, -9.67871, 1.28.2022 18:36:59.898
48, 1.76689, 0.242188, 196.506, 0, -0.00195312, -0.000976562, -0.0800781, 0.311523, -9.7168, 1.28.2022 18:36:59.906
49, 1.76689, 0.242188, 196.506, 0, 0, 0.000976562, -0.0302734, 0.296875, -9.69629, 1.28.2022 18:36:59.914
50, 1.76689, 0.242188, 196.506, -0.000976562, 0, 0, -0.0214844, 0.28125, -9.75586, 1.28.2022 18:36:59.922
51, 1.76689, 0.242188, 196.506, -0.000976562, 0.000976562, 0, -0.0927734, 0.321289, -9.7207, 1.28.2022 18:36:59.930
52, 1.76689, 0.242188, 196.506, -0.000976562, 0, -0.00195312, -0.00683594, 0.294922, -9.73926, 1.28.2022 18:36:59.938
53, 1.76689, 0.242188, 196.506, -0.000976562, 0, -0.00195312, -0.0400391, 0.292969, -9.72754, 1.28.2022 18:36:59.946
54, 1.76689, 0.242188, 196.506, -0.000976562, 0, 0, -0.0449219, 0.316406, -9.70996, 1.28.2022 18:36:59.954
55, 1.76689, 0.242188, 196.506, -0.000976562, 0, 0.000976562, -0.00878906, 0.311523, -9.72266, 1.28.2022 18:36:59.962
56, 1.76689, 0.242188, 196.506, -0.000976562, 0, 0, -0.0722656, 0.34082, -9.65918, 1.28.2022 18:36:59.970
57, 1.76689, 0.242188, 196.506, -0.000976562, 0, 0, -0.0537109, 0.295898, -9.69141, 1.28.2022 18:36:59.978
58, 1.76689, 0.242188, 196.506, -0.000976562, 0, -0.00195312, -0.00683594, 0.269531, -9.74219, 1.28.2022 18:36:59.986
59, 1.76689, 0.242188, 196.506, 0, 0, -0.00195312, -0.0898438, 0.318359, -9.71582, 1.28.2022 18:36:59.994
60, 1.76689, 0.242188, 196.506, 0, 0, 0.000976562, 0.0078125, 0.288086, -9.7373, 1.28.2022 18:37:0.002
61, 1.76689, 0.242188, 196.506, -0.000976562, 0.000976562, 0, -0.0136719, 0.31543, -9.70801, 1.28.2022 18:37:0.010
62, 1.76689, 0.242188, 196.506, 0.000976562, 0, -0.000976562, -0.0595703, 0.300781, -9.74512, 1.28.2022 18:37:0.018
63, 1.76689, 0.242188, 196.506, -0.000976562, 0.000976562, 0.000976562, 0.00488281, 0.261719, -9.73145, 1.28.2022 18:37:0.026
64, 1.76689, 0.242188, 196.506, -0.000976562, 0, 0, -0.0664062, 0.292969, -9.73145, 1.28.2022 18:37:0.034
65, 1.76689, 0.242188, 196.506, 0, 0, 0, -0.0488281, 0.287109, -9.69141, 1.28.2022 18:37:0.042
66, 1.76789, 0.235267, 196.506, -0.000976562, -0.000976562, 0, 0.0175781, 0.300781, -9.69727, 1.28.2022 18:37:0.050
67, 1.76789, 0.235267, 196.506, -0.000976562, -0.000976562, -0.00195312, -0.0712891, 0.299805, -9.74316, 1.28.2022 18:37:0.058
68, 1.76789, 0.235267, 196.506, -0.000976562, -0.000976562, 0, -0.00683594, 0.271484, -9.7373, 1.28.2022 18:37:0.066
69, 1.76789, 0.235267, 196.506, 0, 0, -0.00195312, -0.0517578, 0.300781, -9.69629, 1.28.2022 18:37:0.074
70, 1.76789, 0.235267, 196.506, 0, 0, 0, -0.0917969, 0.306641, -9.70703, 1.28.2022 18:37:0.082
71, 1.76097, 0.234263, 196.506, 0, 0, 0, 0.0205078, 0.277344, -9.69531, 1.28.2022 18:37:0.090
72, 1.76097, 0.234263, 196.506, 0, 0, 0, -0.0986328, 0.260742, -9.68652, 1.28.2022 18:37:0.098
73, 1.76097, 0.234263, 196.506, 0, -0.000976562, 0.000976562, -0.0332031, 0.304688, -9.71777, 1.28.2022 18:37:0.106
74, 1.76097, 0.234263, 196.506, 0, -0.000976562, -0.00195312, -0.00390625, 0.295898, -9.68945, 1.28.2022 18:37:0.114
75, 1.76097, 0.234263, 196.506, -0.000976562, -0.000976562, 0, -0.101562, 0.323242, -9.71875, 1.28.2022 18:37:0.122
76, 1.76097, 0.234263, 196.506, -0.000976562, -0.000976562, 0, 0.00585938, 0.305664, -9.68945, 1.28.2022 18:37:0.130
77, 1.76097, 0.234263, 196.506, 0, 0, -0.00195312, -0.0273438, 0.255859, -9.68555, 1.28.2022 18:37:0.138
78, 1.76097, 0.234263, 196.506, 0, -0.000976562, -0.00195312, -0.0683594, 0.290039, -9.73633, 1.28.2022 18:37:0.146
79, 1.75406, 0.233259, 196.506, 0, 0, -0.00195312, 0.0273438, 0.265625, -9.70312, 1.28.2022 18:37:0.154
80, 1.75406, 0.233259, 196.506, 0, 0.000976562, -0.000976562, -0.0546875, 0.266602, -9.72559, 1.28.2022 18:37:0.162
81, 1.75406, 0.233259, 196.506, 0, 0, 0, -0.0478516, 0.274414, -9.74609, 1.28.2022 18:37:0.170
82, 1.75406, 0.233259, 196.506, 0, 0, 0.000976562, -0.0253906, 0.280273, -9.72754, 1.28.2022 18:37:0.178
83, 1.74714, 0.232255, 196.506, 0, 0, 0.000976562, -0.0917969, 0.333008, -9.71582, 1.28.2022 18:37:0.186
84, 1.74714, 0.232255, 196.506, 0, 0, 0.000976562, -0.00878906, 0.290039, -9.72266, 1.28.2022 18:37:0.194
85, 1.74714, 0.232255, 196.506, -0.000976562, -0.000976562, 0, -0.0185547, 0.253906, -9.72852, 1.28.2022 18:37:0.202
86, 1.74714, 0.232255, 196.506, -0.00195312, 0, -0.000976562, -0.0664062, 0.314453, -9.72656, 1.28.2022 18:37:0.210
87, 1.74022, 0.231251, 196.506, -0.000976562, 0, 0, 0.0263672, 0.268555, -9.71973, 1.28.2022 18:37:0.218
88, 1.74022, 0.231251, 196.506, 0, 0, -0.00195312, -0.0751953, 0.310547, -9.68848, 1.28.2022 18:37:0.226
89, 1.74022, 0.231251, 196.506, 0, 0, 0, -0.0625, 0.300781, -9.66797, 1.28.2022 18:37:0.234
90, 1.74022, 0.231251, 196.506, 0, -0.000976562, 0, 0.0078125, 0.308594, -9.71582, 1.28.2022 18:37:0.242
91, 1.74022, 0.231251, 196.506, 0, 0, 0, -0.109375, 0.292969, -9.74023, 1.28.2022 18:37:0.250
92, 1.73331, 0.230247, 196.506, 0, 0, -0.00195312, -0.0234375, 0.287109, -9.71387, 1.28.2022 18:37:0.258
93, 1.73331, 0.230247, 196.506, 0, 0, 0, -0.0253906, 0.296875, -9.72754, 1.28.2022 18:37:0.266
94, 1.73331, 0.230247, 196.506, 0.000976562, -0.000976562, 0, -0.0615234, 0.301758, -9.72461, 1.28.2022 18:37:0.274
95, 1.73331, 0.230247, 196.506, 0, 0, 0, 0.0214844, 0.310547, -9.75879, 1.28.2022 18:37:0.282
96, 1.73331, 0.230247, 196.506, 0, 0.000976562, 0, -0.0390625, 0.289062, -9.67285, 1.28.2022 18:37:0.290
97, 1.73331, 0.230247, 196.506, -0.000976562, -0.000976562, 0.000976562, -0.0400391, 0.280273, -9.71094, 1.28.2022 18:37:0.298
98, 1.73331, 0.230247, 196.506, 0, 0, 0.000976562, 0.000976562, 0.275391, -9.70508, 1.28.2022 18:37:0.306
99, 1.73431, 0.223326, 196.506, 0, 0, 0, -0.0947266, 0.301758, -9.71191, 1.28.2022 18:37:0.314
100, 1.72739, 0.222322, 196.506, -0.000976562, 0, 0, -0.0273438, 0.255859, -9.69043, 1.28.2022 18:37:0.322
101, 1.72739, 0.222322, 196.506, -0.000976562, 0, 0, -0.0517578, 0.273438, -9.72754, 1.28.2022 18:37:0.330
102, 1.72739, 0.222322, 196.506, 0, -0.000976562, 0, -0.0878906, 0.308594, -9.70898, 1.28.2022 18:37:0.338
103, 1.72739, 0.222322, 196.506, 0, -0.000976562, 0, -0.0302734, 0.283203, -9.7207, 1.28.2022 18:37:0.346
104, 1.72639, 0.229243, 196.506, 0, -0.000976562, -0.000976562, -0.015625, 0.287109, -9.71582, 1.28.2022 18:37:0.354
105, 1.72639, 0.229243, 196.506, -0.000976562, 0, 0, -0.0302734, 0.280273, -9.71777, 1.28.2022 18:37:0.362
106, 1.72639, 0.229243, 196.506, 0, 0, -0.000976562, 0.0214844, 0.28125, -9.74023, 1.28.2022 18:37:0.370
107, 1.72639, 0.229243, 196.506, 0, 0, -0.000976562, -0.0927734, 0.314453, -9.72363, 1.28.2022 18:37:0.378
108, 1.72639, 0.229243, 196.506, 0, 0, 0.000976562, -0.0332031, 0.305664, -9.75488, 1.28.2022 18:37:0.386
109, 1.71947, 0.228239, 196.506, 0, 0, 0.000976562, -0.0273438, 0.300781, -9.66602, 1.28.2022 18:37:0.394
110, 1.71947, 0.228239, 196.506, 0, 0, 0, -0.0996094, 0.321289, -9.73047, 1.28.2022 18:37:0.402
111, 1.71947, 0.228239, 196.506, -0.000976562, 0, 0, 0.00488281, 0.302734, -9.75879, 1.28.2022 18:37:0.408
112, 1.71947, 0.228239, 196.506, 0, 0, 0, -0.046875, 0.319336, -9.7334, 1.28.2022 18:37:0.416
113, 1.71947, 0.228239, 196.506, -0.000976562, 0, 0, -0.0830078, 0.345703, -9.72754, 1.28.2022 18:37:0.424
114, 1.72639, 0.229243, 196.506, 0, -0.000976562, 0, -0.00390625, 0.289062, -9.7041, 1.28.2022 18:37:0.432
115, 1.72639, 0.229243, 196.506, 0, 0, 0, -0.0947266, 0.299805, -9.70996, 1.28.2022 18:37:0.440
116, 1.72639, 0.229243, 196.506, 0, 0.000976562, 0, -0.0175781, 0.303711, -9.68457, 1.28.2022 18:37:0.448
117, 1.72639, 0.229243, 196.506, 0, 0.000976562, 0.000976562, -0.015625, 0.280273, -9.71387, 1.28.2022 18:37:0.456
118, 1.72639, 0.229243, 196.506, 0, 0, 0.000976562, -0.0761719, 0.30957, -9.72656, 1.28.2022 18:37:0.464
119, 1.72639, 0.229243, 196.506, -0.000976562, 0, 0, -0.0302734, 0.287109, -9.68945, 1.28.2022 18:37:0.472
120, 1.73331, 0.230247, 196.506, -0.000976562, 0, -0.000976562, -0.0253906, 0.27832, -9.72266, 1.28.2022 18:37:0.480
121, 1.73331, 0.230247, 196.506, -0.000976562, -0.000976562, 0, -0.078125, 0.30957, -9.74512, 1.28.2022 18:37:0.488
122, 1.73331, 0.230247, 196.506, 0, -0.000976562, 0, 0, 0.28125, -9.74707, 1.28.2022 18:37:0.496
123, 1.73331, 0.230247, 196.506, 0, -0.000976562, 0, -0.0488281, 0.311523, -9.70801, 1.28.2022 18:37:0.504
124, 1.73331, 0.230247, 196.506, -0.000976562, -0.000976562, 0, -0.0107422, 0.330078, -9.69824, 1.28.2022 18:37:0.512
125, 1.73331, 0.230247, 196.506, 0, 0, 0, -0.00488281, 0.28418, -9.75879, 1.28.2022 18:37:0.520
126, 1.74022, 0.231251, 196.506, 0, -0.000976562, 0, -0.0761719, 0.307617, -9.75488, 1.28.2022 18:37:0.528
127, 1.74022, 0.231251, 196.506, 0, 0, 0, -0.00585938, 0.298828, -9.69238, 1.28.2022 18:37:0.536
128, 1.74022, 0.231251, 196.506, -0.000976562, 0, 0.000976562, -0.0546875, 0.304688, -9.72656, 1.28.2022 18:37:0.544
129, 1.74022, 0.231251, 196.506, 0, -0.000976562, -0.000976562, -0.078125, 0.299805, -9.73535, 1.28.2022 18:37:0.552
130, 1.74022, 0.231251, 196.506, -0.000976562, 0, -0.00195312, 0.0166016, 0.280273, -9.7334, 1.28.2022 18:37:0.560
131, 1.74022, 0.231251, 196.506, -0.000976562, 0, -0.00195312, -0.0419922, 0.275391, -9.71777, 1.28.2022 18:37:0.568
132, 1.74022, 0.231251, 196.506, 0, -0.000976562, -0.00195312, -0.0400391, 0.299805, -9.71973, 1.28.2022 18:37:0.576
133, 1.74022, 0.231251, 196.506, 0, 0, -0.00195312, -0.00683594, 0.268555, -9.72852, 1.28.2022 18:37:0.584
134, 1.74022, 0.231251, 196.506, 0, -0.000976562, 0, -0.0849609, 0.333008, -9.7207, 1.28.2022 18:37:0.592
135, 1.74022, 0.231251, 196.506, 0, 0, 0, 0.00976562, 0.297852, -9.73242, 1.28.2022 18:37:0.600
136, 1.74022, 0.231251, 196.506, 0, -0.000976562, -0.000976562, -0.0585938, 0.267578, -9.69922, 1.28.2022 18:37:0.608
137, 1.74714, 0.232255, 196.506, 0, -0.000976562, -0.00195312, -0.0712891, 0.320312, -9.75879, 1.28.2022 18:37:0.616
138, 1.74714, 0.232255, 196.506, -0.000976562, 0, -0.000976562, -0.0136719, 0.28418, -9.69434, 1.28.2022 18:37:0.624
139, 1.74714, 0.232255, 196.506, 0.000976562, 0.000976562, -0.000976562, -0.0976562, 0.307617, -9.74707, 1.28.2022 18:37:0.632
140, 1.74714, 0.232255, 196.506, -0.000976562, 0, -0.00195312, -0.0283203, 0.296875, -9.72266, 1.28.2022 18:37:0.640
141, 1.74714, 0.232255, 196.506, 0.000976562, -0.000976562, -0.000976562, -0.0136719, 0.28125, -9.73926, 1.28.2022 18:37:0.648
142, 1.74714, 0.232255, 196.506, -0.000976562, 0, 0.000976562, -0.0917969, 0.318359, -9.69922, 1.28.2022 18:37:0.656
143, 1.74714, 0.232255, 196.506, -0.000976562, 0, -0.00195312, 0.00878906, 0.293945, -9.68262, 1.28.2022 18:37:0.664
144, 1.74714, 0.232255, 196.506, 0, 0.000976562, -0.000976562, -0.0195312, 0.314453, -9.65332, 1.28.2022 18:37:0.672
145, 1.74714, 0.232255, 196.506, 0, -0.000976562, -0.00195312, -0.0654297, 0.323242, -9.70508, 1.28.2022 18:37:0.680
146, 1.74714, 0.232255, 196.506, 0, -0.000976562, -0.00195312, 0.0292969, 0.277344, -9.71191, 1.28.2022 18:37:0.688
147, 1.74714, 0.232255, 196.506, -0.000976562, 0, -0.000976562, -0.0664062, 0.290039, -9.73145, 1.28.2022 18:37:0.696
148, 1.74814, 0.225334, 196.506, -0.000976562, 0, -0.000976562, -0.0546875, 0.301758, -9.72168, 1.28.2022 18:37:0.704
149, 1.74814, 0.225334, 196.506, 0, -0.000976562, -0.000976562, -0.0185547, 0.320312, -9.70801, 1.28.2022 18:37:0.712
150, 1.74814, 0.225334, 196.506, 0, -0.000976562, -0.00195312, -0.0976562, 0.319336, -9.72363, 1.28.2022 18:37:0.720
151, 1.74814, 0.225334, 196.506, 0, 0, -0.00195312, 0.000976562, 0.296875, -9.71094, 1.28.2022 18:37:0.728
152, 1.74814, 0.225334, 196.506, -0.000976562, -0.000976562, -0.00195312, -0.0478516, 0.28125, -9.73438, 1.28.2022 18:37:0.736
153, 1.74814, 0.225334, 196.506, -0.000976562, 0, -0.000976562, -0.0839844, 0.310547, -9.67676, 1.28.2022 18:37:0.744
154, 1.75506, 0.226338, 196.506, 0, 0, -0.00195312, 0.00488281, 0.266602, -9.7334, 1.28.2022 18:37:0.752
155, 1.755, 0.226446, 196.514, -0.000976562, 0.000976562, -0.00195312, -0.0683594, 0.287109, -9.70605, 1.28.2022 18:37:0.760
156, 1.755, 0.226446, 196.514, -0.000976562, 0, -0.00195312, -0.0615234, 0.306641, -9.7002, 1.28.2022 18:37:0.768
157, 1.755, 0.226446, 196.514, -0.000976562, 0, -0.000976562, 0.0078125, 0.265625, -9.69531, 1.28.2022 18:37:0.776
158, 1.754, 0.233367, 196.513, -0.000976562, -0.00195312, -0.000976562, -0.104492, 0.330078, -9.70605, 1.28.2022 18:37:0.784
159, 1.754, 0.233367, 196.513, 0, -0.000976562, -0.000976562, -0.0185547, 0.301758, -9.72266, 1.28.2022 18:37:0.792
160, 1.754, 0.233367, 196.513, -0.000976562, -0.000976562, 0, -0.0449219, 0.291992, -9.71973, 1.28.2022 18:37:0.800
161, 1.754, 0.233367, 196.513, 0, -0.000976562, 0, -0.0683594, 0.326172, -9.71387, 1.28.2022 18:37:0.808
162, 1.754, 0.233367, 196.513, 0, 0, 0, -0.00195312, 0.301758, -9.7041, 1.28.2022 18:37:0.816
163, 1.754, 0.233367, 196.513, 0, 0, 0, -0.0732422, 0.292969, -9.73828, 1.28.2022 18:37:0.824
164, 1.754, 0.233367, 196.513, -0.000976562, -0.000976562, 0, -0.0664062, 0.294922, -9.70801, 1.28.2022 18:37:0.832
165, 1.754, 0.233367, 196.513, 0, 0, 0, -0.0136719, 0.293945, -9.69238, 1.28.2022 18:37:0.840
166, 1.754, 0.233367, 196.513, -0.000976562, 0, 0, -0.108398, 0.317383, -9.67773, 1.28.2022 18:37:0.848
167, 1.75305, 0.24018, 196.506, 0, -0.000976562, 0.000976562, -0.0234375, 0.299805, -9.73438, 1.28.2022 18:37:0.856
168, 1.75997, 0.241184, 196.506, 0, -0.000976562, 0, -0.0136719, 0.291992, -9.7207, 1.28.2022 18:37:0.864
169, 1.75997, 0.241184, 196.506, 0, -0.000976562, 0, -0.0742188, 0.307617, -9.76172, 1.28.2022 18:37:0.872
170, 1.75997, 0.241184, 196.506, 0, -0.000976562, -0.000976562, 0.00292969, 0.283203, -9.7207, 1.28.2022 18:37:0.880
171, 1.75997, 0.241184, 196.506, 0, -0.000976562, 0, -0.0800781, 0.306641, -9.70703, 1.28.2022 18:37:0.888
172, 1.75997, 0.241184, 196.506, 0, 0, -0.000976562, -0.0419922, 0.3125, -9.67676, 1.28.2022 18:37:0.896
173, 1.75897, 0.248105, 196.506, 0, 0, 0, -0.0273438, 0.272461, -9.69531, 1.28.2022 18:37:0.904
174, 1.75897, 0.248105, 196.506, 0, -0.000976562, 0.000976562, -0.0898438, 0.316406, -9.70703, 1.28.2022 18:37:0.912
175, 1.75897, 0.248105, 196.506, 0, -0.000976562, -0.000976562, -0.0302734, 0.321289, -9.72852, 1.28.2022 18:37:0.920
176, 1.75897, 0.248105, 196.506, 0, -0.000976562, 0, -0.00390625, 0.296875, -9.71777, 1.28.2022 18:37:0.928
177, 1.75897, 0.248105, 196.506, 0, 0, 0.000976562, -0.0546875, 0.288086, -9.73438, 1.28.2022 18:37:0.936
178, 1.75897, 0.248105, 196.506, -0.000976562, 0, -0.000976562, 0.00195312, 0.271484, -9.66699, 1.28.2022 18:37:0.944
179, 1.75897, 0.248105, 196.506, 0, 0, -0.000976562, -0.0429688, 0.294922, -9.73438, 1.28.2022 18:37:0.952
180, 1.75897, 0.248105, 196.506, 0, -0.000976562, -0.000976562, -0.0595703, 0.302734, -9.73145, 1.28.2022 18:37:0.960
181, 1.75897, 0.248105, 196.506, 0, 0.000976562, 0, -0.000976562, 0.279297, -9.67188, 1.28.2022 18:37:0.968
182, 1.75897, 0.248105, 196.506, -0.000976562, -0.000976562, 0, -0.129883, 0.316406, -9.70898, 1.28.2022 18:37:0.976
183, 1.75897, 0.248105, 196.506, -0.000976562, -0.000976562, 0.000976562, -0.0566406, 0.296875, -9.70801, 1.28.2022 18:37:0.984
184, 1.75897, 0.248105, 196.506, 0, 0, 0, -0.0302734, 0.295898, -9.69434, 1.28.2022 18:37:0.992
185, 1.75897, 0.248105, 196.506, -0.000976562, 0, -0.000976562, -0.0615234, 0.311523, -9.7168, 1.28.2022 18:37:1.000
186, 1.75897, 0.248105, 196.506, 0, 0, 0, 0.00488281, 0.275391, -9.72852, 1.28.2022 18:37:1.008
187, 1.75897, 0.248105, 196.506, -0.000976562, -0.000976562, 0.000976562, -0.0566406, 0.318359, -9.72363, 1.28.2022 18:37:1.016
188, 1.75897, 0.248105, 196.506, -0.00195312, 0, 0, -0.0751953, 0.322266, -9.69043, 1.28.2022 18:37:1.024
189, 1.75897, 0.248105, 196.506, 0, 0, 0, 0.015625, 0.291016, -9.68555, 1.28.2022 18:37:1.032
190, 1.75897, 0.248105, 196.506, 0, 0, 0, -0.0712891, 0.311523, -9.72656, 1.28.2022 18:37:1.040
191, 1.75796, 0.255026, 196.506, -0.000976562, -0.000976562, -0.000976562, -0.0712891, 0.30957, -9.7334, 1.28.2022 18:37:1.048
192, 1.75796, 0.255026, 196.506, -0.000976562, 0.000976562, -0.000976562, -0.00585938, 0.250977, -9.7002, 1.28.2022 18:37:1.056
193, 1.75796, 0.255026, 196.506, 0, 0, 0, -0.102539, 0.304688, -9.74219, 1.28.2022 18:37:1.064
194, 1.75796, 0.255026, 196.506, 0, 0.000976562, -0.000976562, 0.0175781, 0.294922, -9.72363, 1.28.2022 18:37:1.072
195, 1.75897, 0.248105, 196.506, -0.000976562, 0, -0.000976562, -0.015625, 0.291992, -9.71094, 1.28.2022 18:37:1.080
196, 1.75897, 0.248105, 196.506, 0, 0, 0, -0.0634766, 0.298828, -9.68848, 1.28.2022 18:37:1.088
197, 1.75897, 0.248105, 196.506, 0, 0, 0, -0.0107422, 0.270508, -9.70508, 1.28.2022 18:37:1.096
198, 1.75897, 0.248105, 196.506, -0.000976562, 0, -0.000976562, -0.0703125, 0.308594, -9.70996, 1.28.2022 18:37:1.104
199, 1.75897, 0.248105, 196.506, -0.000976562, -0.000976562, 0, -0.0302734, 0.330078, -9.69824, 1.28.2022 18:37:1.112
200, 1.75897, 0.248105, 196.506, -0.000976562, 0, 0, 0, 0.299805, -9.73438, 1.28.2022 18:37:1.120
201, 1.75897, 0.248105, 196.506, 0, 0.000976562, 0, -0.0751953, 0.298828, -9.70312, 1.28.2022 18:37:1.128
202, 1.75897, 0.248105, 196.506, 0, 0, 0, -0.0234375, 0.294922, -9.72461, 1.28.2022 18:37:1.136
203, 1.75897, 0.248105, 196.506, 0, 0, 0.000976562, -0.0351562, 0.291992, -9.71582, 1.28.2022 18:37:1.144
204, 1.75897, 0.248105, 196.506, -0.000976562, 0, 0, -0.0751953, 0.290039, -9.71289, 1.28.2022 18:37:1.152
205, 1.75897, 0.248105, 196.506, 0, 0, 0, 0.0214844, 0.296875, -9.73047, 1.28.2022 18:37:1.160
206, 1.75897, 0.248105, 196.506, 0, 0, 0, -0.0634766, 0.344727, -9.72266, 1.28.2022 18:37:1.168
207, 1.75997, 0.241184, 196.506, 0, -0.000976562, 0, -0.0166016, 0.314453, -9.73633, 1.28.2022 18:37:1.176
208, 1.75997, 0.241184, 196.506, -0.000976562, -0.000976562, 0, -0.0478516, 0.283203, -9.74414, 1.28.2022 18:37:1.184
209, 1.75997, 0.241184, 196.506, -0.000976562, -0.000976562, -0.000976562, -0.0869141, 0.301758, -9.7002, 1.28.2022 18:37:1.192
210, 1.75997, 0.241184, 196.506, 0, -0.000976562, -0.000976562, 0.000976562, 0.303711, -9.71777, 1.28.2022 18:37:1.200
211, 1.75997, 0.241184, 196.506, -0.000976562, 0, 0, -0.0263672, 0.283203, -9.74219, 1.28.2022 18:37:1.208
212, 1.75997, 0.241184, 196.506, 0, -0.000976562, 0, -0.078125, 0.314453, -9.74023, 1.28.2022 18:37:1.216
213, 1.75997, 0.241184, 196.506, 0, -0.000976562, 0, 0.0273438, 0.257812, -9.70117, 1.28.2022 18:37:1.224
214, 1.75997, 0.241184, 196.506, -0.000976562, -0.000976562, 0, -0.0683594, 0.28125, -9.73145, 1.28.2022 18:37:1.232
215, 1.75997, 0.241184, 196.506, 0, -0.000976562, -0.000976562, -0.0283203, 0.291992, -9.7207, 1.28.2022 18:37:1.240
216, 1.75997, 0.241184, 196.506, -0.000976562, 0, 0, -0.0107422, 0.303711, -9.70117, 1.28.2022 18:37:1.248
217, 1.75997, 0.241184, 196.506, 0, 0, -0.000976562, -0.0878906, 0.328125, -9.7207, 1.28.2022 18:37:1.256
218, 1.75997, 0.241184, 196.506, -0.000976562, 0, 0, -0.0234375, 0.307617, -9.74316, 1.28.2022 18:37:1.264
219, 1.76097, 0.234263, 196.506, -0.000976562, 0, 0, -0.0322266, 0.306641, -9.71289, 1.28.2022 18:37:1.272
220, 1.76097, 0.234263, 196.506, -0.000976562, 0, -0.000976562, -0.0732422, 0.331055, -9.7207, 1.28.2022 18:37:1.280
221, 1.76097, 0.234263, 196.506, -0.000976562, 0, 0, 0.0292969, 0.283203, -9.7334, 1.28.2022 18:37:1.288
222, 1.76097, 0.234263, 196.506, -0.000976562, 0, 0, -0.09375, 0.31543, -9.77539, 1.28.2022 18:37:1.296
223, 1.76789, 0.235267, 196.506, -0.00195312, 0, 0, -0.0419922, 0.304688, -9.72949, 1.28.2022 18:37:1.304
224, 1.76789, 0.235267, 196.506, -0.000976562, 0, 0, 0.0078125, 0.290039, -9.70898, 1.28.2022 18:37:1.312
225, 1.76789, 0.235267, 196.506, -0.000976562, -0.000976562, 0.000976562, -0.0888672, 0.310547, -9.68066, 1.28.2022 18:37:1.320
226, 1.76789, 0.235267, 196.506, -0.000976562, 0.000976562, 0, -0.00878906, 0.285156, -9.72754, 1.28.2022 18:37:1.328
227, 1.76789, 0.235267, 196.506, -0.000976562, 0, 0, -0.0332031, 0.291016, -9.76074, 1.28.2022 18:37:1.336
228, 1.76789, 0.235267, 196.506, 0, 0, 0, -0.0986328, 0.291016, -9.6748, 1.28.2022 18:37:1.344
229, 1.76889, 0.228346, 196.506, -0.000976562, 0, -0.000976562, 0.0126953, 0.268555, -9.7334, 1.28.2022 18:37:1.352
230, 1.76889, 0.228346, 196.506, -0.000976562, -0.000976562, 0, -0.0585938, 0.326172, -9.72168, 1.28.2022 18:37:1.360
231, 1.76889, 0.228346, 196.506, -0.000976562, 0, 0.000976562, -0.0498047, 0.323242, -9.72656, 1.28.2022 18:37:1.368
232, 1.76889, 0.228346, 196.506, 0, 0, 0.000976562, -0.00585938, 0.274414, -9.69531, 1.28.2022 18:37:1.376
233, 1.76889, 0.228346, 196.506, -0.000976562, 0, 0, -0.0742188, 0.297852, -9.74512, 1.28.2022 18:37:1.384
234, 1.76889, 0.228346, 196.506, -0.000976562, 0, 0, 0.0078125, 0.294922, -9.7207, 1.28.2022 18:37:1.390
235, 1.76889, 0.228346, 196.506, -0.000976562, 0, 0, -0.0546875, 0.269531, -9.73926, 1.28.2022 18:37:1.398
236, 1.76889, 0.228346, 196.506, 0, 0, -0.000976562, -0.0927734, 0.323242, -9.72266, 1.28.2022 18:37:1.406
237, 1.76889, 0.228346, 196.506, -0.000976562, 0, -0.000976562, 0.0205078, 0.300781, -9.69727, 1.28.2022 18:37:1.414
238, 1.76889, 0.228346, 196.506, -0.000976562, -0.000976562, -0.000976562, -0.0683594, 0.290039, -9.71484, 1.28.2022 18:37:1.422
239, 1.76889, 0.228346, 196.506, 0, -0.000976562, 0, -0.0712891, 0.288086, -9.72168, 1.28.2022 18:37:1.430
240, 1.76889, 0.228346, 196.506, 0, -0.000976562, 0, 0.0117188, 0.272461, -9.76367, 1.28.2022 18:37:1.438
241, 1.76789, 0.235267, 196.506, 0, 0, 0, -0.0947266, 0.30957, -9.7334, 1.28.2022 18:37:1.446
242, 1.76097, 0.234263, 196.506, 0, -0.000976562, 0, -0.00683594, 0.292969, -9.74707, 1.28.2022 18:37:1.454
243, 1.76097, 0.234263, 196.506, 0, -0.000976562, 0, -0.00683594, 0.290039, -9.72559, 1.28.2022 18:37:1.462
244, 1.76097, 0.234263, 196.506, 0, -0.000976562, 0, -0.0712891, 0.3125, -9.76367, 1.28.2022 18:37:1.470
245, 1.76097, 0.234263, 196.506, 0, 0, 0, -0.0205078, 0.313477, -9.71484, 1.28.2022 18:37:1.478
246, 1.76097, 0.234263, 196.506, 0, 0, 0, -0.0605469, 0.293945, -9.68457, 1.28.2022 18:37:1.486
247, 1.76097, 0.234263, 196.506, -0.000976562, 0, 0, -0.0322266, 0.296875, -9.70117, 1.28.2022 18:37:1.494
248, 1.76097, 0.234263, 196.506, -0.000976562, -0.000976562, -0.000976562, -0.0117188, 0.285156, -9.71582, 1.28.2022 18:37:1.502
249, 1.76097, 0.234263, 196.506, 0, 0, 0, -0.0917969, 0.291992, -9.71191, 1.28.2022 18:37:1.510
250, 1.76097, 0.234263, 196.506, 0, 0, 0, -0.00195312, 0.285156, -9.73047, 1.28.2022 18:37:1.518
251, 1.75406, 0.233259, 196.506, -0.000976562, 0, 0, -0.015625, 0.308594, -9.71094, 1.28.2022 18:37:1.526
252, 1.75406, 0.233259, 196.506, -0.000976562, 0, -0.000976562, -0.0830078, 0.311523, -9.70703, 1.28.2022 18:37:1.534
253, 1.75406, 0.233259, 196.506, 0, -0.000976562, 0.000976562, 0.0205078, 0.31543, -9.68457, 1.28.2022 18:37:1.542
254, 1.75406, 0.233259, 196.506, 0, 0, 0, -0.0517578, 0.306641, -9.7002, 1.28.2022 18:37:1.550
255, 1.75406, 0.233259, 196.506, -0.00195312, 0, 0, -0.046875, 0.290039, -9.72754, 1.28.2022 18:37:1.558
256, 1.75406, 0.233259, 196.506, -0.000976562, 0, 0, -0.0253906, 0.285156, -9.72754, 1.28.2022 18:37:1.566
257, 1.75406, 0.233259, 196.506, -0.000976562, 0, 0, -0.0830078, 0.289062, -9.75488, 1.28.2022 18:37:1.574
258, 1.75406, 0.233259, 196.506, -0.000976562, 0, -0.00195312, -0.0117188, 0.331055, -9.72656, 1.28.2022 18:37:1.582
259, 1.75506, 0.226338, 196.506, -0.000976562, -0.000976562, 0, -0.00488281, 0.310547, -9.76465, 1.28.2022 18:37:1.590
260, 1.76198, 0.227342, 196.506, -0.000976562, 0, 0, -0.0830078, 0.323242, -9.71387, 1.28.2022 18:37:1.598
261, 1.76198, 0.227342, 196.506, 0, 0, 0.000976562, 0.00292969, 0.265625, -9.72168, 1.28.2022 18:37:1.606
262, 1.75506, 0.226338, 196.506, 0, -0.000976562, 0, -0.0185547, 0.275391, -9.70215, 1.28.2022 18:37:1.614
263, 1.75506, 0.226338, 196.506, -0.000976562, 0, 0, -0.0595703, 0.297852, -9.72949, 1.28.2022 18:37:1.622
264, 1.75506, 0.226338, 196.506, -0.000976562, 0, 0, -0.015625, 0.280273, -9.70703, 1.28.2022 18:37:1.630
265, 1.75506, 0.226338, 196.506, 0, 0.000976562, -0.000976562, -0.0966797, 0.344727, -9.69922, 1.28.2022 18:37:1.638
266, 1.75506, 0.226338, 196.506, -0.000976562, 0, 0, -0.0566406, 0.311523, -9.73145, 1.28.2022 18:37:1.646
267, 1.76198, 0.227342, 196.506, 0, 0, -0.00195312, -0.0351562, 0.28125, -9.73242, 1.28.2022 18:37:1.654
268, 1.76198, 0.227342, 196.506, 0, -0.000976562, 0, -0.0927734, 0.337891, -9.73242, 1.28.2022 18:37:1.662
269, 1.76198, 0.227342, 196.506, 0, 0, 0.000976562, 0.0078125, 0.276367, -9.74219, 1.28.2022 18:37:1.670
270, 1.76198, 0.227342, 196.506, -0.000976562, -0.000976562, 0.000976562, -0.0644531, 0.28418, -9.75586, 1.28.2022 18:37:1.678
271, 1.76198, 0.227342, 196.506, -0.000976562, 0, 0, -0.0517578, 0.311523, -9.70801, 1.28.2022 18:37:1.686
272, 1.76198, 0.227342, 196.506, 0, -0.000976562, -0.00195312, -0.00195312, 0.300781, -9.75098, 1.28.2022 18:37:1.694
273, 1.76198, 0.227342, 196.506, 0, 0, 0, -0.0878906, 0.328125, -9.71875, 1.28.2022 18:37:1.702
274, 1.76198, 0.227342, 196.506, -0.000976562, 0, -0.00195312, -0.0302734, 0.3125, -9.73828, 1.28.2022 18:37:1.710
275, 1.76097, 0.234263, 196.506, 0, -0.000976562, -0.00195312, -0.0185547, 0.270508, -9.7168, 1.28.2022 18:37:1.718
276, 1.76097, 0.234263, 196.506, 0, 0, 0, -0.0996094, 0.293945, -9.69824, 1.28.2022 18:37:1.726
277, 1.76097, 0.234263, 196.506, 0, 0, 0, 0.000976562, 0.298828, -9.71387, 1.28.2022 18:37:1.734
278, 1.76097, 0.234263, 196.506, -0.000976562, -0.000976562, 0, -0.0410156, 0.28125, -9.76074, 1.28.2022 18:37:1.742
279, 1.76097, 0.234263, 196.506, -0.00195312, 0, 0, -0.0546875, 0.299805, -9.73828, 1.28.2022 18:37:1.750
280, 1.76097, 0.234263, 196.506, -0.000976562, 0, 0.000976562, 0.0078125, 0.285156, -9.70703, 1.28.2022 18:37:1.758
281, 1.76097, 0.234263, 196.506, -0.000976562, 0, -0.00195312, -0.078125, 0.306641, -9.72656, 1.28.2022 18:37:1.766
282, 1.76097, 0.234263, 196.506, -0.000976562, 0, 0, -0.0517578, 0.3125, -9.73828, 1.28.2022 18:37:1.774
283, 1.76097, 0.234263, 196.506, 0, 0, -0.00195312, -0.00488281, 0.254883, -9.73633, 1.28.2022 18:37:1.782
284, 1.76097, 0.234263, 196.506, -0.000976562, 0, 0, -0.0996094, 0.302734, -9.7373, 1.28.2022 18:37:1.790
285, 1.76097, 0.234263, 196.506, 0, 0, 0, 0.0107422, 0.28418, -9.69531, 1.28.2022 18:37:1.798
286, 1.76097, 0.234263, 196.506, -0.000976562, -0.000976562, 0, -0.0341797, 0.289062, -9.68262, 1.28.2022 18:37:1.806
287, 1.76097, 0.234263, 196.506, 0, -0.000976562, 0, -0.0683594, 0.297852, -9.73145, 1.28.2022 18:37:1.814
288, 1.76097, 0.234263, 196.506, -0.000976562, 0, 0, 0.0224609, 0.293945, -9.70703, 1.28.2022 18:37:1.822
289, 1.76097, 0.234263, 196.506, 0, 0, 0, -0.0654297, 0.277344, -9.6875, 1.28.2022 18:37:1.830
290, 1.76097, 0.234263, 196.506, 0, 0, 0, -0.0644531, 0.307617, -9.73828, 1.28.2022 18:37:1.838
291, 1.75406, 0.233259, 196.506, -0.000976562, 0, 0, -0.0234375, 0.301758, -9.70801, 1.28.2022 18:37:1.846
292, 1.75305, 0.24018, 196.506, -0.000976562, 0, 0, -0.106445, 0.334961, -9.71094, 1.28.2022 18:37:1.854
293, 1.75305, 0.24018, 196.506, -0.000976562, 0, 0, -0.0117188, 0.299805, -9.7373, 1.28.2022 18:37:1.862
294, 1.75305, 0.24018, 196.506, 0, -0.000976562, 0, -0.0302734, 0.299805, -9.73438, 1.28.2022 18:37:1.870
295, 1.75305, 0.24018, 196.506, 0, -0.000976562, 0.000976562, -0.0830078, 0.310547, -9.75, 1.28.2022 18:37:1.878
296, 1.75305, 0.24018, 196.506, 0, -0.000976562, 0.000976562, 0.00292969, 0.27832, -9.71875, 1.28.2022 18:37:1.886
297, 1.75305, 0.24018, 196.506, 0, 0, 0, -0.078125, 0.314453, -9.73047, 1.28.2022 18:37:1.894
298, 1.75305, 0.24018, 196.506, -0.000976562, -0.000976562, 0, -0.0634766, 0.336914, -9.70215, 1.28.2022 18:37:1.902
299, 1.75305, 0.24018, 196.506, -0.000976562, -0.000976562, 0, -0.0136719, 0.294922, -9.71094, 1.28.2022 18:37:1.910
300, 1.75305, 0.24018, 196.506, 0, -0.000976562, 0, -0.0751953, 0.339844, -9.71777, 1.28.2022 18:37:1.918
301, 1.75305, 0.24018, 196.506, 0, 0, 0, -0.0332031, 0.316406, -9.73145, 1.28.2022 18:37:1.926
302, 1.75997, 0.241184, 196.506, 0, 0, -0.000976562, -0.0371094, 0.298828, -9.70605, 1.28.2022 18:37:1.934
303, 1.75897, 0.248105, 196.506, 0, 0, 0, -0.104492, 0.317383, -9.74219, 1.28.2022 18:37:1.942
304, 1.75897, 0.248105, 196.506, -0.000976562, 0, 0.000976562, 0.0273438, 0.267578, -9.70801, 1.28.2022 18:37:1.950
305, 1.75897, 0.248105, 196.506, 0, 0, 0.000976562, -0.0751953, 0.301758, -9.71191, 1.28.2022 18:37:1.958
306, 1.75897, 0.248105, 196.506, -0.000976562, 0.000976562, 0, -0.0634766, 0.305664, -9.69824, 1.28.2022 18:37:1.966
307, 1.75897, 0.248105, 196.506, -0.000976562, 0, -0.000976562, -0.00390625, 0.306641, -9.73242, 1.28.2022 18:37:1.974
308, 1.76588, 0.249109, 196.506, -0.000976562, 0, -0.000976562, -0.0703125, 0.301758, -9.70312, 1.28.2022 18:37:1.982
309, 1.76588, 0.249109, 196.506, -0.00195312, 0, 0, -0.0185547, 0.304688, -9.74414, 1.28.2022 18:37:1.990
310, 1.76588, 0.249109, 196.506, -0.000976562, 0, 0.000976562, -0.00878906, 0.294922, -9.72559, 1.28.2022 18:37:1.998
311, 1.76588, 0.249109, 196.506, -0.000976562, 0.000976562, 0, -0.0537109, 0.290039, -9.70605, 1.28.2022 18:37:2.006
312, 1.76588, 0.249109, 196.506, 0, 0.000976562, -0.000976562, 0.0078125, 0.286133, -9.74023, 1.28.2022 18:37:2.014
313, 1.76588, 0.249109, 196.506, 0, 0, 0, -0.0478516, 0.273438, -9.73926, 1.28.2022 18:37:2.022
314, 1.76588, 0.249109, 196.506, -0.000976562, -0.000976562, 0, -0.0419922, 0.318359, -9.70508, 1.28.2022 18:37:2.030
315, 1.76588, 0.249109, 196.506, -0.000976562, 0, -0.000976562, 0.0292969, 0.280273, -9.72363, 1.28.2022 18:37:2.038
316, 1.76588, 0.249109, 196.506, 0, 0, 0, -0.09375, 0.296875, -9.77539, 1.28.2022 18:37:2.046
317, 1.76689, 0.242188, 196.506, -0.000976562, 0, 0, 0.000976562, 0.286133, -9.68555, 1.28.2022 18:37:2.054
318, 1.76689, 0.242188, 196.506, -0.000976562, -0.000976562, 0, -0.0136719, 0.298828, -9.70117, 1.28.2022 18:37:2.062
319, 1.76689, 0.242188, 196.506, -0.000976562, 0, 0, -0.103516, 0.306641, -9.69727, 1.28.2022 18:37:2.070
320, 1.76689, 0.242188, 196.506, 0, -0.000976562, -0.000976562, 0.0107422, 0.308594, -9.7041, 1.28.2022 18:37:2.078
321, 1.76689, 0.242188, 196.506, 0, 0.000976562, 0, -0.0537109, 0.298828, -9.70312, 1.28.2022 18:37:2.086
322, 1.76689, 0.242188, 196.506, -0.000976562, 0.000976562, 0, -0.0683594, 0.298828, -9.69824, 1.28.2022 18:37:2.094
323, 1.76789, 0.235267, 196.506, 0, 0.000976562, 0.000976562, 0.0205078, 0.28125, -9.68164, 1.28.2022 18:37:2.102
324, 1.76789, 0.235267, 196.506, 0, 0, -0.000976562, -0.0849609, 0.326172, -9.71582, 1.28.2022 18:37:2.110
325, 1.76789, 0.235267, 196.506, 0, 0, -0.000976562, -0.0136719, 0.304688, -9.72461, 1.28.2022 18:37:2.118
326, 1.76789, 0.235267, 196.506, -0.000976562, 0, 0, -0.0351562, 0.291992, -9.71582, 1.28.2022 18:37:2.126
327, 1.76789, 0.235267, 196.506, 0, 0, -0.00195312, -0.0849609, 0.329102, -9.73047, 1.28.2022 18:37:2.134
328, 1.76789, 0.235267, 196.506, 0, 0, -0.000976562, 0.0224609, 0.28418, -9.67676, 1.28.2022 18:37:2.142
329, 1.76789, 0.235267, 196.506, 0, -0.000976562, -0.000976562, -0.0546875, 0.294922, -9.71973, 1.28.2022 18:37:2.150
330, 1.76789, 0.235267, 196.506, -0.00195312, -0.000976562, 0.000976562, -0.0683594, 0.31543, -9.68359, 1.28.2022 18:37:2.158
331, 1.76789, 0.235267, 196.506, -0.000976562, -0.000976562, -0.000976562, 0.00292969, 0.293945, -9.69434, 1.28.2022 18:37:2.166
332, 1.76889, 0.228346, 196.506, 0, 0, -0.000976562, -0.0732422, 0.285156, -9.71289, 1.28.2022 18:37:2.174
333, 1.76889, 0.228346, 196.506, -0.000976562, 0, -0.00195312, -0.0380859, 0.302734, -9.73145, 1.28.2022 18:37:2.182
334, 1.76889, 0.228346, 196.506, 0, 0.000976562, 0, -0.0166016, 0.276367, -9.73535, 1.28.2022 18:37:2.190
335, 1.76889, 0.228346, 196.506, 0, 0.000976562, -0.00195312, -0.0878906, 0.326172, -9.71875, 1.28.2022 18:37:2.198
336, 1.76889, 0.228346, 196.506, 0, 0.000976562, -0.00195312, 0.0224609, 0.301758, -9.71582, 1.28.2022 18:37:2.206
337, 1.76198, 0.227342, 196.506, 0, -0.000976562, -0.00195312, -0.046875, 0.299805, -9.71973, 1.28.2022 18:37:2.214
338, 1.76198, 0.227342, 196.506, 0, -0.000976562, -0.000976562, -0.0615234, 0.316406, -9.70703, 1.28.2022 18:37:2.222
339, 1.76198, 0.227342, 196.506, 0, 0, -0.000976562, 0.0224609, 0.304688, -9.7207, 1.28.2022 18:37:2.230
340, 1.76198, 0.227342, 196.506, 0, 0, -0.000976562, -0.0732422, 0.292969, -9.72168, 1.28.2022 18:37:2.238
341, 1.76198, 0.227342, 196.506, -0.000976562, -0.000976562, -0.000976562, -0.0449219, 0.330078, -9.71191, 1.28.2022 18:37:2.246
342, 1.76889, 0.228346, 196.506, -0.000976562, 0, 0, -0.0429688, 0.302734, -9.73633, 1.28.2022 18:37:2.254
343, 1.76889, 0.228346, 196.506, -0.000976562, 0, 0, -0.0966797, 0.334961, -9.69922, 1.28.2022 18:37:2.262
344, 1.76889, 0.228346, 196.506, -0.000976562, 0.000976562, 0.000976562, -0.0283203, 0.306641, -9.72656, 1.28.2022 18:37:2.270
345, 1.76889, 0.228346, 196.506, -0.000976562, 0.000976562, 0, -0.0253906, 0.310547, -9.68457, 1.28.2022 18:37:2.278
346, 1.76889, 0.228346, 196.506, 0, 0, -0.00195312, -0.0634766, 0.311523, -9.70312, 1.28.2022 18:37:2.286
347, 1.76889, 0.228346, 196.506, -0.000976562, 0, -0.00195312, 0.0224609, 0.265625, -9.72168, 1.28.2022 18:37:2.294
348, 1.76889, 0.228346, 196.506, -0.000976562, 0, -0.00195312, -0.0517578, 0.306641, -9.72852, 1.28.2022 18:37:2.302
349, 1.77581, 0.22935, 196.506, -0.000976562, 0, -0.00195312, -0.0498047, 0.294922, -9.72656, 1.28.2022 18:37:2.310
350, 1.77581, 0.22935, 196.506, -0.000976562, -0.000976562, -0.000976562, -0.0117188, 0.273438, -9.71875, 1.28.2022 18:37:2.318
351, 1.77581, 0.22935, 196.506, -0.000976562, -0.000976562, -0.000976562, -0.103516, 0.313477, -9.69531, 1.28.2022 18:37:2.326
352, 1.77581, 0.22935, 196.506, -0.000976562, -0.00195312, -0.000976562, -0.000976562, 0.298828, -9.68945, 1.28.2022 18:37:2.334
353, 1.77581, 0.22935, 196.506, -0.000976562, 0, 0, -0.0185547, 0.266602, -9.73535, 1.28.2022 18:37:2.342
354, 1.77581, 0.22935, 196.506, 0, 0, 0, -0.0566406, 0.306641, -9.7168, 1.28.2022 18:37:2.348
355, 1.77581, 0.22935, 196.506, -0.000976562, -0.00195312, 0, 0.0224609, 0.280273, -9.7168, 1.28.2022 18:37:2.358
356, 1.77581, 0.22935, 196.506, -0.000976562, -0.00195312, -0.000976562, -0.0742188, 0.28418, -9.75098, 1.28.2022 18:37:2.364
357, 1.77581, 0.22935, 196.506, 0, -0.00195312, -0.000976562, -0.0517578, 0.314453, -9.73145, 1.28.2022 18:37:2.372
358, 1.77581, 0.22935, 196.506, 0, -0.00195312, 0, -0.0117188, 0.27832, -9.72852, 1.28.2022 18:37:2.380
359, 1.77581, 0.22935, 196.506, -0.000976562, 0, 0.000976562, -0.0878906, 0.310547, -9.75879, 1.28.2022 18:37:2.388
360, 1.77581, 0.22935, 196.506, -0.000976562, -0.00195312, 0, -0.0302734, 0.273438, -9.7373, 1.28.2022 18:37:2.396
361, 1.76889, 0.228346, 196.506, -0.000976562, 0.000976562, 0, -0.00878906, 0.24707, -9.7334, 1.28.2022 18:37:2.404
362, 1.76889, 0.228346, 196.506, 0, 0, 0, -0.0654297, 0.311523, -9.70508, 1.28.2022 18:37:2.412
363, 1.76889, 0.228346, 196.506, 0, 0, 0, 0.00683594, 0.259766, -9.74512, 1.28.2022 18:37:2.420
364, 1.76889, 0.228346, 196.506, -0.000976562, 0, 0, -0.0654297, 0.330078, -9.68359, 1.28.2022 18:37:2.428
365, 1.76889, 0.228346, 196.506, -0.000976562, -0.00195312, 0, -0.0615234, 0.317383, -9.74023, 1.28.2022 18:37:2.436
366, 1.76198, 0.227342, 196.506, -0.000976562, 0, 0, -0.000976562, 0.274414, -9.69336, 1.28.2022 18:37:2.444
367, 1.76198, 0.227342, 196.506, -0.000976562, 0, 0, -0.0996094, 0.303711, -9.70215, 1.28.2022 18:37:2.452
368, 1.76198, 0.227342, 196.506, -0.000976562, -0.00195312, 0, -0.0214844, 0.301758, -9.63477, 1.28.2022 18:37:2.460
369, 1.76198, 0.227342, 196.506, -0.000976562, 0, 0, -0.0292969, 0.317383, -9.6748, 1.28.2022 18:37:2.468
370, 1.76198, 0.227342, 196.506, -0.00195312, 0, 0, -0.0351562, 0.319336, -9.7334, 1.28.2022 18:37:2.476
371, 1.76198, 0.227342, 196.506, 0, -0.00195312, 0, 0.0419922, 0.295898, -9.66895, 1.28.2022 18:37:2.484
372, 1.76198, 0.227342, 196.506, 0, 0, 0.000976562, -0.0722656, 0.300781, -9.68164, 1.28.2022 18:37:2.492
373, 1.76198, 0.227342, 196.506, 0, 0.000976562, 0, -0.0634766, 0.304688, -9.72168, 1.28.2022 18:37:2.500
374, 1.76198, 0.227342, 196.506, -0.000976562, 0, 0, 0.000976562, 0.285156, -9.71875, 1.28.2022 18:37:2.508
375, 1.76198, 0.227342, 196.506, -0.000976562, 0, 0, -0.0898438, 0.305664, -9.69531, 1.28.2022 18:37:2.516
376, 1.76198, 0.227342, 196.506, 0, 0, 0, -0.0136719, 0.311523, -9.70801, 1.28.2022 18:37:2.524
377, 1.76198, 0.227342, 196.506, 0, 0.000976562, 0, -0.0595703, 0.28125, -9.74121, 1.28.2022 18:37:2.532
378, 1.76198, 0.227342, 196.506, 0, 0, 0, -0.0585938, 0.328125, -9.71387, 1.28.2022 18:37:2.540
379, 1.76198, 0.227342, 196.506, 0, -0.00195312, 0, 0.000976562, 0.265625, -9.71484, 1.28.2022 18:37:2.548
380, 1.76198, 0.227342, 196.506, -0.000976562, 0, 0, -0.0419922, 0.258789, -9.71582, 1.28.2022 18:37:2.556
381, 1.75506, 0.226338, 196.506, -0.000976562, 0, 0, -0.0400391, 0.282227, -9.70898, 1.28.2022 18:37:2.564
382, 1.75506, 0.226338, 196.506, -0.000976562, 0, -0.000976562, -0.00878906, 0.304688, -9.73242, 1.28.2022 18:37:2.572
383, 1.75506, 0.226338, 196.506, -0.000976562, 0.000976562, 0, -0.0791016, 0.332031, -9.6709, 1.28.2022 18:37:2.580
384, 1.75506, 0.226338, 196.506, -0.000976562, 0, 0, -0.0253906, 0.30957, -9.72949, 1.28.2022 18:37:2.588
385, 1.75506, 0.226338, 196.506, -0.000976562, 0, 0, -0.0302734, 0.290039, -9.73926, 1.28.2022 18:37:2.596
386, 1.75506, 0.226338, 196.506, 0, -0.000976562, -0.00195312, -0.0878906, 0.294922, -9.72168, 1.28.2022 18:37:2.604
387, 1.75506, 0.226338, 196.506, 0, 0, 0, 0.0078125, 0.271484, -9.73047, 1.28.2022 18:37:2.612
388, 1.75506, 0.226338, 196.506, 0, 0.000976562, 0, -0.0517578, 0.304688, -9.72656, 1.28.2022 18:37:2.620
389, 1.75506, 0.226338, 196.506, -0.000976562, 0, -0.00195312, -0.0595703, 0.302734, -9.74316, 1.28.2022 18:37:2.628
390, 1.75506, 0.226338, 196.506, -0.000976562, 0, -0.00195312, -0.00585938, 0.296875, -9.69922, 1.28.2022 18:37:2.636
391, 1.75506, 0.226338, 196.506, 0, -0.000976562, -0.000976562, -0.0878906, 0.317383, -9.74023, 1.28.2022 18:37:2.644
392, 1.75506, 0.226338, 196.506, 0, 0.000976562, 0, -0.0283203, 0.302734, -9.75586, 1.28.2022 18:37:2.652
393, 1.75506, 0.226338, 196.506, 0, -0.000976562, 0.000976562, -0.0205078, 0.316406, -9.71777, 1.28.2022 18:37:2.660
394, 1.75506, 0.226338, 196.506, 0.000976562, 0, 0, -0.0849609, 0.326172, -9.7207, 1.28.2022 18:37:2.668
395, 1.75506, 0.226338, 196.506, 0, 0, 0, 0.0205078, 0.310547, -9.69238, 1.28.2022 18:37:2.676
396, 1.75506, 0.226338, 196.506, 0, 0, 0, -0.0273438, 0.300781, -9.69434, 1.28.2022 18:37:2.684
397, 1.75506, 0.226338, 196.506, 0, 0, 0, -0.0839844, 0.327148, -9.66406, 1.28.2022 18:37:2.692
398, 1.75506, 0.226338, 196.506, -0.000976562, -0.000976562, 0.000976562, -0.0185547, 0.251953, -9.7168, 1.28.2022 18:37:2.700
399, 1.75506, 0.226338, 196.506, 0, 0.000976562, 0.000976562, -0.0869141, 0.318359, -9.70703, 1.28.2022 18:37:2.708
400, 1.75506, 0.226338, 196.506, 0, -0.000976562, -0.000976562, -0.0253906, 0.293945, -9.67969, 1.28.2022 18:37:2.716
401, 1.75506, 0.226338, 196.506, -0.000976562, -0.000976562, 0, -0.0136719, 0.27832, -9.73047, 1.28.2022 18:37:2.724
402, 1.75506, 0.226338, 196.506, -0.000976562, 0, 0, -0.0810547, 0.297852, -9.74805, 1.28.2022 18:37:2.732
403, 1.75506, 0.226338, 196.506, 0, 0.000976562, 0, -0.00195312, 0.265625, -9.72363, 1.28.2022 18:37:2.740
404, 1.75506, 0.226338, 196.506, 0, 0, 0, -0.0546875, 0.294922, -9.71973, 1.28.2022 18:37:2.748
405, 1.75506, 0.226338, 196.506, -0.000976562, 0, 0, -0.0566406, 0.289062, -9.69824, 1.28.2022 18:37:2.756
406, 1.75506, 0.226338, 196.506, -0.000976562, 0, -0.00195312, 0.0263672, 0.275391, -9.7168, 1.28.2022 18:37:2.764
407, 1.75406, 0.233259, 196.506, -0.000976562, 0, 0, -0.0634766, 0.291992, -9.70117, 1.28.2022 18:37:2.772
408, 1.75506, 0.226338, 196.506, -0.000976562, 0.000976562, 0.000976562, -0.0136719, 0.316406, -9.73145, 1.28.2022 18:37:2.780
409, 1.75506, 0.226338, 196.506, -0.000976562, 0.000976562, 0, 0.0078125, 0.297852, -9.7373, 1.28.2022 18:37:2.788
410, 1.75506, 0.226338, 196.506, 0, 0, 0, -0.0849609, 0.319336, -9.72559, 1.28.2022 18:37:2.796
411, 1.75506, 0.226338, 196.506, -0.000976562, -0.000976562, 0, 0.0146484, 0.285156, -9.71191, 1.28.2022 18:37:2.804
412, 1.75506, 0.226338, 196.506, 0, 0, 0.000976562, -0.0322266, 0.296875, -9.71094, 1.28.2022 18:37:2.812
413, 1.75506, 0.226338, 196.506, 0, 0, 0.000976562, -0.0634766, 0.308594, -9.71484, 1.28.2022 18:37:2.820
414, 1.75506, 0.226338, 196.506, 0, 0, 0.000976562, 0.00976562, 0.283203, -9.72363, 1.28.2022 18:37:2.828
415, 1.75506, 0.226338, 196.506, -0.000976562, 0, 0, -0.0898438, 0.307617, -9.7373, 1.28.2022 18:37:2.836
416, 1.75506, 0.226338, 196.506, -0.000976562, 0, -0.000976562, -0.0400391, 0.311523, -9.7334, 1.28.2022 18:37:2.844
417, 1.75506, 0.226338, 196.506, 0, 0, -0.000976562, -0.0253906, 0.292969, -9.72461, 1.28.2022 18:37:2.852
418, 1.75506, 0.226338, 196.506, 0, -0.00195312, -0.000976562, -0.0878906, 0.3125, -9.73535, 1.28.2022 18:37:2.860
419, 1.75606, 0.219417, 196.506, 0, 0, -0.000976562, 0.00585938, 0.289062, -9.6875, 1.28.2022 18:37:2.868
420, 1.75606, 0.219417, 196.506, 0, 0, -0.000976562, -0.0351562, 0.297852, -9.73438, 1.28.2022 18:37:2.876
421, 1.75606, 0.219417, 196.506, -0.000976562, 0, -0.000976562, -0.0595703, 0.310547, -9.77148, 1.28.2022 18:37:2.884
422, 1.75606, 0.219417, 196.506, -0.000976562, 0, -0.000976562, 0.00195312, 0.271484, -9.66699, 1.28.2022 18:37:2.892
423, 1.75606, 0.219417, 196.506, -0.000976562, 0.000976562, -0.000976562, -0.0585938, 0.306641, -9.70508, 1.28.2022 18:37:2.900
424, 1.75606, 0.219417, 196.506, -0.000976562, 0, -0.000976562, -0.0351562, 0.298828, -9.70801, 1.28.2022 18:37:2.908
425, 1.75606, 0.219417, 196.506, 0, 0, -0.000976562, -0.00878906, 0.285156, -9.73242, 1.28.2022 18:37:2.916
426, 1.75606, 0.219417, 196.506, 0, 0.000976562, -0.000976562, -0.0898438, 0.337891, -9.72754, 1.28.2022 18:37:2.924
427, 1.75606, 0.219417, 196.506, 0, -0.00195312, -0.000976562, -0.0136719, 0.306641, -9.73438, 1.28.2022 18:37:2.932
428, 1.75606, 0.219417, 196.506, 0, -0.00195312, -0.000976562, -0.00585938, 0.313477, -9.69434, 1.28.2022 18:37:2.940
429, 1.75606, 0.219417, 196.506, 0, 0, -0.000976562, -0.0634766, 0.295898, -9.68457, 1.28.2022 18:37:2.948
430, 1.75606, 0.219417, 196.506, 0, -0.00292969, -0.00195312, 0.00976562, 0.288086, -9.72559, 1.28.2022 18:37:2.956
431, 1.75606, 0.219417, 196.506, -0.000976562, 0, -0.000976562, -0.0751953, 0.291992, -9.69336, 1.28.2022 18:37:2.964
432, 1.75606, 0.219417, 196.506, 0, 0, -0.00195312, -0.0263672, 0.291016, -9.74902, 1.28.2022 18:37:2.972
433, 1.75606, 0.219417, 196.506, -0.000976562, 0, -0.00195312, -0.0234375, 0.265625, -9.71875, 1.28.2022 18:37:2.980
434, 1.75606, 0.219417, 196.506, -0.000976562, -0.00195312, 0, -0.0966797, 0.330078, -9.69727, 1.28.2022 18:37:2.988
435, 1.75606, 0.219417, 196.506, -0.000976562, 0.000976562, -0.000976562, -0.00878906, 0.293945, -9.70898, 1.28.2022 18:37:2.996
436, 1.75606, 0.219417, 196.506, -0.000976562, 0, -0.000976562, -0.0283203, 0.299805, -9.73145, 1.28.2022 18:37:3.004
437, 1.75606, 0.219417, 196.506, -0.000976562, -0.00195312, 0, -0.0830078, 0.317383, -9.7373, 1.28.2022 18:37:3.012
438, 1.75606, 0.219417, 196.506, 0, -0.00195312, -0.000976562, -0.00878906, 0.294922, -9.72559, 1.28.2022 18:37:3.020
439, 1.75606, 0.219417, 196.506, 0.000976562, -0.00195312, -0.000976562, -0.0751953, 0.318359, -9.7168, 1.28.2022 18:37:3.028
440, 1.75606, 0.219417, 196.506, 0, 0, 0, -0.0507812, 0.305664, -9.68457, 1.28.2022 18:37:3.035
441, 1.75606, 0.219417, 196.506, 0, -0.00195312, -0.000976562, -0.0253906, 0.285156, -9.72559, 1.28.2022 18:37:3.044
442, 1.75606, 0.219417, 196.506, 0, 0, 0, -0.0898438, 0.316406, -9.7041, 1.28.2022 18:37:3.052
443, 1.76298, 0.220421, 196.506, 0, 0, -0.000976562, -0.0371094, 0.320312, -9.7002, 1.28.2022 18:37:3.060
444, 1.76198, 0.227342, 196.506, 0, 0, -0.000976562, -0.0498047, 0.297852, -9.72656, 1.28.2022 18:37:3.068
445, 1.76198, 0.227342, 196.506, 0, 0, -0.00195312, -0.0996094, 0.331055, -9.73438, 1.28.2022 18:37:3.076
446, 1.76198, 0.227342, 196.506, 0, 0, -0.00195312, 0.0273438, 0.290039, -9.71387, 1.28.2022 18:37:3.084
447, 1.76198, 0.227342, 196.506, 0, 0, -0.00195312, -0.0634766, 0.258789, -9.71387, 1.28.2022 18:37:3.092
448, 1.76198, 0.227342, 196.506, 0, 0, 0.000976562, -0.0380859, 0.307617, -9.73828, 1.28.2022 18:37:3.100
449, 1.76198, 0.227342, 196.506, 0, 0, 0.000976562, -0.00390625, 0.27832, -9.7207, 1.28.2022 18:37:3.108
450, 1.76097, 0.234263, 196.506, 0, -0.000976562, -0.000976562, -0.0732422, 0.328125, -9.72559, 1.28.2022 18:37:3.116
451, 1.76097, 0.234263, 196.506, 0.000976562, 0, 0.000976562, 0.00195312, 0.293945, -9.76758, 1.28.2022 18:37:3.124
452, 1.76097, 0.234263, 196.506, -0.000976562, 0, 0.000976562, -0.0283203, 0.270508, -9.72363, 1.28.2022 18:37:3.132
453, 1.76097, 0.234263, 196.506, -0.000976562, 0.000976562, 0, -0.0800781, 0.291992, -9.7168, 1.28.2022 18:37:3.140
454, 1.76097, 0.234263, 196.506, -0.000976562, 0, 0, -0.00683594, 0.299805, -9.7373, 1.28.2022 18:37:3.148
455, 1.76097, 0.234263, 196.506, -0.000976562, 0.000976562, 0, -0.046875, 0.291992, -9.71289, 1.28.2022 18:37:3.155
456, 1.76097, 0.234263, 196.506, -0.000976562, 0, 0.000976562, -0.0751953, 0.299805, -9.70996, 1.28.2022 18:37:3.164
457, 1.76097, 0.234263, 196.506, -0.000976562, 0, 0, -0.0234375, 0.287109, -9.7207, 1.28.2022 18:37:3.172
458, 1.76097, 0.234263, 196.506, 0, 0, 0, -0.0966797, 0.314453, -9.7207, 1.28.2022 18:37:3.180
459, 1.76097, 0.234263, 196.506, 0, 0.000976562, 0, -0.015625, 0.285156, -9.70605, 1.28.2022 18:37:3.188
460, 1.76097, 0.234263, 196.506, 0, 0, 0, -0.0351562, 0.287109, -9.70605, 1.28.2022 18:37:3.196
461, 1.76097, 0.234263, 196.506, -0.000976562, 0, 0.000976562, -0.0947266, 0.328125, -9.7207, 1.28.2022 18:37:3.204
462, 1.76097, 0.234263, 196.506, 0, -0.000976562, -0.000976562, 0.0078125, 0.263672, -9.70996, 1.28.2022 18:37:3.211
463, 1.76097, 0.234263, 196.506, 0, 0, 0, -0.046875, 0.282227, -9.70801, 1.28.2022 18:37:3.220
464, 1.75997, 0.241184, 196.506, -0.000976562, 0, 0, -0.078125, 0.293945, -9.70508, 1.28.2022 18:37:3.228
465, 1.75997, 0.241184, 196.506, -0.000976562, 0, 0, -0.0205078, 0.272461, -9.7002, 1.28.2022 18:37:3.236
466, 1.75997, 0.241184, 196.506, 0, 0, 0.000976562, -0.078125, 0.293945, -9.7002, 1.28.2022 18:37:3.244
467, 1.75997, 0.241184, 196.506, 0, -0.000976562, -0.000976562, -0.0419922, 0.296875, -9.70117, 1.28.2022 18:37:3.252
468, 1.75997, 0.241184, 196.506, -0.000976562, 0, -0.00195312, -0.0185547, 0.285156, -9.71582, 1.28.2022 18:37:3.259
469, 1.75997, 0.241184, 196.506, -0.000976562, 0, 0, -0.0830078, 0.306641, -9.71875, 1.28.2022 18:37:3.268
470, 1.75305, 0.24018, 196.506, 0, -0.000976562, -0.000976562, 0.0195312, 0.296875, -9.72754, 1.28.2022 18:37:3.276
471, 1.75205, 0.247101, 196.506, -0.000976562, 0, 0, -0.0205078, 0.275391, -9.70898, 1.28.2022 18:37:3.283
472, 1.75205, 0.247101, 196.506, 0, 0, -0.00195312, -0.046875, 0.31543, -9.68848, 1.28.2022 18:37:3.292
473, 1.75205, 0.247101, 196.506, -0.000976562, 0, 0, 0.00292969, 0.280273, -9.7207, 1.28.2022 18:37:3.300
474, 1.75205, 0.247101, 196.506, -0.000976562, 0.000976562, -0.000976562, -0.0566406, 0.311523, -9.71484, 1.28.2022 18:37:3.308
475, 1.75305, 0.24018, 196.506, -0.000976562, 0, 0, -0.015625, 0.308594, -9.71777, 1.28.2022 18:37:3.316
476, 1.75305, 0.24018, 196.506, 0, 0, 0.000976562, 0.00585938, 0.316406, -9.71289, 1.28.2022 18:37:3.324
477, 1.75305, 0.24018, 196.506, -0.000976562, 0, 0, -0.0898438, 0.318359, -9.7041, 1.28.2022 18:37:3.330
478, 1.75305, 0.24018, 196.506, 0, 0, -0.00195312, -0.00878906, 0.27832, -9.7207, 1.28.2022 18:37:3.338
479, 1.75305, 0.24018, 196.506, 0, 0, -0.00195312, -0.0585938, 0.308594, -9.68652, 1.28.2022 18:37:3.346
480, 1.75305, 0.24018, 196.506, 0, -0.000976562, -0.000976562, -0.078125, 0.324219, -9.73535, 1.28.2022 18:37:3.356
481, 1.75305, 0.24018, 196.506, -0.000976562, 0, -0.00195312, 0.0224609, 0.282227, -9.71191, 1.28.2022 18:37:3.362
482, 1.75305, 0.24018, 196.506, -0.000976562, 0, -0.00195312, -0.078125, 0.318359, -9.71875, 1.28.2022 18:37:3.370
483, 1.75305, 0.24018, 196.506, 0, 0, -0.00195312, -0.046875, 0.311523, -9.70508, 1.28.2022 18:37:3.378
484, 1.75406, 0.233259, 196.506, 0, 0.000976562, 0.000976562, -0.0224609, 0.264648, -9.68555, 1.28.2022 18:37:3.386
485, 1.75406, 0.233259, 196.506, 0, -0.000976562, 0.000976562, -0.0839844, 0.303711, -9.76172, 1.28.2022 18:37:3.394
486, 1.75406, 0.233259, 196.506, -0.000976562, 0.000976562, -0.000976562, 0.00292969, 0.288086, -9.74414, 1.28.2022 18:37:3.402
487, 1.75406, 0.233259, 196.506, 0, -0.000976562, -0.000976562, -0.0205078, 0.301758, -9.71777, 1.28.2022 18:37:3.410
488, 1.75406, 0.233259, 196.506, 0, 0.000976562, -0.000976562, -0.0878906, 0.327148, -9.75391, 1.28.2022 18:37:3.418
489, 1.75406, 0.233259, 196.506, 0.000976562, -0.000976562, -0.000976562, 0, 0.292969, -9.73047, 1.28.2022 18:37:3.426
490, 1.75406, 0.233259, 196.506, 0, -0.000976562, -0.000976562, -0.0712891, 0.314453, -9.72363, 1.28.2022 18:37:3.434
491, 1.75406, 0.233259, 196.506, 0, -0.000976562, -0.000976562, -0.0371094, 0.301758, -9.71094, 1.28.2022 18:37:3.442
492, 1.75406, 0.233259, 196.506, 0, 0, -0.00195312, 0.00292969, 0.283203, -9.74512, 1.28.2022 18:37:3.450
493, 1.75406, 0.233259, 196.506, 0, -0.000976562, -0.000976562, -0.0996094, 0.331055, -9.7207, 1.28.2022 18:37:3.458
494, 1.75406, 0.233259, 196.506, 0, 0, -0.00195312, -0.0136719, 0.291992, -9.71777, 1.28.2022 18:37:3.466
495, 1.75406, 0.233259, 196.506, 0.000976562, -0.000976562, -0.000976562, -0.0537109, 0.277344, -9.69434, 1.28.2022 18:37:3.474
496, 1.75406, 0.233259, 196.506, 0, -0.000976562, -0.000976562, -0.0878906, 0.304688, -9.72168, 1.28.2022 18:37:3.481
497, 1.75406, 0.233259, 196.506, 0, 0, -0.00195312, 0.00976562, 0.294922, -9.74219, 1.28.2022 18:37:3.490
498, 1.75406, 0.233259, 196.506, 0, -0.000976562, -0.000976562, -0.0488281, 0.298828, -9.70996, 1.28.2022 18:37:3.498
499, 1.75406, 0.233259, 196.506, 0, 0, -0.00195312, -0.0234375, 0.307617, -9.73926, 1.28.2022 18:37:3.506
500, 1.75406, 0.233259, 196.506, -0.000976562, 0.000976562, -0.000976562, -0.00683594, 0.301758, -9.72266, 1.28.2022 18:37:3.514
501, 1.75406, 0.233259, 196.506, 0, -0.000976562, -0.000976562, -0.109375, 0.314453, -9.73926, 1.28.2022 18:37:3.521
502, 1.75406, 0.233259, 196.506, -0.000976562, 0, -0.000976562, -0.0205078, 0.288086, -9.72266, 1.28.2022 18:37:3.529
503, 1.76097, 0.234263, 196.506, -0.000976562, 0, -0.000976562, -0.0253906, 0.275391, -9.69727, 1.28.2022 18:37:3.538
504, 1.76097, 0.234263, 196.506, -0.000976562, 0, -0.000976562, -0.0800781, 0.328125, -9.70703, 1.28.2022 18:37:3.546
505, 1.76097, 0.234263, 196.506, -0.000976562, 0, -0.000976562, 0.03125, 0.292969, -9.73047, 1.28.2022 18:37:3.553
506, 1.76097, 0.234263, 196.506, -0.000976562, 0, -0.000976562, -0.0332031, 0.280273, -9.71582, 1.28.2022 18:37:3.562
507, 1.76097, 0.234263, 196.506, -0.000976562, -0.000976562, 0.000976562, -0.0322266, 0.308594, -9.71289, 1.28.2022 18:37:3.570
508, 1.76097, 0.234263, 196.506, -0.000976562, -0.000976562, 0.000976562, -0.00683594, 0.264648, -9.74023, 1.28.2022 18:37:3.577
509, 1.76097, 0.234263, 196.506, 0, -0.00195312, -0.000976562, -0.0761719, 0.30957, -9.72363, 1.28.2022 18:37:3.586
510, 1.76097, 0.234263, 196.506, 0, -0.000976562, -0.000976562, -0.0283203, 0.30957, -9.72656, 1.28.2022 18:37:3.594
511, 1.76097, 0.234263, 196.506, 0, -0.000976562, 0.000976562, -0.0380859, 0.290039, -9.73633, 1.28.2022 18:37:3.601
512, 1.76097, 0.234263, 196.506, 0, -0.000976562, 0, -0.0517578, 0.308594, -9.70508, 1.28.2022 18:37:3.609
513, 1.76097, 0.234263, 196.506, 0, -0.00195312, 0, 0.00488281, 0.292969, -9.74707, 1.28.2022 18:37:3.617
514, 1.76198, 0.227342, 196.506, 0, -0.000976562, 0.000976562, -0.046875, 0.290039, -9.72754, 1.28.2022 18:37:3.625
515, 1.76198, 0.227342, 196.506, -0.000976562, -0.00195312, 0, -0.0634766, 0.299805, -9.72168, 1.28.2022 18:37:3.633
516, 1.76198, 0.227342, 196.506, -0.000976562, -0.00195312, -0.00195312, -0.00390625, 0.325195, -9.70801, 1.28.2022 18:37:3.641
517, 1.76198, 0.227342, 196.506, -0.000976562, -0.00195312, 0, -0.0703125, 0.323242, -9.7002, 1.28.2022 18:37:3.650
518, 1.76198, 0.227342, 196.506, -0.000976562, -0.000976562, -0.00195312, -0.0302734, 0.313477, -9.70312, 1.28.2022 18:37:3.658
519, 1.76198, 0.227342, 196.506, 0, -0.000976562, -0.00195312, -0.0351562, 0.283203, -9.71777, 1.28.2022 18:37:3.665
520, 1.76198, 0.227342, 196.506, -0.000976562, 0.000976562, -0.000976562, -0.0859375, 0.319336, -9.74902, 1.28.2022 18:37:3.673
521, 1.76198, 0.227342, 196.506, -0.000976562, -0.000976562, 0, 0.00585938, 0.257812, -9.7002, 1.28.2022 18:37:3.681
522, 1.76198, 0.227342, 196.506, -0.000976562, -0.000976562, -0.00195312, -0.0566406, 0.294922, -9.71973, 1.28.2022 18:37:3.690
523, 1.76198, 0.227342, 196.506, -0.00195312, -0.00195312, 0, -0.078125, 0.294922, -9.71973, 1.28.2022 18:37:3.697
524, 1.76198, 0.227342, 196.506, -0.000976562, -0.000976562, 0, 0.0078125, 0.268555, -9.73145, 1.28.2022 18:37:3.705
525, 1.76198, 0.227342, 196.506, 0, -0.000976562, 0, -0.0947266, 0.288086, -9.74316, 1.28.2022 18:37:3.713
526, 1.76198, 0.227342, 196.506, 0, -0.000976562, 0.000976562, -0.0107422, 0.305664, -9.69922, 1.28.2022 18:37:3.721
527, 1.76198, 0.227342, 196.506, 0, -0.000976562, 0, 0.000976562, 0.282227, -9.70215, 1.28.2022 18:37:3.729
528, 1.76198, 0.227342, 196.506, 0, -0.000976562, 0, -0.0820312, 0.328125, -9.69922, 1.28.2022 18:37:3.737
529, 1.76198, 0.227342, 196.506, 0, -0.000976562, 0, -0.00390625, 0.288086, -9.72754, 1.28.2022 18:37:3.745
530, 1.76198, 0.227342, 196.506, 0.000976562, -0.000976562, 0.000976562, -0.0761719, 0.294922, -9.72852, 1.28.2022 18:37:3.753
531, 1.76198, 0.227342, 196.506, 0, -0.000976562, 0, -0.0517578, 0.338867, -9.74219, 1.28.2022 18:37:3.761
532, 1.76198, 0.227342, 196.506, 0, -0.000976562, -0.00195312, 0.00292969, 0.290039, -9.70898, 1.28.2022 18:37:3.769
533, 1.76198, 0.227342, 196.506, 0, 0, 0.000976562, -0.0869141, 0.308594, -9.69336, 1.28.2022 18:37:3.777
534, 1.76097, 0.234263, 196.506, 0, -0.00195312, 0, -0.0341797, 0.322266, -9.66699, 1.28.2022 18:37:3.785
535, 1.76097, 0.234263, 196.506, 0, -0.00195312, 0, -0.015625, 0.275391, -9.69727, 1.28.2022 18:37:3.793
536, 1.76097, 0.234263, 196.506, -0.000976562, -0.00195312, 0, -0.0810547, 0.294922, -9.72656, 1.28.2022 18:37:3.801
537, 1.76097, 0.234263, 196.506, 0, -0.000976562, 0, 0.00292969, 0.292969, -9.73535, 1.28.2022 18:37:3.809
538, 1.76097, 0.234263, 196.506, 0, -0.000976562, 0.000976562, -0.0517578, 0.294922, -9.70996, 1.28.2022 18:37:3.817
539, 1.76097, 0.234263, 196.506, -0.000976562, -0.000976562, 0, -0.046875, 0.318359, -9.7168, 1.28.2022 18:37:3.825
540, 1.76097, 0.234263, 196.506, -0.000976562, -0.00195312, -0.00195312, 0.00976562, 0.276367, -9.74512, 1.28.2022 18:37:3.833
541, 1.76097, 0.234263, 196.506, -0.000976562, -0.00195312, 0, -0.0908203, 0.300781, -9.74316, 1.28.2022 18:37:3.841
542, 1.76097, 0.234263, 196.506, -0.000976562, -0.00195312, -0.00195312, -0.0175781, 0.308594, -9.69434, 1.28.2022 18:37:3.849
543, 1.76097, 0.234263, 196.506, 0, -0.000976562, 0, -0.0263672, 0.286133, -9.74902, 1.28.2022 18:37:3.857
544, 1.76097, 0.234263, 196.506, 0, 0, 0, -0.106445, 0.316406, -9.72559, 1.28.2022 18:37:3.865
545, 1.76097, 0.234263, 196.506, 0, 0, 0, -0.0214844, 0.279297, -9.76074, 1.28.2022 18:37:3.873
546, 1.76097, 0.234263, 196.506, -0.000976562, 0, -0.000976562, -0.0585938, 0.287109, -9.71094, 1.28.2022 18:37:3.881
547, 1.76097, 0.234263, 196.506, 0, 0, -0.000976562, -0.0664062, 0.319336, -9.74219, 1.28.2022 18:37:3.889
548, 1.76097, 0.234263, 196.506, 0, 0.000976562, 0, 0.00976562, 0.290039, -9.71387, 1.28.2022 18:37:3.897
549, 1.76097, 0.234263, 196.506, -0.000976562, 0, 0, -0.104492, 0.323242, -9.71777, 1.28.2022 18:37:3.905
550, 1.76097, 0.234263, 196.506, 0, 0.000976562, 0, -0.0429688, 0.304688, -9.73438, 1.28.2022 18:37:3.913
551, 1.76097, 0.234263, 196.506, 0, -0.000976562, 0, -0.00683594, 0.296875, -9.71582, 1.28.2022 18:37:3.921
552, 1.75997, 0.241184, 196.506, 0, -0.000976562, 0, -0.09375, 0.322266, -9.68262, 1.28.2022 18:37:3.929
553, 1.75997, 0.241184, 196.506, -0.000976562, 0.000976562, 0.000976562, 0.0078125, 0.290039, -9.74023, 1.28.2022 18:37:3.937
554, 1.75997, 0.241184, 196.506, 0, 0.000976562, 0, -0.0400391, 0.273438, -9.73242, 1.28.2022 18:37:3.945
555, 1.75997, 0.241184, 196.506, 0, 0, 0, -0.0507812, 0.31543, -9.68652, 1.28.2022 18:37:3.953
556, 1.75997, 0.241184, 196.506, 0.000976562, -0.000976562, 0, 0.0244141, 0.25293, -9.69141, 1.28.2022 18:37:3.961
557, 1.75997, 0.241184, 196.506, 0, 0.000976562, -0.000976562, -0.0703125, 0.311523, -9.70215, 1.28.2022 18:37:3.969
558, 1.75997, 0.241184, 196.506, 0, 0, 0, -0.0253906, 0.31543, -9.69629, 1.28.2022 18:37:3.977
559, 1.75997, 0.241184, 196.506, 0, 0, 0, 0.00585938, 0.255859, -9.7002, 1.28.2022 18:37:3.985
560, 1.75997, 0.241184, 196.506, -0.000976562, 0.000976562, 0.000976562, -0.0917969, 0.337891, -9.70898, 1.28.2022 18:37:3.993
561, 1.75997, 0.241184, 196.506, 0, 0, 0, -0.0234375, 0.263672, -9.70898, 1.28.2022 18:37:4.001
562, 1.75997, 0.241184, 196.506, 0, -0.000976562, 0, -0.0400391, 0.265625, -9.71582, 1.28.2022 18:37:4.009
563, 1.75997, 0.241184, 196.506, 0, -0.000976562, 0, -0.0917969, 0.318359, -9.69238, 1.28.2022 18:37:4.017
564, 1.75997, 0.241184, 196.506, 0, 0, 0, -0.0117188, 0.301758, -9.72266, 1.28.2022 18:37:4.025
565, 1.75305, 0.24018, 196.506, -0.000976562, 0, 0.000976562, -0.0996094, 0.277344, -9.69629, 1.28.2022 18:37:4.033
566, 1.75305, 0.24018, 196.506, -0.000976562, -0.000976562, 0, -0.0517578, 0.292969, -9.72949, 1.28.2022 18:37:4.041
567, 1.75305, 0.24018, 196.506, 0, 0.000976562, 0, 0.00292969, 0.283203, -9.73242, 1.28.2022 18:37:4.049
568, 1.75305, 0.24018, 196.506, 0, 0.000976562, 0, -0.078125, 0.308594, -9.70703, 1.28.2022 18:37:4.057
569, 1.75305, 0.24018, 196.506, 0.000976562, 0, 0, 0.000976562, 0.279297, -9.68555, 1.28.2022 18:37:4.066
570, 1.75305, 0.24018, 196.506, 0, -0.000976562, 0, -0.0136719, 0.294922, -9.7373, 1.28.2022 18:37:4.073
571, 1.75305, 0.24018, 196.506, -0.000976562, 0, -0.000976562, -0.0585938, 0.330078, -9.70703, 1.28.2022 18:37:4.081
572, 1.75305, 0.24018, 196.506, -0.000976562, 0, -0.000976562, 0.0429688, 0.316406, -9.72754, 1.28.2022 18:37:4.089
573, 1.75305, 0.24018, 196.506, 0, -0.000976562, 0, -0.0898438, 0.304688, -9.72168, 1.28.2022 18:37:4.097
574, 1.75305, 0.24018, 196.506, 0, 0, 0.000976562, -0.0546875, 0.307617, -9.7334, 1.28.2022 18:37:4.105
575, 1.75305, 0.24018, 196.506, 0, 0, 0.000976562, -0.0214844, 0.274414, -9.75391, 1.28.2022 18:37:4.113
576, 1.75305, 0.24018, 196.506, -0.000976562, 0, 0, -0.111328, 0.325195, -9.70605, 1.28.2022 18:37:4.121
577, 1.75305, 0.24018, 196.506, -0.000976562, 0, 0, -0.0253906, 0.297852, -9.73242, 1.28.2022 18:37:4.129
578, 1.75305, 0.24018, 196.506, -0.000976562, -0.00195312, -0.000976562, -0.0488281, 0.293945, -9.69629, 1.28.2022 18:37:4.137
579, 1.75305, 0.24018, 196.506, -0.000976562, -0.00195312, -0.000976562, -0.0917969, 0.303711, -9.7002, 1.28.2022 18:37:4.145
580, 1.75305, 0.24018, 196.506, 0, -0.00195312, -0.000976562, -0.00488281, 0.279297, -9.75195, 1.28.2022 18:37:4.153
581, 1.75305, 0.24018, 196.506, -0.000976562, 0, 0, -0.0644531, 0.276367, -9.72949, 1.28.2022 18:37:4.161
582, 1.75305, 0.24018, 196.506, 0, -0.000976562, -0.000976562, -0.0332031, 0.299805, -9.71973, 1.28.2022 18:37:4.169
583, 1.75305, 0.24018, 196.506, -0.000976562, 0, 0, 0.00976562, 0.266602, -9.74805, 1.28.2022 18:37:4.177
584, 1.75305, 0.24018, 196.506, -0.000976562, -0.00195312, -0.000976562, -0.0732422, 0.306641, -9.70312, 1.28.2022 18:37:4.185
585, 1.75305, 0.24018, 196.506, -0.000976562, 0, 0, -0.0234375, 0.280273, -9.71875, 1.28.2022 18:37:4.193
586, 1.75305, 0.24018, 196.506, -0.000976562, 0, 0, -0.0166016, 0.304688, -9.72461, 1.28.2022 18:37:4.201
587, 1.75205, 0.247101, 196.506, -0.000976562, -0.00195312, -0.000976562, -0.0820312, 0.287109, -9.68652, 1.28.2022 18:37:4.209
588, 1.75205, 0.247101, 196.506, 0, -0.000976562, -0.000976562, 0.00585938, 0.270508, -9.70703, 1.28.2022 18:37:4.217
589, 1.75205, 0.247101, 196.506, 0, -0.00195312, -0.000976562, -0.0634766, 0.283203, -9.72461, 1.28.2022 18:37:4.225
590, 1.75205, 0.247101, 196.506, -0.000976562, 0, 0, -0.0214844, 0.350586, -9.73535, 1.28.2022 18:37:4.233
591, 1.75205, 0.247101, 196.506, 0, -0.00195312, -0.000976562, 0.000976562, 0.308594, -9.71094, 1.28.2022 18:37:4.241
592, 1.75205, 0.247101, 196.506, 0, 0.000976562, 0, -0.0830078, 0.30957, -9.72363, 1.28.2022 18:37:4.249
593, 1.75205, 0.247101, 196.506, -0.000976562, -0.00195312, -0.000976562, -0.0322266, 0.282227, -9.71387, 1.28.2022 18:37:4.257
594, 1.75205, 0.247101, 196.506, 0, -0.00195312, -0.00195312, -0.0117188, 0.261719, -9.72168, 1.28.2022 18:37:4.265
595, 1.74513, 0.246097, 196.506, 0, -0.00195312, -0.00195312, -0.0898438, 0.294922, -9.71484, 1.28.2022 18:37:4.273
596, 1.74513, 0.246097, 196.506, 0, -0.000976562, -0.000976562, 0.0126953, 0.280273, -9.72559, 1.28.2022 18:37:4.281
597, 1.74614, 0.239176, 196.506, 0, 0, -0.00195312, -0.0732422, 0.296875, -9.71484, 1.28.2022 18:37:4.289
598, 1.74614, 0.239176, 196.506, -0.000976562, -0.00195312, 0.000976562, -0.0585938, 0.306641, -9.71191, 1.28.2022 18:37:4.297
599, 1.74614, 0.239176, 196.506, 0, -0.000976562, 0.000976562, -0.0419922, 0.263672, -9.70898, 1.28.2022 18:37:4.303
600, 1.74513, 0.246097, 196.506, 0, -0.00195312, -0.000976562, -0.0966797, 0.294922, -9.70703, 1.28.2022 18:37:4.311
601, 1.74513, 0.246097, 196.506, 0, -0.00195312, -0.000976562, -0.0107422, 0.28418, -9.69434, 1.28.2022 18:37:4.319
602, 1.74513, 0.246097, 196.506, 0, 0, -0.00195312, -0.0136719, 0.305664, -9.70117, 1.28.2022 18:37:4.327
603, 1.74513, 0.246097, 196.506, -0.000976562, 0, 0, -0.0595703, 0.333008, -9.72852, 1.28.2022 18:37:4.335
604, 1.74513, 0.246097, 196.506, -0.000976562, 0, -0.00195312, 0.0371094, 0.272461, -9.69629, 1.28.2022 18:37:4.343
605, 1.74513, 0.246097, 196.506, -0.000976562, 0, -0.00195312, -0.0732422, 0.290039, -9.70312, 1.28.2022 18:37:4.351
606, 1.74513, 0.246097, 196.506, 0, -0.000976562, -0.000976562, -0.0634766, 0.323242, -9.70703, 1.28.2022 18:37:4.359
607, 1.73822, 0.245093, 196.506, 0, 0.000976562, 0, 0.0107422, 0.293945, -9.69922, 1.28.2022 18:37:4.367
608, 1.73822, 0.245093, 196.506, 0, 0, 0, -0.0966797, 0.316406, -9.71875, 1.28.2022 18:37:4.375
609, 1.73922, 0.238172, 196.506, 0, 0, -0.000976562, -0.0175781, 0.3125, -9.68945, 1.28.2022 18:37:4.383
610, 1.73922, 0.238172, 196.506, -0.000976562, 0, 0, -0.0234375, 0.290039, -9.73438, 1.28.2022 18:37:4.391
611, 1.73922, 0.238172, 196.506, 0, 0.000976562, 0, -0.0800781, 0.308594, -9.71387, 1.28.2022 18:37:4.399
612, 1.73922, 0.238172, 196.506, 0, 0, 0.000976562, -0.000976562, 0.291016, -9.68066, 1.28.2022 18:37:4.407
613, 1.74614, 0.239176, 196.506, -0.000976562, 0, 0, -0.0400391, 0.292969, -9.72461, 1.28.2022 18:37:4.415
614, 1.74614, 0.239176, 196.506, -0.000976562, 0, 0, -0.0556641, 0.300781, -9.69141, 1.28.2022 18:37:4.423
615, 1.74614, 0.239176, 196.506, -0.000976562, -0.000976562, 0, -0.0195312, 0.262695, -9.77344, 1.28.2022 18:37:4.431
616, 1.74614, 0.239176, 196.506, -0.000976562, 0.000976562, -0.000976562, -0.0683594, 0.273438, -9.72754, 1.28.2022 18:37:4.439
617, 1.74614, 0.239176, 196.506, -0.000976562, 0, -0.000976562, -0.0185547, 0.296875, -9.72754, 1.28.2022 18:37:4.447
618, 1.74614, 0.239176, 196.506, 0, -0.000976562, -0.000976562, 0.00585938, 0.289062, -9.69043, 1.28.2022 18:37:4.455
619, 1.74614, 0.239176, 196.506, 0, 0, 0, -0.106445, 0.333008, -9.71582, 1.28.2022 18:37:4.463
620, 1.74614, 0.239176, 196.506, -0.000976562, 0, -0.000976562, -0.00195312, 0.273438, -9.72559, 1.28.2022 18:37:4.471
621, 1.74614, 0.239176, 196.506, 0, 0, 0, -0.0351562, 0.31543, -9.69336, 1.28.2022 18:37:4.479
622, 1.74714, 0.232255, 196.506, 0, 0, 0, -0.0517578, 0.288086, -9.72949, 1.28.2022 18:37:4.487
623, 1.74714, 0.232255, 196.506, -0.000976562, 0, 0.000976562, 0.0253906, 0.279297, -9.68652, 1.28.2022 18:37:4.496
624, 1.74714, 0.232255, 196.506, 0, -0.000976562, 0, -0.0976562, 0.314453, -9.73047, 1.28.2022 18:37:4.504
625, 1.74714, 0.232255, 196.506, 0, 0.000976562, 0, -0.0224609, 0.330078, -9.69824, 1.28.2022 18:37:4.512
626, 1.74714, 0.232255, 196.506, -0.000976562, 0, 0, 0.0224609, 0.308594, -9.72266, 1.28.2022 18:37:4.519
627, 1.74714, 0.232255, 196.506, 0, 0, 0, -0.111328, 0.325195, -9.7041, 1.28.2022 18:37:4.527
628, 1.74714, 0.232255, 196.506, 0, 0.000976562, 0, -0.00585938, 0.292969, -9.67383, 1.28.2022 18:37:4.535
629, 1.74714, 0.232255, 196.506, 0, 0, -0.000976562, -0.0332031, 0.258789, -9.73047, 1.28.2022 18:37:4.543
630, 1.74814, 0.225334, 196.506, -0.000976562, 0, -0.000976562, -0.0322266, 0.310547, -9.67969, 1.28.2022 18:37:4.551
631, 1.74814, 0.225334, 196.506, 0, -0.000976562, -0.000976562, 0.00292969, 0.287109, -9.69531, 1.28.2022 18:37:4.559
632, 1.74814, 0.225334, 196.506, -0.000976562, 0, 0, -0.0898438, 0.318359, -9.69238, 1.28.2022 18:37:4.567
633, 1.74814, 0.225334, 196.506, 0, -0.000976562, 0, -0.0371094, 0.31543, -9.69824, 1.28.2022 18:37:4.575
634, 1.74814, 0.225334, 196.506, 0, 0, 0, -0.00390625, 0.289062, -9.70215, 1.28.2022 18:37:4.583
635, 1.74814, 0.225334, 196.506, 0, -0.000976562, 0.000976562, -0.0908203, 0.3125, -9.74512, 1.28.2022 18:37:4.591
636, 1.74814, 0.225334, 196.506, 0, 0, 0.000976562, 0.00390625, 0.274414, -9.68359, 1.28.2022 18:37:4.599
637, 1.74814, 0.225334, 196.506, -0.000976562, 0, 0, -0.0253906, 0.272461, -9.70898, 1.28.2022 18:37:4.607
638, 1.74814, 0.225334, 196.506, -0.000976562, -0.000976562, 0, -0.046875, 0.308594, -9.70312, 1.28.2022 18:37:4.616
639, 1.74814, 0.225334, 196.506, -0.000976562, 0, -0.000976562, 0.00488281, 0.283203, -9.73047, 1.28.2022 18:37:4.623
640, 1.74915, 0.218412, 196.506, 0, 0, -0.000976562, -0.0654297, 0.308594, -9.68652, 1.28.2022 18:37:4.631
641, 1.74915, 0.218412, 196.506, 0, 0.000976562, -0.000976562, -0.0439453, 0.305664, -9.68652, 1.28.2022 18:37:4.639
642, 1.74915, 0.218412, 196.506, -0.000976562, 0, 0, -0.00683594, 0.285156, -9.72363, 1.28.2022 18:37:4.647
643, 1.74915, 0.218412, 196.506, -0.000976562, 0, 0, -0.0898438, 0.296875, -9.71484, 1.28.2022 18:37:4.655
644, 1.74915, 0.218412, 196.506, -0.000976562, 0.000976562, -0.00195312, 0.0107422, 0.287109, -9.70703, 1.28.2022 18:37:4.663
645, 1.74915, 0.218412, 196.506, 0, 0, 0, -0.0136719, 0.294922, -9.73242, 1.28.2022 18:37:4.671
646, 1.74909, 0.21852, 196.514, -0.000976562, -0.000976562, -0.000976562, -0.0683594, 0.311523, -9.70508, 1.28.2022 18:37:4.679
647, 1.74909, 0.21852, 196.514, 0, -0.000976562, -0.000976562, 0.0078125, 0.291992, -9.69922, 1.28.2022 18:37:4.687
648, 1.74909, 0.21852, 196.514, -0.000976562, -0.000976562, -0.000976562, -0.0810547, 0.293945, -9.75977, 1.28.2022 18:37:4.695
649, 1.74909, 0.21852, 196.514, 0, 0, 0.000976562, -0.0585938, 0.326172, -9.7168, 1.28.2022 18:37:4.703
650, 1.74909, 0.21852, 196.514, -0.000976562, 0, 0, -0.015625, 0.268555, -9.7168, 1.28.2022 18:37:4.712
651, 1.74909, 0.21852, 196.514, 0, 0, 0, -0.0830078, 0.287109, -9.71289, 1.28.2022 18:37:4.719
652, 1.74909, 0.21852, 196.514, 0, -0.000976562, 0, -0.0185547, 0.304688, -9.72949, 1.28.2022 18:37:4.727
653, 1.74909, 0.21852, 196.514, 0, 0, -0.000976562, -0.015625, 0.291992, -9.71777, 1.28.2022 18:37:4.735
654, 1.74909, 0.21852, 196.514, 0, -0.000976562, 0, -0.0761719, 0.316406, -9.7373, 1.28.2022 18:37:4.743
655, 1.74909, 0.21852, 196.514, -0.000976562, 0, 0.000976562, 0.0244141, 0.28125, -9.74316, 1.28.2022 18:37:4.751
656, 1.74915, 0.218412, 196.506, 0.000976562, 0, 0, -0.0302734, 0.291992, -9.71289, 1.28.2022 18:37:4.759
657, 1.74909, 0.21852, 196.514, -0.000976562, 0, -0.000976562, -0.0498047, 0.301758, -9.71484, 1.28.2022 18:37:4.767
658, 1.74909, 0.21852, 196.514, -0.000976562, -0.000976562, 0, 0.0166016, 0.292969, -9.74707, 1.28.2022 18:37:4.775
659, 1.74909, 0.21852, 196.514, -0.000976562, -0.000976562, 0, -0.0800781, 0.296875, -9.70508, 1.28.2022 18:37:4.783
660, 1.74909, 0.21852, 196.514, -0.000976562, -0.000976562, 0, -0.0185547, 0.323242, -9.70312, 1.28.2022 18:37:4.791
661, 1.74915, 0.218412, 196.506, -0.000976562, -0.000976562, 0, -0.0263672, 0.314453, -9.73828, 1.28.2022 18:37:4.799
662, 1.74915, 0.218412, 196.506, -0.000976562, -0.00195312, 0.000976562, -0.0917969, 0.313477, -9.68555, 1.28.2022 18:37:4.807
663, 1.74915, 0.218412, 196.506, -0.000976562, -0.000976562, 0, -0.00683594, 0.268555, -9.72168, 1.28.2022 18:37:4.815
664, 1.74915, 0.218412, 196.506, -0.00195312, 0, 0, -0.0322266, 0.272461, -9.7041, 1.28.2022 18:37:4.823
665, 1.75707, 0.212495, 196.507, -0.000976562, 0, 0, -0.0683594, 0.304688, -9.72852, 1.28.2022 18:37:4.831
666, 1.75707, 0.212495, 196.507, -0.000976562, 0, 0, 0.0146484, 0.290039, -9.71191, 1.28.2022 18:37:4.839
667, 1.75707, 0.212495, 196.507, 0, 0, 0, -0.0869141, 0.327148, -9.6875, 1.28.2022 18:37:4.847
668, 1.75707, 0.212495, 196.507, 0, 0, 0, -0.015625, 0.311523, -9.71094, 1.28.2022 18:37:4.855
669, 1.75707, 0.212495, 196.507, 0, -0.000976562, 0, 0.00488281, 0.304688, -9.73242, 1.28.2022 18:37:4.863
670, 1.75707, 0.212495, 196.507, -0.000976562, 0, 0, -0.0849609, 0.306641, -9.7002, 1.28.2022 18:37:4.871
671, 1.75707, 0.212495, 196.507, 0, 0, 0, 0.0214844, 0.290039, -9.73535, 1.28.2022 18:37:4.879
672, 1.75707, 0.212495, 196.507, -0.000976562, 0.000976562, 0, -0.0322266, 0.289062, -9.68945, 1.28.2022 18:37:4.887
673, 1.75707, 0.212495, 196.507, 0, 0.000976562, -0.000976562, -0.0595703, 0.324219, -9.75684, 1.28.2022 18:37:4.895
674, 1.75707, 0.212495, 196.507, -0.000976562, -0.000976562, 0, -0.0117188, 0.266602, -9.73047, 1.28.2022 18:37:4.903
675, 1.75707, 0.212495, 196.507, -0.000976562, -0.000976562, 0, -0.0869141, 0.291016, -9.68652, 1.28.2022 18:37:4.911
676, 1.75707, 0.212495, 196.507, 0, -0.000976562, 0, -0.0283203, 0.274414, -9.74414, 1.28.2022 18:37:4.919
677, 1.75707, 0.212495, 196.507, -0.000976562, 0, 0, -0.0224609, 0.300781, -9.67969, 1.28.2022 18:37:4.927
678, 1.75707, 0.212495, 196.507, 0, 0, -0.000976562, -0.0878906, 0.290039, -9.71484, 1.28.2022 18:37:4.935
679, 1.75707, 0.212495, 196.507, -0.000976562, 0.000976562, -0.000976562, 0.00976562, 0.294922, -9.73926, 1.28.2022 18:37:4.943
680, 1.75707, 0.212495, 196.507, 0, 0, 0, -0.0371094, 0.291992, -9.7041, 1.28.2022 18:37:4.951
681, 1.75707, 0.212495, 196.507, -0.000976562, 0, 0, -0.0410156, 0.292969, -9.6582, 1.28.2022 18:37:4.959
682, 1.75707, 0.212495, 196.507, 0, 0, -0.000976562, -0.00585938, 0.287109, -9.70703, 1.28.2022 18:37:4.967
683, 1.75015, 0.211491, 196.507, 0, 0, 0, -0.0800781, 0.305664, -9.67676, 1.28.2022 18:37:4.975
684, 1.75015, 0.211491, 196.507, 0, 0, 0, -0.0400391, 0.292969, -9.73438, 1.28.2022 18:37:4.983
685, 1.75015, 0.211491, 196.507, 0.000976562, 0.000976562, 0, -0.0205078, 0.287109, -9.7041, 1.28.2022 18:37:4.991
686, 1.75015, 0.211491, 196.507, 0, 0.000976562, 0, -0.0810547, 0.34082, -9.75391, 1.28.2022 18:37:4.999
687, 1.75015, 0.211491, 196.507, -0.000976562, -0.000976562, 0, 0.00976562, 0.304688, -9.72559, 1.28.2022 18:37:5.007
688, 1.75015, 0.211491, 196.507, 0, 0, 0, -0.0517578, 0.311523, -9.70996, 1.28.2022 18:37:5.015
689, 1.75015, 0.211491, 196.507, -0.000976562, 0, 0.000976562, -0.0605469, 0.317383, -9.69043, 1.28.2022 18:37:5.023
690, 1.75015, 0.211491, 196.507, 0, -0.000976562, 0, 0.0126953, 0.293945, -9.7041, 1.28.2022 18:37:5.031
691, 1.75015, 0.211491, 196.507, 0, 0, -0.000976562, -0.0839844, 0.291992, -9.77148, 1.28.2022 18:37:5.039
692, 1.75015, 0.211491, 196.507, 0.000976562, 0, 0, -0.0498047, 0.305664, -9.7666, 1.28.2022 18:37:5.047
693, 1.75015, 0.211491, 196.507, 0, -0.000976562, 0, -0.00683594, 0.291992, -9.72266, 1.28.2022 18:37:5.055
694, 1.75015, 0.211491, 196.507, 0, 0, 0, -0.0634766, 0.330078, -9.69043, 1.28.2022 18:37:5.063
695, 1.75015, 0.211491, 196.507, 0, 0, -0.000976562, 0.0078125, 0.313477, -9.71094, 1.28.2022 18:37:5.072
696, 1.75015, 0.211491, 196.507, 0, 0, 0, -0.0449219, 0.293945, -9.70801, 1.28.2022 18:37:5.079
697, 1.75015, 0.211491, 196.507, 0, -0.000976562, 0, -0.0615234, 0.287109, -9.71777, 1.28.2022 18:37:5.087
698, 1.75015, 0.211491, 196.507, 0, 0, 0, 0.0146484, 0.253906, -9.71973, 1.28.2022 18:37:5.095
699, 1.75015, 0.211491, 196.507, 0, 0, 0.000976562, -0.0898438, 0.27832, -9.72461, 1.28.2022 18:37:5.103
700, 1.75015, 0.211491, 196.507, 0, -0.000976562, 0, -0.0371094, 0.290039, -9.71289, 1.28.2022 18:37:5.111
701, 1.75015, 0.211491, 196.507, 0, -0.000976562, -0.000976562, -0.0166016, 0.274414, -9.75391, 1.28.2022 18:37:5.119
702, 1.75015, 0.211491, 196.507, 0, -0.000976562, -0.000976562, -0.104492, 0.300781, -9.75, 1.28.2022 18:37:5.127
703, 1.74915, 0.218412, 196.506, 0, 0, 0, -0.0439453, 0.260742, -9.69238, 1.28.2022 18:37:5.135
704, 1.74915, 0.218412, 196.506, 0, 0, 0, -0.0390625, 0.291016, -9.68457, 1.28.2022 18:37:5.143
705, 1.74915, 0.218412, 196.506, -0.000976562, 0, 0, -0.0595703, 0.293945, -9.75781, 1.28.2022 18:37:5.152
706, 1.74915, 0.218412, 196.506, -0.000976562, -0.000976562, 0, -0.0195312, 0.257812, -9.75488, 1.28.2022 18:37:5.159
707, 1.74915, 0.218412, 196.506, 0, 0, 0.000976562, -0.0664062, 0.291992, -9.71973, 1.28.2022 18:37:5.167
708, 1.74915, 0.218412, 196.506, 0, -0.000976562, 0, -0.0371094, 0.279297, -9.68945, 1.28.2022 18:37:5.175
709, 1.74123, 0.22433, 196.506, 0, 0, 0, -0.00585938, 0.28125, -9.67578, 1.28.2022 18:37:5.183
710, 1.74123, 0.22433, 196.506, 0, 0, 0, -0.0830078, 0.321289, -9.73242, 1.28.2022 18:37:5.191
711, 1.74123, 0.22433, 196.506, 0, 0, 0.000976562, -0.0253906, 0.291016, -9.6875, 1.28.2022 18:37:5.199
712, 1.74123, 0.22433, 196.506, 0, 0, 0.000976562, -0.0205078, 0.289062, -9.6875, 1.28.2022 18:37:5.207
713, 1.74123, 0.22433, 196.506, 0, 0.000976562, 0, -0.0371094, 0.289062, -9.69238, 1.28.2022 18:37:5.215
714, 1.73431, 0.223326, 196.506, 0, -0.000976562, 0, -0.000976562, 0.277344, -9.69727, 1.28.2022 18:37:5.223
715, 1.73431, 0.223326, 196.506, -0.000976562, 0, 0, -0.0791016, 0.307617, -9.75684, 1.28.2022 18:37:5.232
716, 1.73331, 0.230247, 196.506, 0, 0, -0.000976562, -0.0595703, 0.301758, -9.72656, 1.28.2022 18:37:5.239
717, 1.73331, 0.230247, 196.506, 0.000976562, 0.000976562, -0.000976562, 0.0126953, 0.269531, -9.69531, 1.28.2022 18:37:5.247
718, 1.73331, 0.230247, 196.506, -0.000976562, -0.000976562, 0, -0.0869141, 0.308594, -9.70703, 1.28.2022 18:37:5.256
719, 1.73331, 0.230247, 196.506, -0.000976562, 0, 0, -0.0205078, 0.293945, -9.7041, 1.28.2022 18:37:5.263
720, 1.73331, 0.230247, 196.506, 0, 0, 0, -0.0253906, 0.267578, -9.69727, 1.28.2022 18:37:5.271
721, 1.73331, 0.230247, 196.506, 0, 0, 0, -0.0800781, 0.310547, -9.69531, 1.28.2022 18:37:5.277
722, 1.72639, 0.229243, 196.506, 0, 0, -0.000976562, 0.000976562, 0.290039, -9.71582, 1.28.2022 18:37:5.285
723, 1.72639, 0.229243, 196.506, 0, -0.000976562, 0, -0.0712891, 0.294922, -9.71289, 1.28.2022 18:37:5.293
724, 1.72639, 0.229243, 196.506, 0, -0.000976562, 0, -0.0234375, 0.329102, -9.73828, 1.28.2022 18:37:5.301
725, 1.72639, 0.229243, 196.506, 0, -0.000976562, 0, 0.00390625, 0.28418, -9.67578, 1.28.2022 18:37:5.309
726, 1.72639, 0.229243, 196.506, -0.000976562, 0, 0, -0.0917969, 0.301758, -9.70215, 1.28.2022 18:37:5.317
727, 1.72639, 0.229243, 196.506, -0.000976562, -0.000976562, 0, -0.00878906, 0.303711, -9.7041, 1.28.2022 18:37:5.325
728, 1.72639, 0.229243, 196.506, -0.000976562, -0.000976562, 0, -0.0185547, 0.285156, -9.7041, 1.28.2022 18:37:5.333
729, 1.72639, 0.229243, 196.506, -0.000976562, 0, -0.000976562, -0.0849609, 0.326172, -9.71387, 1.28.2022 18:37:5.341
730, 1.73331, 0.230247, 196.506, -0.000976562, 0, 0, 0.0146484, 0.28125, -9.75391, 1.28.2022 18:37:5.349
731, 1.73331, 0.230247, 196.506, 0, 0, -0.000976562, -0.0449219, 0.296875, -9.71777, 1.28.2022 18:37:5.358
732, 1.73331, 0.230247, 196.506, 0, 0, 0, -0.0419922, 0.301758, -9.71777, 1.28.2022 18:37:5.365
733, 1.73331, 0.230247, 196.506, 0, 0, 0, 0.00585938, 0.291016, -9.66406, 1.28.2022 18:37:5.373
734, 1.73331, 0.230247, 196.506, -0.000976562, 0, 0, -0.0996094, 0.3125, -9.74023, 1.28.2022 18:37:5.381
735, 1.73331, 0.230247, 196.506, -0.000976562, 0, 0.000976562, 0.0195312, 0.297852, -9.7373, 1.28.2022 18:37:5.389
736, 1.73331, 0.230247, 196.506, -0.000976562, 0, 0, -0.0371094, 0.277344, -9.69434, 1.28.2022 18:37:5.397
737, 1.73331, 0.230247, 196.506, 0, -0.000976562, 0.000976562, -0.0830078, 0.304688, -9.72168, 1.28.2022 18:37:5.405
738, 1.73331, 0.230247, 196.506, 0, 0, 0.000976562, 0.0175781, 0.275391, -9.70508, 1.28.2022 18:37:5.413
739, 1.73331, 0.230247, 196.506, 0, -0.000976562, -0.000976562, -0.0585938, 0.288086, -9.72266, 1.28.2022 18:37:5.421
740, 1.73431, 0.223326, 196.506, -0.000976562, 0, -0.00195312, -0.0712891, 0.3125, -9.74023, 1.28.2022 18:37:5.429
741, 1.73431, 0.223326, 196.506, 0, 0, 0, -0.0117188, 0.276367, -9.74023, 1.28.2022 18:37:5.437
742, 1.73431, 0.223326, 196.506, 0, 0, 0, -0.0878906, 0.333008, -9.7207, 1.28.2022 18:37:5.445
743, 1.73431, 0.223326, 196.506, 0, 0, 0, -0.046875, 0.293945, -9.70117, 1.28.2022 18:37:5.453
744, 1.73431, 0.223326, 196.506, -0.000976562, -0.000976562, 0, -0.0234375, 0.280273, -9.72266, 1.28.2022 18:37:5.461
745, 1.73431, 0.223326, 196.506, 0, -0.000976562, -0.000976562, -0.103516, 0.31543, -9.6709, 1.28.2022 18:37:5.469
746, 1.73431, 0.223326, 196.506, 0, 0, 0, 0.00488281, 0.316406, -9.72949, 1.28.2022 18:37:5.477
747, 1.74022, 0.231251, 196.506, -0.000976562, 0.000976562, 0, -0.0429688, 0.306641, -9.73145, 1.28.2022 18:37:5.485
748, 1.74123, 0.22433, 196.506, -0.00195312, 0.000976562, 0, -0.0751953, 0.323242, -9.70215, 1.28.2022 18:37:5.493
749, 1.74123, 0.22433, 196.506, -0.000976562, 0, -0.00195312, 0.0126953, 0.260742, -9.71191, 1.28.2022 18:37:5.501
750, 1.74022, 0.231251, 196.506, -0.000976562, 0, 0, -0.0810547, 0.299805, -9.72656, 1.28.2022 18:37:5.509
751, 1.74022, 0.231251, 196.506, 0, 0, 0, -0.0332031, 0.296875, -9.72266, 1.28.2022 18:37:5.517
752, 1.74022, 0.231251, 196.506, -0.000976562, 0, 0, -0.0205078, 0.301758, -9.69922, 1.28.2022 18:37:5.525
753, 1.74022, 0.231251, 196.506, -0.000976562, -0.000976562, 0, -0.0849609, 0.326172, -9.72559, 1.28.2022 18:37:5.533
754, 1.74714, 0.232255, 196.506, 0, 0, 0, 0.00292969, 0.299805, -9.73926, 1.28.2022 18:37:5.541
755, 1.74714, 0.232255, 196.506, 0, 0, 0, -0.0576172, 0.297852, -9.75781, 1.28.2022 18:37:5.549
756, 1.74714, 0.232255, 196.506, 0, 0, 0, -0.0800781, 0.321289, -9.72363, 1.28.2022 18:37:5.557
757, 1.74714, 0.232255, 196.506, -0.000976562, 0, 0, 0.0175781, 0.277344, -9.70703, 1.28.2022 18:37:5.565
758, 1.74714, 0.232255, 196.506, -0.000976562, 0, -0.00195312, -0.0820312, 0.31543, -9.69238, 1.28.2022 18:37:5.573
759, 1.74714, 0.232255, 196.506, 0, 0, 0, -0.0380859, 0.314453, -9.74121, 1.28.2022 18:37:5.581
760, 1.75406, 0.233259, 196.506, 0, -0.000976562, -0.00195312, -0.0566406, 0.288086, -9.74609, 1.28.2022 18:37:5.589
761, 1.75406, 0.233259, 196.506, 0, -0.000976562, -0.00195312, -0.123047, 0.320312, -9.6875, 1.28.2022 18:37:5.597
762, 1.75305, 0.24018, 196.506, -0.000976562, 0, -0.00195312, 0.0107422, 0.301758, -9.70605, 1.28.2022 18:37:5.605
763, 1.75305, 0.24018, 196.506, -0.000976562, 0, 0, -0.0205078, 0.270508, -9.70703, 1.28.2022 18:37:5.613
764, 1.75305, 0.24018, 196.506, -0.000976562, 0, 0, -0.0488281, 0.311523, -9.70508, 1.28.2022 18:37:5.621
765, 1.75305, 0.24018, 196.506, -0.000976562, 0, -0.00195312, 0.0175781, 0.27832, -9.72168, 1.28.2022 18:37:5.629
766, 1.75997, 0.241184, 196.506, -0.000976562, -0.000976562, -0.00195312, -0.0849609, 0.303711, -9.68848, 1.28.2022 18:37:5.637
767, 1.75997, 0.241184, 196.506, -0.000976562, -0.000976562, -0.00195312, -0.0234375, 0.302734, -9.75098, 1.28.2022 18:37:5.645
768, 1.75991, 0.241293, 196.513, -0.000976562, 0, -0.000976562, -0.00195312, 0.288086, -9.73926, 1.28.2022 18:37:5.653
769, 1.75991, 0.241293, 196.513, 0, -0.000976562, 0, -0.104492, 0.30957, -9.74414, 1.28.2022 18:37:5.661
770, 1.75991, 0.241293, 196.513, 0.000976562, 0, 0.000976562, 0.00976562, 0.271484, -9.74707, 1.28.2022 18:37:5.669
771, 1.75997, 0.241184, 196.506, 0, 0, 0, -0.0234375, 0.291016, -9.74121, 1.28.2022 18:37:5.677
772, 1.75997, 0.241184, 196.506, -0.000976562, 0, 0, -0.0810547, 0.317383, -9.76172, 1.28.2022 18:37:5.685
773, 1.75997, 0.241184, 196.506, -0.000976562, 0, 0, 0.0126953, 0.306641, -9.72266, 1.28.2022 18:37:5.693
774, 1.75997, 0.241184, 196.506, 0, 0, 0, -0.0996094, 0.306641, -9.70508, 1.28.2022 18:37:5.701
775, 1.75997, 0.241184, 196.506, 0, 0, 0.000976562, -0.0439453, 0.313477, -9.70312, 1.28.2022 18:37:5.709
776, 1.75997, 0.241184, 196.506, 0, 0, 0, -0.0166016, 0.301758, -9.72949, 1.28.2022 18:37:5.717
777, 1.75997, 0.241184, 196.506, 0, -0.000976562, 0, -0.112305, 0.300781, -9.74707, 1.28.2022 18:37:5.725
778, 1.75997, 0.241184, 196.506, -0.000976562, -0.000976562, 0, -0.00878906, 0.319336, -9.74121, 1.28.2022 18:37:5.733
779, 1.75997, 0.241184, 196.506, -0.000976562, -0.000976562, 0.000976562, -0.0263672, 0.272461, -9.78418, 1.28.2022 18:37:5.741
780, 1.75997, 0.241184, 196.506, -0.000976562, -0.000976562, -0.000976562, -0.0634766, 0.31543, -9.69824, 1.28.2022 18:37:5.749
781, 1.75997, 0.241184, 196.506, -0.000976562, 0, 0, -0.0166016, 0.294922, -9.7373, 1.28.2022 18:37:5.757
782, 1.75997, 0.241184, 196.506, 0, 0.000976562, 0, -0.0791016, 0.298828, -9.77148, 1.28.2022 18:37:5.765
783, 1.75997, 0.241184, 196.506, 0, -0.000976562, 0.000976562, -0.0615234, 0.295898, -9.74316, 1.28.2022 18:37:5.773
784, 1.75997, 0.241184, 196.506, 0, -0.000976562, 0, 0.0244141, 0.274414, -9.69336, 1.28.2022 18:37:5.781
785, 1.75997, 0.241184, 196.506, -0.000976562, 0, 0, -0.0996094, 0.317383, -9.74902, 1.28.2022 18:37:5.789
786, 1.75897, 0.248105, 196.506, 0, 0.000976562, -0.000976562, -0.0185547, 0.280273, -9.73242, 1.28.2022 18:37:5.797
787, 1.75997, 0.241184, 196.506, 0, 0.000976562, 0, -0.0546875, 0.327148, -9.75, 1.28.2022 18:37:5.805
788, 1.75997, 0.241184, 196.506, -0.000976562, 0, 0.000976562, -0.0439453, 0.318359, -9.69531, 1.28.2022 18:37:5.813
789, 1.75997, 0.241184, 196.506, -0.000976562, 0, 0, 0.0292969, 0.268555, -9.73145, 1.28.2022 18:37:5.822
790, 1.75997, 0.241184, 196.506, 0.000976562, 0, 0, -0.0742188, 0.286133, -9.74316, 1.28.2022 18:37:5.829
791, 1.75997, 0.241184, 196.506, -0.000976562, 0, -0.000976562, -0.0322266, 0.296875, -9.70117, 1.28.2022 18:37:5.837
792, 1.75997, 0.241184, 196.506, 0, 0, 0, 0.0146484, 0.290039, -9.71387, 1.28.2022 18:37:5.845
793, 1.75997, 0.241184, 196.506, -0.000976562, 0, 0, -0.0664062, 0.314453, -9.7334, 1.28.2022 18:37:5.853
794, 1.75997, 0.241184, 196.506, -0.000976562, -0.000976562, 0, -0.0107422, 0.267578, -9.7002, 1.28.2022 18:37:5.861
795, 1.75997, 0.241184, 196.506, 0, 0, 0, -0.0517578, 0.288086, -9.72461, 1.28.2022 18:37:5.869
796, 1.75997, 0.241184, 196.506, -0.000976562, 0, 0, -0.0712891, 0.34082, -9.72266, 1.28.2022 18:37:5.877
797, 1.75997, 0.241184, 196.506, 0, -0.000976562, 0, 0.0146484, 0.268555, -9.72168, 1.28.2022 18:37:5.885
798, 1.75997, 0.241184, 196.506, -0.000976562, -0.000976562, 0, -0.0546875, 0.271484, -9.75098, 1.28.2022 18:37:5.893
799, 1.75997, 0.241184, 196.506, 0, 0, 0, -0.0400391, 0.310547, -9.70117, 1.28.2022 18:37:5.901
800, 1.75997, 0.241184, 196.506, 0.000976562, 0.000976562, -0.000976562, -0.0117188, 0.302734, -9.73438, 1.28.2022 18:37:5.909
801, 1.75997, 0.241184, 196.506, 0, -0.000976562, -0.000976562, -0.104492, 0.351562, -9.70996, 1.28.2022 18:37:5.917
802, 1.75305, 0.24018, 196.506, 0, 0, -0.00195312, -0.0380859, 0.289062, -9.75586, 1.28.2022 18:37:5.925
803, 1.75305, 0.24018, 196.506, 0, 0, -0.000976562, -0.00878906, 0.283203, -9.73535, 1.28.2022 18:37:5.933
804, 1.75406, 0.233259, 196.506, -0.000976562, 0, -0.000976562, -0.0820312, 0.291992, -9.69629, 1.28.2022 18:37:5.941
805, 1.75406, 0.233259, 196.506, 0, -0.000976562, -0.000976562, -0.00195312, 0.275391, -9.7207, 1.28.2022 18:37:5.949
806, 1.75406, 0.233259, 196.506, 0, 0, -0.000976562, -0.0498047, 0.302734, -9.74121, 1.28.2022 18:37:5.957
807, 1.75406, 0.233259, 196.506, 0, 0, -0.000976562, -0.0498047, 0.324219, -9.73828, 1.28.2022 18:37:5.965
808, 1.75406, 0.233259, 196.506, -0.000976562, 0.000976562, -0.000976562, 0.0224609, 0.263672, -9.71973, 1.28.2022 18:37:5.973
809, 1.75406, 0.233259, 196.506, -0.000976562, 0.000976562, -0.000976562, -0.0732422, 0.301758, -9.72168, 1.28.2022 18:37:5.981
810, 1.75406, 0.233259, 196.506, -0.000976562, 0, -0.000976562, -0.0107422, 0.306641, -9.71582, 1.28.2022 18:37:5.989
811, 1.75406, 0.233259, 196.506, -0.000976562, 0, -0.00195312, -0.0263672, 0.286133, -9.75391, 1.28.2022 18:37:5.997
812, 1.75406, 0.233259, 196.506, 0, 0, -0.000976562, -0.101562, 0.293945, -9.7002, 1.28.2022 18:37:6.005
813, 1.75406, 0.233259, 196.506, -0.000976562, 0, -0.000976562, -0.00878906, 0.301758, -9.72461, 1.28.2022 18:37:6.013
814, 1.75406, 0.233259, 196.506, 0, 0, -0.00195312, -0.046875, 0.298828, -9.69629, 1.28.2022 18:37:6.021
815, 1.75406, 0.233259, 196.506, 0, 0.000976562, 0.000976562, -0.0566406, 0.301758, -9.7168, 1.28.2022 18:37:6.029
816, 1.75406, 0.233259, 196.506, 0, 0, -0.000976562, 0.00488281, 0.263672, -9.73535, 1.28.2022 18:37:6.038
817, 1.75406, 0.233259, 196.506, -0.000976562, 0, -0.000976562, -0.125977, 0.338867, -9.73438, 1.28.2022 18:37:6.045
818, 1.75406, 0.233259, 196.506, 0, -0.000976562, 0, -0.0400391, 0.306641, -9.71289, 1.28.2022 18:37:6.053
819, 1.75406, 0.233259, 196.506, 0, 0, -0.000976562, -0.0166016, 0.263672, -9.72559, 1.28.2022 18:37:6.061
820, 1.75406, 0.233259, 196.506, 0, -0.000976562, -0.000976562, -0.0947266, 0.301758, -9.71875, 1.28.2022 18:37:6.069
821, 1.75406, 0.233259, 196.506, -0.000976562, -0.000976562, -0.000976562, 0.00683594, 0.264648, -9.74512, 1.28.2022 18:37:6.077
822, 1.75406, 0.233259, 196.506, 0, -0.000976562, -0.000976562, -0.0234375, 0.273438, -9.7207, 1.28.2022 18:37:6.085
823, 1.75406, 0.233259, 196.506, -0.000976562, 0, -0.00195312, -0.0634766, 0.300781, -9.69141, 1.28.2022 18:37:6.093
824, 1.75406, 0.233259, 196.506, -0.000976562, -0.00195312, -0.00195312, -0.000976562, 0.298828, -9.69922, 1.28.2022 18:37:6.101
825, 1.74714, 0.232255, 196.506, -0.000976562, -0.000976562, -0.000976562, -0.0732422, 0.297852, -9.73828, 1.28.2022 18:37:6.109
826, 1.74714, 0.232255, 196.506, 0, 0, -0.000976562, -0.0234375, 0.321289, -9.74316, 1.28.2022 18:37:6.117
827, 1.74714, 0.232255, 196.506, 0, 0, -0.000976562, -0.00488281, 0.302734, -9.73926, 1.28.2022 18:37:6.125
828, 1.74714, 0.232255, 196.506, -0.000976562, 0, -0.00195312, -0.106445, 0.328125, -9.71777, 1.28.2022 18:37:6.133
829, 1.74714, 0.232255, 196.506, 0, 0, -0.000976562, -0.0283203, 0.301758, -9.72754, 1.28.2022 18:37:6.142
830, 1.74714, 0.232255, 196.506, -0.000976562, 0.000976562, -0.000976562, 0.104492, 0.351562, -9.78906, 1.28.2022 18:37:6.149
831, 1.74714, 0.232255, 196.506, -0.000976562, 0.00195312, 0.000976562, 0.182617, 0.307617, -9.6709, 1.28.2022 18:37:6.157
832, 1.74814, 0.225334, 196.506, -0.00195312, 0, 0.000976562, 0.130859, 0.289062, -9.78711, 1.28.2022 18:37:6.165
833, 1.75506, 0.226338, 196.506, -0.000976562, 0.00195312, 0.00195312, 0.0722656, 0.319336, -9.60352, 1.28.2022 18:37:6.173
834, 1.75606, 0.219417, 196.506, -0.000976562, -0.00195312, 0.000976562, 0.0205078, 0.291016, -9.69043, 1.28.2022 18:37:6.181
835, 1.75707, 0.212495, 196.507, -0.000976562, -0.000976562, 0, 0.0654297, 0.299805, -9.66699, 1.28.2022 18:37:6.189
836, 1.75807, 0.205574, 196.507, -0.000976562, -0.00292969, 0, 0.0302734, 0.269531, -9.77637, 1.28.2022 18:37:6.197
837, 1.76008, 0.191732, 196.507, 0, 0, 0, 0.276367, 0.364258, -9.76367, 1.28.2022 18:37:6.205
838, 1.76208, 0.17789, 196.507, 0, -0.000976562, -0.00195312, 0.242188, 0.356445, -9.79395, 1.28.2022 18:37:6.213
839, 1.75718, 0.163043, 196.507, 0, 0.000976562, 0.000976562, 0.162109, 0.34082, -9.76465, 1.28.2022 18:37:6.221
840, 1.75918, 0.149201, 196.508, -0.000976562, 0.000976562, 0.00195312, 0.201172, 0.339844, -9.71094, 1.28.2022 18:37:6.229
841, 1.76219, 0.128438, 196.508, 0, 0.000976562, 0.000976562, 0.0488281, 0.295898, -9.67188, 1.28.2022 18:37:6.237
842, 1.76425, 0.114488, 196.501, -0.000976562, 0, 0, 0.176758, 0.224609, -9.71582, 1.28.2022 18:37:6.245
843, 1.76721, 0.0938319, 196.508, -0.00195312, -0.000976562, -0.00488281, 0.206055, 0.256836, -9.67773, 1.28.2022 18:37:6.251
844, 1.77022, 0.0730685, 196.509, 0, -0.00195312, -0.00585938, 0.0214844, 0.334961, -9.77637, 1.28.2022 18:37:6.261
845, 1.77323, 0.0523052, 196.509, -0.000976562, -0.00195312, -0.00488281, 0.139648, 0.445312, -9.71387, 1.28.2022 18:37:6.267
846, 1.77624, 0.0315418, 196.509, -0.000976562, 0, 0.000976562, 0.272461, 0.427734, -9.71191, 1.28.2022 18:37:6.275
847, 1.77925, 0.0107785, 196.51, -0.00195312, -0.00292969, 0.00683594, 0.140625, 0.390625, -9.74609, 1.28.2022 18:37:6.283
848, 1.78331, 359.983, 196.503, -0.000976562, -0.00195312, 0.0078125, 0.269531, 0.208008, -9.73242, 1.28.2022 18:37:6.291
849, 1.78632, 359.962, 196.503, -0.00195312, -0.000976562, 0.00488281, 0.185547, 0.200195, -9.78516, 1.28.2022 18:37:6.299
850, 1.79033, 359.935, 196.504, -0.000976562, 0.00292969, 0.00195312, 0.430664, 0.277344, -9.65234, 1.28.2022 18:37:6.308
851, 1.79539, 359.9, 196.497, -0.000976562, 0, 0.000976562, 0.386719, 0.293945, -9.72266, 1.28.2022 18:37:6.315
852, 1.7994, 359.872, 196.498, -0.000976562, 0, -0.00195312, 0.242188, 0.339844, -9.65918, 1.28.2022 18:37:6.323
853, 1.79749, 359.837, 196.498, -0.000976562, -0.000976562, 0, 0.285156, 0.399414, -9.6582, 1.28.2022 18:37:6.331
854, 1.80251, 359.802, 196.499, -0.00195312, 0, 0.00292969, 0.59082, 0.408203, -9.78613, 1.28.2022 18:37:6.339
855, 1.80752, 359.767, 196.499, -0.00292969, -0.00292969, 0.00683594, 0.592773, 0.418945, -9.68164, 1.28.2022 18:37:6.347
856, 1.81356, 359.726, 196.493, -0.00292969, -0.00488281, 0.00878906, 0.597656, 0.338867, -9.81152, 1.28.2022 18:37:6.355
857, 1.81961, 359.684, 196.486, -0.00195312, 0, 0.0117188, 0.613281, 0.277344, -9.59375, 1.28.2022 18:37:6.363
858, 1.81973, 359.634, 196.48, -0.000976562, -0.00390625, 0.0126953, 0.56543, 0.355469, -10.0254, 1.28.2022 18:37:6.371
859, 1.82774, 359.579, 196.481, -0.000976562, 0.00585938, 0.0117188, 0.93457, 0.334961, -9.61133, 1.28.2022 18:37:6.379
860, 1.82885, 359.523, 196.475, -0.00195312, -0.00585938, 0.0107422, 0.607422, 0.375977, -9.77539, 1.28.2022 18:37:6.387
861, 1.83788, 359.46, 196.469, -0.00292969, 0, 0.0107422, 0.766602, 0.392578, -9.53223, 1.28.2022 18:37:6.395
862, 1.84689, 359.398, 196.463, -0.00292969, -0.00390625, 0.0126953, 0.626953, 0.382812, -9.76562, 1.28.2022 18:37:6.403
863, 1.84864, 359.334, 196.458, -0.00390625, -0.00390625, 0.0117188, 0.618164, 0.335938, -9.69922, 1.28.2022 18:37:6.411
864, 1.85864, 359.265, 196.452, -0.00292969, -0.00390625, 0.0136719, 0.817383, 0.351562, -9.66602, 1.28.2022 18:37:6.419
865, 1.86172, 359.195, 196.446, -0.00195312, -0.0078125, 0.015625, 0.634766, 0.329102, -9.70605, 1.28.2022 18:37:6.427
866, 1.8717, 359.125, 196.44, -0.00292969, -0.00488281, 0.0195312, 0.728516, 0.469727, -9.7041, 1.28.2022 18:37:6.435
867, 1.87476, 359.055, 196.434, -0.00195312, -0.0107422, 0.0263672, 0.614258, 0.503906, -9.71094, 1.28.2022 18:37:6.443
868, 1.88571, 358.979, 196.421, -0.00390625, -0.00292969, 0.03125, 0.957031, 0.251953, -9.71387, 1.28.2022 18:37:6.451
869, 1.89663, 358.902, 196.401, -0.00488281, -0.00976562, 0.0322266, 0.852539, 0.386719, -9.57129, 1.28.2022 18:37:6.459
870, 1.90754, 358.826, 196.389, -0.00488281, -0.0107422, 0.0292969, 0.864258, 0.286133, -9.66602, 1.28.2022 18:37:6.467
871, 1.91119, 358.749, 196.384, -0.00878906, -0.0126953, 0.0263672, 0.8125, 0.303711, -9.51367, 1.28.2022 18:37:6.475
872, 1.92107, 358.679, 196.371, -0.0107422, -0.0175781, 0.0244141, 0.883789, 0.385742, -9.69238, 1.28.2022 18:37:6.483
873, 1.93194, 358.603, 196.358, -0.0136719, -0.0166016, 0.0263672, 0.936523, 0.299805, -9.625, 1.28.2022 18:37:6.491
874, 1.9497, 358.527, 196.346, -0.015625, -0.0234375, 0.0263672, 0.641602, 0.438477, -10.1924, 1.28.2022 18:37:6.499
875, 1.95954, 358.458, 196.333, -0.00976562, -0.00878906, 0.0283203, 1.09277, 0.316406, -9.7207, 1.28.2022 18:37:6.507
876, 1.96738, 358.402, 196.32, -0.0078125, -0.0117188, 0.0322266, 0.798828, 0.438477, -10.0322, 1.28.2022 18:37:6.515
877, 1.96828, 358.346, 196.307, -0.00390625, -0.000976562, 0.0371094, 0.776367, 0.509766, -10.0889, 1.28.2022 18:37:6.523
878, 1.97468, 358.297, 196.287, 0.00195312, 0.0146484, 0.0410156, 0.780273, 0.50293, -10.0391, 1.28.2022 18:37:6.531
879, 1.97457, 358.247, 196.274, 0.00488281, 0.0214844, 0.0419922, 0.613281, 0.59082, -9.90137, 1.28.2022 18:37:6.539
880, 1.97538, 358.19, 196.253, 0.00585938, 0.0253906, 0.0419922, 0.679688, 0.579102, -9.77051, 1.28.2022 18:37:6.547
881, 1.97419, 358.148, 196.233, 0.00683594, 0.0244141, 0.0410156, 0.674805, 0.483398, -9.36523, 1.28.2022 18:37:6.555
882, 1.97268, 358.105, 196.22, 0.00390625, 0.0253906, 0.0371094, 0.739258, 0.43457, -9.3252, 1.28.2022 18:37:6.563
883, 1.97146, 358.062, 196.2, 0.00195312, 0.015625, 0.03125, 0.648438, 0.253906, -9.50586, 1.28.2022 18:37:6.571
884, 1.97526, 358.034, 196.186, -0.00195312, 0.0146484, 0.0244141, 0.722656, 0.0966797, -9.56055, 1.28.2022 18:37:6.579
885, 1.9722, 358.005, 196.179, -0.00292969, 0.0078125, 0.0185547, 0.994141, 0.121094, -9.75293, 1.28.2022 18:37:6.587
886, 1.97605, 357.977, 196.173, -0.00195312, 0.000976562, 0.0166016, 0.942383, 0.0361328, -9.85156, 1.28.2022 18:37:6.595
887, 1.97885, 357.956, 196.159, -0.00195312, 0.00390625, 0.0185547, 0.901367, 0.1875, -9.875, 1.28.2022 18:37:6.603
888, 1.98134, 357.935, 196.153, -0.000976562, 0.000976562, 0.0214844, 0.769531, 0.313477, -9.77246, 1.28.2022 18:37:6.611
889, 1.98421, 357.914, 196.146, -0.00195312, 0.00585938, 0.0244141, 0.911133, 0.488281, -9.77441, 1.28.2022 18:37:6.619
890, 1.98007, 357.892, 196.132, -0.00292969, 0.00292969, 0.03125, 0.719727, 0.603516, -9.53027, 1.28.2022 18:37:6.627
891, 1.9818, 357.878, 196.111, -0.00390625, -0.00292969, 0.0361328, 0.669922, 0.525391, -9.80957, 1.28.2022 18:37:6.635
892, 1.98322, 357.864, 196.098, -0.00683594, -0.00585938, 0.0400391, 0.654297, 0.491211, -9.30078, 1.28.2022 18:37:6.643
893, 1.99186, 357.851, 196.077, -0.0107422, -0.0136719, 0.0439453, 0.679688, 0.460938, -9.65332, 1.28.2022 18:37:6.651
894, 1.99259, 357.844, 196.056, -0.0126953, -0.00683594, 0.0478516, 1.0752, 0.282227, -9.37207, 1.28.2022 18:37:6.659
895, 2.00084, 357.83, 196.035, -0.0136719, -0.0146484, 0.0507812, 1.04004, 0.262695, -9.60156, 1.28.2022 18:37:6.667
896, 2.00842, 357.824, 196.007, -0.0136719, -0.0166016, 0.0527344, 1.18945, 0.289062, -9.37402, 1.28.2022 18:37:6.675
897, 2.01472, 357.824, 195.986, -0.0136719, -0.0263672, 0.0546875, 0.844727, 0.337891, -9.70703, 1.28.2022 18:37:6.683
898, 2.02229, 357.818, 195.958, -0.0126953, -0.0214844, 0.0556641, 0.364258, 0.621094, -10.502, 1.28.2022 18:37:6.691
899, 2.02255, 357.811, 195.93, -0.0107422, -0.00585938, 0.0576172, 0.750977, 0.454102, -10.3184, 1.28.2022 18:37:6.699
900, 2.03108, 357.797, 195.902, -0.00292969, -0.0078125, 0.0595703, 0.420898, 0.381836, -10.665, 1.28.2022 18:37:6.707
901, 2.02448, 357.789, 195.881, 0.00683594, 0.00878906, 0.0556641, 0.80957, 0.521484, -9.67969, 1.28.2022 18:37:6.715
902, 2.02011, 357.767, 195.853, 0.0146484, 0.015625, 0.0546875, 0.713867, 0.621094, -9.47949, 1.28.2022 18:37:6.723
903, 2.01535, 357.744, 195.826, 0.0185547, 0.0371094, 0.0566406, 0.753906, 0.743164, -9.48926, 1.28.2022 18:37:6.731
904, 2.00507, 357.714, 195.804, 0.0244141, 0.0390625, 0.0546875, 0.521484, 0.831055, -10.0967, 1.28.2022 18:37:6.739
905, 1.98777, 357.683, 195.776, 0.0263672, 0.0400391, 0.0507812, 0.347656, 0.670898, -9.8457, 1.28.2022 18:37:6.747
906, 1.97709, 357.653, 195.756, 0.0244141, 0.0429688, 0.0458984, 0.492188, 0.507812, -9.18848, 1.28.2022 18:37:6.755
907, 1.96677, 357.623, 195.735, 0.0175781, 0.0214844, 0.0439453, 0.606445, 0.228516, -9.31152, 1.28.2022 18:37:6.763
908, 1.96147, 357.608, 195.713, 0.0146484, 0.00585938, 0.046875, 0.516602, 0.211914, -9.64355, 1.28.2022 18:37:6.771
909, 1.95578, 357.593, 195.693, 0.0146484, -0.00878906, 0.0507812, 0.576172, -0.117188, -9.6543, 1.28.2022 18:37:6.779
910, 1.94856, 357.592, 195.671, 0.00488281, -0.0214844, 0.0537109, 0.791016, 0.0761719, -9.19141, 1.28.2022 18:37:6.787
911, 1.9478, 357.591, 195.643, -0.00683594, -0.0322266, 0.0566406, 0.711914, 0.290039, -9.53125, 1.28.2022 18:37:6.795
912, 1.95434, 357.592, 195.615, -0.0146484, -0.0253906, 0.0576172, 1.13086, 0.0830078, -9.42578, 1.28.2022 18:37:6.803
913, 1.96051, 357.592, 195.587, -0.0253906, -0.0351562, 0.0576172, 1.08691, 0.00195312, -9.34961, 1.28.2022 18:37:6.811
914, 1.98006, 357.602, 195.566, -0.0351562, -0.0390625, 0.0566406, 0.727539, 0.28418, -9.88867, 1.28.2022 18:37:6.819
915, 1.99315, 357.603, 195.538, -0.0273438, -0.0185547, 0.0546875, 0.353516, 0.474609, -13.1885, 1.28.2022 18:37:6.827
916, 2.00158, 357.59, 195.51, -0.0185547, 0.0175781, 0.0585938, 1.09277, 0.452148, -9.70312, 1.28.2022 18:37:6.835
917, 2.00363, 357.568, 195.483, -0.00585938, 0.00878906, 0.0595703, 0.762695, 0.618164, -9.14258, 1.28.2022 18:37:6.843
918, 2.00511, 357.554, 195.454, 0.0126953, 0.0205078, 0.0673828, 0.603516, 0.795898, -9.64844, 1.28.2022 18:37:6.851
919, 1.99412, 357.524, 195.42, 0.0185547, 0.0419922, 0.0800781, 0.730469, 1.16895, -8.8252, 1.28.2022 18:37:6.859
920, 1.9831, 357.493, 195.385, 0.0253906, 0.0400391, 0.0849609, 0.783203, 1.40918, -9.94336, 1.28.2022 18:37:6.867
921, 1.97234, 357.463, 195.342, 0.0302734, 0.0390625, 0.0859375, 1.06055, 1.18262, -9.57324, 1.28.2022 18:37:6.875
922, 1.96036, 357.44, 195.308, 0.0214844, 0.0126953, 0.0898438, 0.728516, 0.803711, -9.59277, 1.28.2022 18:37:6.883
923, 1.9464, 357.43, 195.265, 0.0136719, -0.00585938, 0.0898438, 0.658203, 0.503906, -9.07617, 1.28.2022 18:37:6.891
924, 1.94668, 357.423, 195.222, 0.00878906, -0.00878906, 0.09375, 0.857422, -0.0849609, -8.83301, 1.28.2022 18:37:6.899
925, 1.93953, 357.414, 195.173, -0.00390625, -0.03125, 0.0996094, 0.996094, 0.108398, -8.81348, 1.28.2022 18:37:6.907
926, 1.94359, 357.428, 195.131, -0.00683594, -0.0517578, 0.104492, 0.761719, 0.110352, -10.251, 1.28.2022 18:37:6.915
927, 1.94154, 357.434, 195.081, -0.00390625, -0.0458984, 0.107422, 0.480469, 0.0839844, -11.043, 1.28.2022 18:37:6.923
928, 1.93949, 357.44, 195.032, 0.00390625, -0.0214844, 0.102539, 1.17773, -0.5625, -10.5166, 1.28.2022 18:37:6.931
929, 1.93927, 357.433, 194.982, -0.000976562, -0.00488281, 0.0986328, 0.845703, 0.251953, -9.38086, 1.28.2022 18:37:6.939
930, 1.94005, 357.418, 194.941, 0, 0.0146484, 0.100586, 1.16602, 0.210938, -9.48926, 1.28.2022 18:37:6.947
931, 1.94162, 357.396, 194.892, 0.00292969, 0.0361328, 0.105469, 0.55957, 0.62207, -10.4082, 1.28.2022 18:37:6.955
932, 1.9375, 357.367, 194.842, 0.00976562, 0.0429688, 0.112305, 0.290039, 1.02832, -9.31738, 1.28.2022 18:37:6.963
933, 1.92683, 357.329, 194.786, 0.015625, 0.0546875, 0.115234, 0.569336, 0.768555, -9.43066, 1.28.2022 18:37:6.971
934, 1.92139, 357.307, 194.737, 0.0146484, 0.0185547, 0.116211, 0.253906, 0.717773, -9.17188, 1.28.2022 18:37:6.979
935, 1.91492, 357.291, 194.681, 0.00585938, -0.0107422, 0.119141, 0, 0.686523, -8.98926, 1.28.2022 18:37:6.987
936, 1.90754, 357.282, 194.625, -0.00292969, -0.0205078, 0.12207, 1.00879, 0.296875, -7.66797, 1.28.2022 18:37:6.995
937, 1.91138, 357.296, 194.568, -0.0185547, -0.0820312, 0.121094, 0.55957, 0.24707, -9.13086, 1.28.2022 18:37:7.003
938, 1.92735, 357.326, 194.511, -0.0302734, -0.09375, 0.12207, -0.129883, 0.407227, -11.1846, 1.28.2022 18:37:7.011
939, 1.93035, 357.346, 194.454, -0.015625, -0.0371094, 0.121094, 1.10645, -0.492188, -11.1865, 1.28.2022 18:37:7.019
940, 1.93598, 357.346, 194.398, -0.0175781, -0.0322266, 0.120117, 1.29492, -0.209961, -11.6211, 1.28.2022 18:37:7.027
941, 1.94856, 357.347, 194.342, -0.0146484, -0.0136719, 0.121094, 0.963867, 0.484375, -8.92285, 1.28.2022 18:37:7.035
942, 1.94899, 357.332, 194.286, -0.00292969, 0.0371094, 0.134766, 0.914062, 0.268555, -9.69824, 1.28.2022 18:37:7.043
943, 1.94493, 357.296, 194.223, -0.00292969, 0.0634766, 0.144531, 0.514648, 1.14453, -10.1211, 1.28.2022 18:37:7.051
944, 1.94071, 357.259, 194.153, 0.0117188, 0.0654297, 0.150391, 0.110352, 1.28223, -10.9209, 1.28.2022 18:37:7.059
945, 1.93047, 357.215, 194.09, 0.0175781, 0.0556641, 0.150391, 0.504883, 0.732422, -8.44336, 1.28.2022 18:37:7.067
946, 1.93188, 357.185, 194.021, -0.00878906, 0.0244141, 0.148438, 0.483398, 0.999023, -7.35156, 1.28.2022 18:37:7.075
947, 1.93107, 357.177, 193.951, -0.0126953, -0.0244141, 0.151367, 0.586914, 0.685547, -8.41992, 1.28.2022 18:37:7.083
948, 1.93468, 357.191, 193.88, -0.0136719, -0.0761719, 0.163086, -0.0654297, 0.592773, -10.1016, 1.28.2022 18:37:7.091
949, 1.93733, 357.211, 193.802, -0.00976562, -0.0683594, 0.164062, 0.716797, -0.583008, -11.8066, 1.28.2022 18:37:7.099
950, 1.94047, 357.225, 193.724, -0.00195312, -0.0576172, 0.166016, 1.24414, 0.0566406, -8.40039, 1.28.2022 18:37:7.107
951, 1.93622, 357.244, 193.646, 0.00976562, -0.0625, 0.165039, 1.00781, -0.0439453, -10.4717, 1.28.2022 18:37:7.115
952, 1.9267, 357.249, 193.568, 0.00292969, -0.00683594, 0.174805, 0.703125, 0.954102, -11.3623, 1.28.2022 18:37:7.123
953, 1.9261, 357.234, 193.484, 0.0078125, 0.0371094, 0.192383, 0.654297, 0.956055, -10.707, 1.28.2022 18:37:7.131
954, 1.91425, 357.196, 193.393, 0.00292969, 0.0673828, 0.202148, 0.727539, 1.02148, -10.085, 1.28.2022 18:37:7.139
955, 1.91586, 357.159, 193.302, -0.00878906, 0.0498047, 0.208008, 0.325195, 1.1543, -8.5498, 1.28.2022 18:37:7.147
956, 1.91765, 357.123, 193.204, -0.0244141, 0.0478516, 0.21875, 0.0527344, 0.801758, -8.27344, 1.28.2022 18:37:7.155
957, 1.93198, 357.095, 193.1, -0.0400391, 0.0136719, 0.233398, 0.369141, 0.696289, -7.61523, 1.28.2022 18:37:7.163
958, 1.94267, 357.102, 192.994, -0.0283203, -0.0693359, 0.237305, -1.38965, 0.803711, -12.5166, 1.28.2022 18:37:7.171
959, 1.95209, 357.116, 192.881, -0.0185547, -0.0683594, 0.240234, 0.282227, 0.318359, -10.5557, 1.28.2022 18:37:7.179
960, 1.95303, 357.142, 192.768, -0.00488281, -0.0712891, 0.249023, 1.07324, 0.250977, -6.69238, 1.28.2022 18:37:7.187
961, 1.94783, 357.161, 192.655, 0.015625, -0.0830078, 0.256836, 0.763672, 1.04297, -10.0879, 1.28.2022 18:37:7.195
962, 1.92849, 357.178, 192.527, 0.03125, -0.0234375, 0.269531, 1.15918, 0.775391, -12.5654, 1.28.2022 18:37:7.203
963, 1.9122, 357.168, 192.401, 0.0205078, 0.00976562, 0.28418, 0.657227, 1.42676, -11.7266, 1.28.2022 18:37:7.211
964, 1.90419, 357.144, 192.267, 0.00878906, 0.0527344, 0.293945, 0.975586, 1.4502, -7.92578, 1.28.2022 18:37:7.217
965, 1.89759, 357.106, 192.134, 0.00390625, 0.0429688, 0.303711, -0.182617, 1.31152, -9.64453, 1.28.2022 18:37:7.225
966, 1.89002, 357.075, 191.994, 0.00390625, 0.0566406, 0.306641, -0.597656, 0.0507812, -11.3145, 1.28.2022 18:37:7.233
967, 1.88238, 357.044, 191.853, -0.0107422, 0.0351562, 0.307617, -0.702148, 0.532227, -11.4717, 1.28.2022 18:37:7.241
968, 1.88644, 357.036, 191.713, -0.0146484, -0.0507812, 0.3125, -0.209961, 0.110352, -6.69922, 1.28.2022 18:37:7.249
969, 1.88126, 357.047, 191.565, 0.00585938, -0.0488281, 0.324219, 0.462891, 0.258789, -5.20801, 1.28.2022 18:37:7.257
970, 1.87457, 357.073, 191.409, 0.0224609, -0.118164, 0.338867, 0.180664, 0.306641, -8.11914, 1.28.2022 18:37:7.265
971, 1.85994, 357.104, 191.254, 0.0175781, -0.0693359, 0.352539, 0.669922, 0.808594, -12.8564, 1.28.2022 18:37:7.273
972, 1.84681, 357.122, 191.084, -0.00292969, -0.0478516, 0.362305, 1.75293, 1.02539, -12.4004, 1.28.2022 18:37:7.281
973, 1.8473, 357.14, 190.916, -0.0234375, -0.0986328, 0.368164, -0.0927734, 0.875977, -11.4297, 1.28.2022 18:37:7.289
974, 1.85516, 357.16, 190.747, -0.0205078, -0.0166016, 0.369141, -0.514648, 0.960938, -11.3359, 1.28.2022 18:37:7.297
975, 1.85298, 357.136, 190.578, -0.0117188, 0.0488281, 0.379883, 0.552734, -0.337891, -7.7627, 1.28.2022 18:37:7.305
976, 1.85881, 357.099, 190.403, -0.0253906, 0.0664062, 0.389648, 0.305664, 0.541992, -8.79785, 1.28.2022 18:37:7.313
977, 1.85741, 357.062, 190.221, 0.00292969, 0.0458984, 0.396484, -0.399414, 0.793945, -9.57812, 1.28.2022 18:37:7.321
978, 1.84097, 357.029, 190.039, 0.0351562, 0.0634766, 0.415039, 0.274414, 0.62793, -9.35254, 1.28.2022 18:37:7.329
979, 1.81008, 357.003, 189.849, 0.0537109, -0.00683594, 0.416992, -0.178711, 1.59961, -7.80371, 1.28.2022 18:37:7.337
980, 1.78356, 357.005, 189.651, 0.0439453, -0.0371094, 0.421875, -0.375977, 2.04688, -8.76367, 1.28.2022 18:37:7.345
981, 1.76252, 357.022, 189.454, 0.0322266, -0.0839844, 0.432617, -0.467773, 1.45703, -8.53516, 1.28.2022 18:37:7.353
982, 1.74131, 357.046, 189.256, 0.00195312, -0.0644531, 0.439453, -0.450195, 1.7959, -14.8564, 1.28.2022 18:37:7.361
983, 1.74115, 357.064, 189.053, -0.0244141, -0.0644531, 0.443359, 1.23145, 0.12207, -9.80176, 1.28.2022 18:37:7.369
984, 1.7489, 357.076, 188.849, -0.0292969, -0.0488281, 0.441406, 0.918945, -0.292969, -9.07812, 1.28.2022 18:37:7.377
985, 1.75667, 357.088, 188.645, -0.0371094, -0.0429688, 0.4375, 0.145508, -0.120117, -11.0693, 1.28.2022 18:37:7.385
986, 1.76551, 357.086, 188.442, -0.0361328, 0.0292969, 0.450195, -0.508789, 0.665039, -9.99023, 1.28.2022 18:37:7.394
987, 1.77018, 357.041, 188.233, -0.00683594, 0.101562, 0.457031, 1.16992, -0.0820312, -7.25586, 1.28.2022 18:37:7.401
988, 1.76738, 357.003, 188.03, -0.000976562, 0.0341797, 0.453125, -0.124023, 1.25586, -10.0088, 1.28.2022 18:37:7.409
989, 1.75586, 356.986, 187.819, 0.0253906, -0.00488281, 0.451172, -1.91016, 1.34668, -12.7432, 1.28.2022 18:37:7.417
990, 1.73046, 356.967, 187.616, 0.0351562, 0.0478516, 0.454102, 0.617188, 0.704102, -7.58203, 1.28.2022 18:37:7.425
991, 1.71834, 356.956, 187.405, 0.0107422, -0.0507812, 0.456055, -0.664062, 0.592773, -9.96875, 1.28.2022 18:37:7.433
992, 1.70443, 356.974, 187.194, 0.0224609, -0.0429688, 0.458984, 0.352539, 1.23535, -5.85742, 1.28.2022 18:37:7.441
993, 1.68443, 356.977, 186.983, 0.0107422, -0.0283203, 0.466797, 0.549805, 0.390625, -11.4814, 1.28.2022 18:37:7.449
994, 1.67782, 356.988, 186.766, -0.0146484, -0.0429688, 0.459961, 0.624023, 0.670898, -11.3213, 1.28.2022 18:37:7.457
995, 1.68578, 356.992, 186.556, -0.0380859, -0.03125, 0.458984, 0.427734, 1.18164, -9.50195, 1.28.2022 18:37:7.465
996, 1.70105, 356.997, 186.345, -0.0400391, -0.0253906, 0.463867, -0.825195, -0.0732422, -11.2197, 1.28.2022 18:37:7.473
997, 1.70996, 356.981, 186.129, -0.0292969, 0.0644531, 0.463867, 0.768555, -0.797852, -6.56055, 1.28.2022 18:37:7.481
998, 1.71267, 356.957, 185.919, -0.0322266, 0.00488281, 0.461914, -0.152344, 0.118164, -9.30957, 1.28.2022 18:37:7.489
999, 1.7209, 356.955, 185.709, -0.00878906, -0.0273438, 0.456055, -0.96875, 0.242188, -11.1826, 1.28.2022 18:37:7.497
1000, 1.71546, 356.952, 185.499, 0.000976562, 0.0253906, 0.460938, -0.0566406, 1.28418, -9.37598, 1.28.2022 18:37:7.505
1001, 1.70268, 356.948, 185.288, 0.0234375, -0.0419922, 0.458008, -0.427734, 0.735352, -9.85547, 1.28.2022 18:37:7.513
1002, 1.68259, 356.958, 185.077, 0.0214844, -0.0351562, 0.456055, 0.603516, 1.25879, -7.07227, 1.28.2022 18:37:7.521
1003, 1.66891, 356.976, 184.867, 0.0107422, -0.0800781, 0.455078, -0.740234, 1.16992, -9.64941, 1.28.2022 18:37:7.529
1004, 1.66259, 356.994, 184.656, 0, -0.0117188, 0.451172, -0.379883, 0.774414, -12.8926, 1.28.2022 18:37:7.537
1005, 1.65757, 356.984, 184.453, -0.0078125, 0.0078125, 0.446289, 1.22168, -0.0625, -10.7588, 1.28.2022 18:37:7.545
1006, 1.65899, 356.988, 184.25, -0.0185547, -0.046875, 0.4375, -0.0214844, 0.206055, -9.46973, 1.28.2022 18:37:7.553
1007, 1.66016, 357, 184.047, -0.00292969, -0.0263672, 0.430664, -1.02148, 0.339844, -8.43262, 1.28.2022 18:37:7.561
1008, 1.64825, 356.99, 183.851, 0.00878906, 0.0429688, 0.44043, -0.222656, -0.0673828, -8.36621, 1.28.2022 18:37:7.569
1009, 1.64355, 356.966, 183.648, 0.00488281, 0.0390625, 0.438477, 0.628906, 0.417969, -8.1709, 1.28.2022 18:37:7.577
1010, 1.63832, 356.963, 183.452, -0.0126953, -0.0341797, 0.431641, -1.25391, 1.70996, -11.8086, 1.28.2022 18:37:7.585
1011, 1.63286, 356.967, 183.256, 0.0136719, -0.0224609, 0.424805, -0.558594, 0.786133, -10.6758, 1.28.2022 18:37:7.593
1012, 1.62072, 356.971, 183.059, 0.00585938, 0, 0.415039, 1.04297, -0.375, -7.83789, 1.28.2022 18:37:7.601
1013, 1.62228, 356.983, 182.87, -0.0234375, -0.0800781, 0.40625, -0.56543, 0.966797, -8.46484, 1.28.2022 18:37:7.609
1014, 1.62354, 357.008, 182.681, -0.0117188, -0.0361328, 0.40918, -0.154297, 0.237305, -9.29199, 1.28.2022 18:37:7.617
1015, 1.62578, 357.006, 182.492, -0.0078125, 0.0166016, 0.416016, 0.591797, 0.0869141, -11.2266, 1.28.2022 18:37:7.625
1016, 1.6207, 357.003, 182.303, 0.00488281, -0.0185547, 0.40625, 0.495117, 0.276367, -10.3594, 1.28.2022 18:37:7.633
1017, 1.61553, 357.014, 182.12, 0.00585938, -0.0449219, 0.394531, -0.443359, 0.904297, -8.68359, 1.28.2022 18:37:7.641
1018, 1.61075, 357.033, 181.945, 0, -0.0351562, 0.389648, -1.16895, 0.431641, -9.08887, 1.28.2022 18:37:7.649
1019, 1.60586, 357.03, 181.763, 0.000976562, 0.00488281, 0.381836, -0.5625, 0.262695, -10.8535, 1.28.2022 18:37:7.657
1020, 1.60151, 357.035, 181.595, -0.00195312, -0.0146484, 0.367188, 0.589844, 0.277344, -9.58887, 1.28.2022 18:37:7.665
1021, 1.597, 357.053, 181.427, -0.00195312, -0.0732422, 0.351562, -0.52832, 0.378906, -10.2646, 1.28.2022 18:37:7.673
1022, 1.59242, 357.072, 181.265, -0.000976562, -0.0341797, 0.34668, 0.0615234, 0.371094, -7.70215, 1.28.2022 18:37:7.681
1023, 1.59524, 357.084, 181.104, -0.00390625, -0.00976562, 0.351562, -0.270508, 0.460938, -9.58203, 1.28.2022 18:37:7.689
1024, 1.59125, 357.075, 180.943, 0.00390625, 0.03125, 0.350586, 0.526367, 0.386719, -10.208, 1.28.2022 18:37:7.697
1025, 1.58741, 357.066, 180.789, -0.00390625, -0.00195312, 0.341797, 0.180664, 0.635742, -9.84668, 1.28.2022 18:37:7.705
1026, 1.58347, 357.071, 180.635, 0, -0.0244141, 0.325195, -1.43652, 0.361328, -11.6211, 1.28.2022 18:37:7.713
1027, 1.58671, 357.076, 180.488, -0.000976562, 0.0263672, 0.316406, -0.0566406, 0.144531, -8.74414, 1.28.2022 18:37:7.721
1028, 1.58268, 357.073, 180.341, -0.0136719, -0.0322266, 0.3125, -0.78418, 0.0292969, -9.58984, 1.28.2022 18:37:7.729
1029, 1.5861, 357.085, 180.201, -0.0146484, -0.0136719, 0.305664, 0.286133, 0.0576172, -6.9541, 1.28.2022 18:37:7.737
1030, 1.58953, 357.098, 180.061, -0.00683594, -0.0341797, 0.298828, -0.25, 0.248047, -10.1406, 1.28.2022 18:37:7.745
1031, 1.60063, 357.103, 179.936, 0.00390625, -0.0244141, 0.293945, 0.0517578, 0.387695, -10.9189, 1.28.2022 18:37:7.753
1032, 1.59729, 357.115, 179.802, 0.00292969, -0.0136719, 0.285156, 0.256836, 0.594727, -10.5127, 1.28.2022 18:37:7.761
1033, 1.59397, 357.127, 179.669, -0.0126953, -0.0390625, 0.277344, -0.385742, 0.741211, -9.10449, 1.28.2022 18:37:7.769
1034, 1.59782, 357.132, 179.543, -0.0078125, -0.00195312, 0.268555, -0.654297, 0.555664, -9.43359, 1.28.2022 18:37:7.777
1035, 1.59482, 357.131, 179.424, 0.0117188, 0.0292969, 0.257812, -0.137695, 0.0712891, -9.28516, 1.28.2022 18:37:7.785
1036, 1.59205, 357.122, 179.305, -0.00195312, 0.0136719, 0.25293, 0.282227, 0.0439453, -10.6514, 1.28.2022 18:37:7.793
1037, 1.58926, 357.128, 179.193, 0.00292969, -0.0244141, 0.245117, -1.20996, 0.856445, -11.2617, 1.28.2022 18:37:7.801
1038, 1.58641, 357.126, 179.081, 0.00976562, 0.0341797, 0.249023, 0.226562, 0.426758, -8.38379, 1.28.2022 18:37:7.809
1039, 1.58356, 357.125, 178.969, 0.0175781, -0.00292969, 0.245117, -0.0449219, 0.248047, -8.87305, 1.28.2022 18:37:7.817
1040, 1.57378, 357.13, 178.857, 0.0166016, -0.0234375, 0.236328, -0.532227, 0.894531, -9.02734, 1.28.2022 18:37:7.825
1041, 1.57108, 357.143, 178.745, -0.00195312, 0.00292969, 0.235352, -0.0429688, 0.651367, -9.64648, 1.28.2022 18:37:7.833
1042, 1.57549, 357.148, 178.64, -0.015625, -0.0136719, 0.231445, -0.40918, 0.438477, -9.71289, 1.28.2022 18:37:7.841
1043, 1.5802, 357.154, 178.535, -0.0117188, -0.00292969, 0.227539, -0.395508, 0.459961, -11.8027, 1.28.2022 18:37:7.849
1044, 1.58473, 357.166, 178.43, -0.00878906, -0.0410156, 0.219727, 0.0947266, -0.172852, -9.35742, 1.28.2022 18:37:7.857
1045, 1.58945, 357.178, 178.332, -0.0126953, -0.00878906, 0.210938, -0.726562, 0.179688, -10.2344, 1.28.2022 18:37:7.865
1046, 1.59419, 357.191, 178.234, -0.0117188, -0.00585938, 0.207031, -0.151367, 0.317383, -10.2471, 1.28.2022 18:37:7.874
1047, 1.59889, 357.19, 178.143, -0.00878906, 0.00585938, 0.210938, -0.0703125, 0.546875, -10.9648, 1.28.2022 18:37:7.881
1048, 1.59654, 357.195, 178.045, 0.00292969, -0.00195312, 0.206055, 0.585938, 0.53125, -8.28711, 1.28.2022 18:37:7.889
1049, 1.59492, 357.215, 177.954, -0.00195312, -0.0488281, 0.203125, -0.616211, 0.863281, -9.17773, 1.28.2022 18:37:7.897
1050, 1.59972, 357.227, 177.856, -0.00976562, -0.00878906, 0.205078, -0.395508, 0.740234, -8.80469, 1.28.2022 18:37:7.905
1051, 1.60458, 357.233, 177.765, -0.00488281, 0.00195312, 0.205078, -0.84375, 1.1582, -13.3848, 1.28.2022 18:37:7.913
1052, 1.60228, 357.239, 177.667, 0.00390625, 0.0078125, 0.207031, 0.383789, 0.178711, -9.46582, 1.28.2022 18:37:7.921
1053, 1.60044, 357.244, 177.576, 0.0107422, 0.000976562, 0.198242, 0.170898, 0.742188, -7.37695, 1.28.2022 18:37:7.929
1054, 1.59133, 357.25, 177.484, 0.0214844, -0.0195312, 0.193359, -0.450195, 0.545898, -10.5762, 1.28.2022 18:37:7.937
1055, 1.58223, 357.256, 177.393, 0.0195312, 0.0224609, 0.198242, 0.237305, 0.789062, -8.8916, 1.28.2022 18:37:7.945
1056, 1.57996, 357.255, 177.302, 0.015625, -0.000976562, 0.199219, -0.710938, 0.592773, -11.6025, 1.28.2022 18:37:7.953
1057, 1.57815, 357.261, 177.211, -0.00390625, 0.000976562, 0.198242, -0.192383, 0.74707, -9.8916, 1.28.2022 18:37:7.961
1058, 1.58323, 357.273, 177.12, -0.0166016, -0.0166016, 0.195312, 0.0078125, 0.244141, -7.50879, 1.28.2022 18:37:7.969
1059, 1.59532, 357.285, 177.029, -0.0322266, -0.0371094, 0.192383, -0.633789, 0.0566406, -8.90234, 1.28.2022 18:37:7.977
1060, 1.60808, 357.305, 176.945, -0.0273438, -0.00976562, 0.189453, 0.0947266, -0.833008, -11.0615, 1.28.2022 18:37:7.985
1061, 1.62039, 357.317, 176.861, -0.0263672, -0.00878906, 0.186523, 0.226562, -0.0507812, -9.05371, 1.28.2022 18:37:7.993
1062, 1.62571, 357.33, 176.777, -0.00683594, -0.0166016, 0.174805, 0.513672, -0.12793, -9.36523, 1.28.2022 18:37:8.001
1063, 1.62436, 357.343, 176.693, 0.0195312, -0.0195312, 0.167969, -0.860352, 0.327148, -10.8379, 1.28.2022 18:37:8.009
1064, 1.61548, 357.342, 176.616, 0.0332031, 0.0380859, 0.170898, 0.146484, 1.11816, -7.95898, 1.28.2022 18:37:8.017
1065, 1.60639, 357.334, 176.539, 0.0273438, 0.0302734, 0.169922, 0.219727, 1.14551, -10.5273, 1.28.2022 18:37:8.025
1066, 1.59772, 357.34, 176.461, 0.00585938, -0.0273438, 0.163086, -1.41699, 1.33789, -11.001, 1.28.2022 18:37:8.033
1067, 1.59674, 357.353, 176.391, 0.00292969, 0.0371094, 0.164062, 0.25, 0.740234, -9.25684, 1.28.2022 18:37:8.041
