Seq, Rot x, Rot y, Rot z, Vel x, Vel y, Vel z, Acc x, Acc y, Acc z, Time(m.d.y h:m:s.ms)
0, 2.223, 0.244006, 184.635, -0.000976562, 0, 0.000976562, 0.00390625, 0.389648, -9.69727, 1.28.2022 18:43:12.553
1, 2.223, 0.244006, 184.635, 0, 0, 0.000976562, -0.0800781, 0.392578, -9.69824, 1.28.2022 18:43:12.559
2, 2.223, 0.244006, 184.635, 0, 0, 0.000976562, -0.0253906, 0.387695, -9.69922, 1.28.2022 18:43:12.567
3, 2.223, 0.244006, 184.635, 0, 0, -0.000976562, -0.00585938, 0.348633, -9.69043, 1.28.2022 18:43:12.575
4, 2.223, 0.244006, 184.635, -0.000976562, -0.000976562, -0.000976562, -0.0888672, 0.453125, -9.6582, 1.28.2022 18:43:12.583
5, 2.223, 0.244006, 184.635, 0, -0.000976562, -0.000976562, -0.000976562, 0.363281, -9.67871, 1.28.2022 18:43:12.591
6, 2.223, 0.244006, 184.635, -0.000976562, 0, -0.000976562, -0.0351562, 0.355469, -9.7373, 1.28.2022 18:43:12.599
7, 2.223, 0.244006, 184.635, 0, 0, -0.000976562, -0.0859375, 0.37207, -9.75684, 1.28.2022 18:43:12.607
8, 2.223, 0.244006, 184.635, 0, 0, -0.00195312, 0.0146484, 0.351562, -9.71191, 1.28.2022 18:43:12.615
9, 2.223, 0.244006, 184.635, 0, -0.000976562, -0.00195312, -0.0869141, 0.387695, -9.68848, 1.28.2022 18:43:12.623
10, 2.223, 0.244006, 184.635, 0, -0.000976562, -0.000976562, -0.0546875, 0.383789, -9.73828, 1.28.2022 18:43:12.631
11, 2.223, 0.244006, 184.635, 0, -0.000976562, -0.00195312, -0.00878906, 0.358398, -9.70215, 1.28.2022 18:43:12.639
12, 2.223, 0.244006, 184.635, -0.000976562, 0, -0.000976562, -0.0869141, 0.382812, -9.68848, 1.28.2022 18:43:12.647
13, 2.223, 0.244006, 184.635, 0, 0, -0.00195312, -0.0253906, 0.389648, -9.69629, 1.28.2022 18:43:12.655
14, 2.223, 0.244006, 184.635, 0, 0, -0.00195312, -0.0371094, 0.390625, -9.73145, 1.28.2022 18:43:12.663
15, 2.223, 0.244006, 184.635, 0, 0.000976562, 0.000976562, -0.0566406, 0.386719, -9.75488, 1.28.2022 18:43:12.671
16, 2.22328, 0.237019, 184.635, 0, 0, -0.000976562, 0.0126953, 0.364258, -9.71387, 1.28.2022 18:43:12.679
17, 2.22328, 0.237019, 184.635, 0, 0, -0.000976562, -0.0820312, 0.373047, -9.69336, 1.28.2022 18:43:12.687
18, 2.22328, 0.237019, 184.635, 0, 0.000976562, -0.000976562, -0.0634766, 0.395508, -9.71973, 1.28.2022 18:43:12.695
19, 2.22328, 0.237019, 184.635, -0.000976562, 0.000976562, -0.000976562, -0.0185547, 0.347656, -9.71387, 1.28.2022 18:43:12.703
20, 2.22328, 0.237019, 184.635, 0, 0, -0.000976562, -0.0800781, 0.402344, -9.71191, 1.28.2022 18:43:12.711
21, 2.22328, 0.237019, 184.635, 0, 0, 0.000976562, 0.00976562, 0.364258, -9.74219, 1.28.2022 18:43:12.719
22, 2.22328, 0.237019, 184.635, 0, 0, 0.000976562, -0.0166016, 0.370117, -9.76367, 1.28.2022 18:43:12.727
23, 2.22328, 0.237019, 184.635, 0, -0.000976562, -0.000976562, -0.0927734, 0.398438, -9.74902, 1.28.2022 18:43:12.735
24, 2.22328, 0.237019, 184.635, 0, 0, -0.00195312, 0.0185547, 0.362305, -9.67383, 1.28.2022 18:43:12.743
25, 2.22328, 0.237019, 184.635, -0.000976562, 0, -0.000976562, -0.0673828, 0.396484, -9.68848, 1.28.2022 18:43:12.751
26, 2.22328, 0.237019, 184.635, 0, 0, -0.00195312, -0.0546875, 0.375977, -9.72656, 1.28.2022 18:43:12.759
27, 2.22328, 0.237019, 184.635, 0.000976562, 0.000976562, 0, -0.00683594, 0.367188, -9.74707, 1.28.2022 18:43:12.767
28, 2.22328, 0.237019, 184.635, 0, 0.000976562, 0, -0.107422, 0.384766, -9.75195, 1.28.2022 18:43:12.775
29, 2.22328, 0.237019, 184.635, -0.000976562, 0, 0, -0.0117188, 0.345703, -9.73047, 1.28.2022 18:43:12.783
30, 2.22328, 0.237019, 184.635, 0, -0.000976562, -0.000976562, -0.0400391, 0.369141, -9.7373, 1.28.2022 18:43:12.791
31, 2.22328, 0.237019, 184.635, 0, 0, 0, -0.0664062, 0.386719, -9.73828, 1.28.2022 18:43:12.799
32, 2.22328, 0.237019, 184.635, -0.000976562, 0, 0, 0.000976562, 0.364258, -9.71387, 1.28.2022 18:43:12.807
33, 2.22328, 0.237019, 184.635, 0, 0, 0, -0.0507812, 0.384766, -9.67969, 1.28.2022 18:43:12.815
34, 2.22328, 0.237019, 184.635, 0, 0, 0, -0.0615234, 0.375977, -9.72461, 1.28.2022 18:43:12.823
35, 2.22328, 0.237019, 184.635, 0, 0, 0, -0.00683594, 0.385742, -9.7207, 1.28.2022 18:43:12.831
36, 2.22328, 0.237019, 184.635, -0.000976562, 0, 0.000976562, -0.118164, 0.407227, -9.71094, 1.28.2022 18:43:12.839
37, 2.22328, 0.237019, 184.635, 0, 0, 0, -0.015625, 0.407227, -9.71777, 1.28.2022 18:43:12.847
38, 2.22328, 0.237019, 184.635, -0.000976562, 0.000976562, 0.000976562, -0.0332031, 0.362305, -9.72754, 1.28.2022 18:43:12.855
39, 2.22328, 0.237019, 184.635, 0, -0.000976562, 0.000976562, -0.0820312, 0.386719, -9.67871, 1.28.2022 18:43:12.863
40, 2.22328, 0.237019, 184.635, -0.000976562, 0, 0.000976562, 0.000976562, 0.366211, -9.7002, 1.28.2022 18:43:12.871
41, 2.22328, 0.237019, 184.635, -0.000976562, 0, 0, -0.0869141, 0.375977, -9.71191, 1.28.2022 18:43:12.879
42, 2.22328, 0.237019, 184.635, -0.000976562, 0, 0, -0.0673828, 0.384766, -9.67969, 1.28.2022 18:43:12.887
43, 2.223, 0.244006, 184.635, 0, 0.000976562, 0, -0.00683594, 0.385742, -9.72754, 1.28.2022 18:43:12.895
44, 2.223, 0.244006, 184.635, 0, 0, 0, -0.0966797, 0.413086, -9.68555, 1.28.2022 18:43:12.903
45, 2.22998, 0.244289, 184.635, 0, -0.000976562, -0.000976562, -0.0322266, 0.396484, -9.69336, 1.28.2022 18:43:12.911
46, 2.22998, 0.244289, 184.635, -0.000976562, 0, 0, -0.0253906, 0.37793, -9.70898, 1.28.2022 18:43:12.919
47, 2.22998, 0.244289, 184.635, 0, -0.000976562, -0.000976562, -0.101562, 0.386719, -9.73535, 1.28.2022 18:43:12.927
48, 2.22998, 0.244289, 184.635, -0.000976562, 0, 0, 0.0224609, 0.354492, -9.72363, 1.28.2022 18:43:12.935
49, 2.22998, 0.244289, 184.635, -0.000976562, 0, 0, -0.0664062, 0.374023, -9.72168, 1.28.2022 18:43:12.943
50, 2.22998, 0.244289, 184.635, 0, 0.000976562, -0.00195312, -0.0800781, 0.412109, -9.70703, 1.28.2022 18:43:12.951
51, 2.22998, 0.244289, 184.635, -0.000976562, 0, 0, -0.0078125, 0.373047, -9.69043, 1.28.2022 18:43:12.959
52, 2.22998, 0.244289, 184.635, -0.000976562, 0, -0.00195312, -0.0927734, 0.395508, -9.73535, 1.28.2022 18:43:12.967
53, 2.23668, 0.25156, 184.635, -0.000976562, 0, -0.00195312, -0.0371094, 0.390625, -9.72461, 1.28.2022 18:43:12.975
54, 2.23668, 0.25156, 184.635, -0.000976562, 0, -0.00195312, -0.00488281, 0.362305, -9.75684, 1.28.2022 18:43:12.983
55, 2.23668, 0.25156, 184.635, 0.000976562, 0, 0, -0.0771484, 0.376953, -9.6748, 1.28.2022 18:43:12.991
56, 2.23668, 0.25156, 184.635, 0, -0.000976562, -0.000976562, 0.0146484, 0.345703, -9.73828, 1.28.2022 18:43:12.999
57, 2.23668, 0.25156, 184.635, 0, 0.000976562, 0, -0.0517578, 0.391602, -9.75, 1.28.2022 18:43:13.007
58, 2.23668, 0.25156, 184.635, -0.000976562, -0.000976562, 0, -0.0732422, 0.390625, -9.70703, 1.28.2022 18:43:13.015
59, 2.23668, 0.25156, 184.635, 0, -0.000976562, -0.000976562, 0.00292969, 0.367188, -9.75195, 1.28.2022 18:43:13.023
60, 2.23668, 0.25156, 184.635, -0.000976562, -0.000976562, 0.000976562, -0.0859375, 0.362305, -9.75098, 1.28.2022 18:43:13.031
61, 2.23668, 0.25156, 184.635, -0.000976562, -0.000976562, 0, -0.0244141, 0.365234, -9.67383, 1.28.2022 18:43:13.039
62, 2.23668, 0.25156, 184.635, 0, -0.000976562, -0.000976562, -0.0371094, 0.353516, -9.69531, 1.28.2022 18:43:13.047
63, 2.2364, 0.258547, 184.634, -0.000976562, -0.00195312, -0.000976562, -0.0683594, 0.373047, -9.69824, 1.28.2022 18:43:13.055
64, 2.2364, 0.258547, 184.634, -0.000976562, -0.00292969, -0.000976562, 0.00976562, 0.357422, -9.7334, 1.28.2022 18:43:13.063
65, 2.2364, 0.258547, 184.634, 0, -0.000976562, -0.00195312, -0.0302734, 0.382812, -9.71973, 1.28.2022 18:43:13.071
66, 2.2364, 0.258547, 184.634, -0.000976562, -0.000976562, -0.00195312, -0.0566406, 0.386719, -9.75781, 1.28.2022 18:43:13.079
67, 2.2364, 0.258547, 184.634, -0.000976562, -0.000976562, 0, 0.0175781, 0.359375, -9.72852, 1.28.2022 18:43:13.087
68, 2.2364, 0.258547, 184.634, -0.000976562, 0.000976562, 0, -0.078125, 0.390625, -9.71191, 1.28.2022 18:43:13.095
69, 2.2364, 0.258547, 184.634, 0, -0.000976562, 0.000976562, -0.0136719, 0.362305, -9.74414, 1.28.2022 18:43:13.103
70, 2.2364, 0.258547, 184.634, -0.000976562, -0.000976562, 0, -0.0371094, 0.375977, -9.70801, 1.28.2022 18:43:13.111
71, 2.23668, 0.25156, 184.635, 0, -0.000976562, -0.000976562, -0.0966797, 0.380859, -9.72363, 1.28.2022 18:43:13.119
72, 2.23668, 0.25156, 184.635, 0, 0.000976562, 0.000976562, -0.00195312, 0.371094, -9.71191, 1.28.2022 18:43:13.127
73, 2.23668, 0.25156, 184.635, 0, 0.000976562, 0, -0.0419922, 0.369141, -9.71094, 1.28.2022 18:43:13.135
74, 2.2297, 0.251277, 184.635, 0, -0.000976562, -0.000976562, -0.0478516, 0.383789, -9.75293, 1.28.2022 18:43:13.143
75, 2.2297, 0.251277, 184.635, -0.000976562, -0.000976562, 0, 0.0195312, 0.361328, -9.71191, 1.28.2022 18:43:13.151
76, 2.2297, 0.251277, 184.635, 0, -0.000976562, -0.000976562, -0.0898438, 0.390625, -9.72559, 1.28.2022 18:43:13.159
77, 2.2297, 0.251277, 184.635, 0, 0.000976562, -0.00195312, -0.0498047, 0.395508, -9.72656, 1.28.2022 18:43:13.167
78, 2.2297, 0.251277, 184.635, -0.000976562, -0.000976562, 0, -0.00390625, 0.359375, -9.70703, 1.28.2022 18:43:13.175
79, 2.2297, 0.251277, 184.635, 0, 0.000976562, 0, -0.0683594, 0.402344, -9.70508, 1.28.2022 18:43:13.183
80, 2.22998, 0.244289, 184.635, -0.000976562, -0.000976562, 0, 0.00585938, 0.386719, -9.68555, 1.28.2022 18:43:13.191
81, 2.22998, 0.244289, 184.635, -0.000976562, -0.000976562, -0.00195312, -0.0322266, 0.375977, -9.72266, 1.28.2022 18:43:13.199
82, 2.22998, 0.244289, 184.635, -0.000976562, -0.000976562, 0, -0.0527344, 0.386719, -9.75488, 1.28.2022 18:43:13.207
83, 2.22998, 0.244289, 184.635, -0.000976562, -0.000976562, 0.000976562, 0.00292969, 0.366211, -9.72363, 1.28.2022 18:43:13.215
84, 2.22998, 0.244289, 184.635, -0.000976562, -0.000976562, 0.000976562, -0.0810547, 0.388672, -9.74707, 1.28.2022 18:43:13.223
85, 2.22998, 0.244289, 184.635, -0.000976562, -0.000976562, 0.000976562, -0.0566406, 0.374023, -9.72461, 1.28.2022 18:43:13.231
86, 2.22998, 0.244289, 184.635, -0.000976562, -0.00195312, -0.000976562, -0.015625, 0.366211, -9.69922, 1.28.2022 18:43:13.239
87, 2.22998, 0.244289, 184.635, -0.000976562, -0.000976562, 0, -0.103516, 0.420898, -9.70605, 1.28.2022 18:43:13.247
88, 2.22998, 0.244289, 184.635, -0.000976562, -0.000976562, 0, 0.0078125, 0.363281, -9.70508, 1.28.2022 18:43:13.255
89, 2.22998, 0.244289, 184.635, 0.000976562, -0.000976562, -0.000976562, -0.0439453, 0.371094, -9.71094, 1.28.2022 18:43:13.263
90, 2.22998, 0.244289, 184.635, 0, -0.000976562, 0, -0.0517578, 0.416016, -9.70703, 1.28.2022 18:43:13.271
91, 2.23026, 0.237302, 184.635, -0.00195312, -0.00195312, -0.000976562, 0.00488281, 0.352539, -9.74512, 1.28.2022 18:43:13.279
92, 2.23026, 0.237302, 184.635, -0.000976562, -0.00195312, -0.00195312, -0.0605469, 0.384766, -9.7002, 1.28.2022 18:43:13.287
93, 2.23026, 0.237302, 184.635, 0, -0.00195312, -0.00195312, -0.0107422, 0.394531, -9.70801, 1.28.2022 18:43:13.295
94, 2.23026, 0.237302, 184.635, 0, -0.000976562, -0.00195312, -0.00195312, 0.352539, -9.72363, 1.28.2022 18:43:13.303
95, 2.23026, 0.237302, 184.635, -0.000976562, -0.00195312, -0.000976562, -0.0869141, 0.407227, -9.71387, 1.28.2022 18:43:13.311
96, 2.23026, 0.237302, 184.635, -0.000976562, -0.00195312, 0, -0.015625, 0.373047, -9.71582, 1.28.2022 18:43:13.319
97, 2.23026, 0.237302, 184.635, 0, -0.00195312, 0, -0.0449219, 0.347656, -9.71582, 1.28.2022 18:43:13.327
98, 2.23026, 0.237302, 184.635, 0, -0.000976562, -0.000976562, -0.0751953, 0.416016, -9.68555, 1.28.2022 18:43:13.335
99, 2.23026, 0.237302, 184.635, -0.000976562, -0.000976562, -0.000976562, -0.00878906, 0.342773, -9.72363, 1.28.2022 18:43:13.343
100, 2.23026, 0.237302, 184.635, -0.000976562, -0.000976562, 0, -0.078125, 0.387695, -9.7168, 1.28.2022 18:43:13.351
101, 2.23026, 0.237302, 184.635, -0.000976562, -0.00195312, 0, -0.0419922, 0.385742, -9.71484, 1.28.2022 18:43:13.359
102, 2.23026, 0.237302, 184.635, -0.000976562, -0.00195312, -0.000976562, -0.000976562, 0.334961, -9.70312, 1.28.2022 18:43:13.367
103, 2.23026, 0.237302, 184.635, -0.000976562, 0.000976562, -0.000976562, -0.0566406, 0.397461, -9.71484, 1.28.2022 18:43:13.375
104, 2.23026, 0.237302, 184.635, -0.000976562, -0.000976562, -0.00195312, 0.0117188, 0.376953, -9.65918, 1.28.2022 18:43:13.383
105, 2.23026, 0.237302, 184.635, 0, -0.000976562, -0.000976562, -0.0224609, 0.368164, -9.69434, 1.28.2022 18:43:13.391
106, 2.23026, 0.237302, 184.635, -0.000976562, -0.000976562, -0.000976562, -0.0751953, 0.399414, -9.70703, 1.28.2022 18:43:13.399
107, 2.23026, 0.237302, 184.635, -0.000976562, -0.000976562, 0, 0.000976562, 0.363281, -9.69531, 1.28.2022 18:43:13.407
108, 2.23026, 0.237302, 184.635, 0, -0.00195312, -0.000976562, -0.0761719, 0.388672, -9.73535, 1.28.2022 18:43:13.415
109, 2.23026, 0.237302, 184.635, 0, -0.00195312, -0.000976562, -0.0634766, 0.37207, -9.73438, 1.28.2022 18:43:13.423
110, 2.23026, 0.237302, 184.635, 0, -0.000976562, -0.000976562, 0.00292969, 0.352539, -9.72656, 1.28.2022 18:43:13.431
111, 2.23055, 0.230315, 184.635, -0.000976562, -0.000976562, -0.000976562, -0.0898438, 0.399414, -9.70703, 1.28.2022 18:43:13.439
112, 2.23055, 0.230315, 184.635, -0.000976562, -0.00292969, -0.000976562, -0.0205078, 0.370117, -9.69727, 1.28.2022 18:43:13.447
113, 2.23026, 0.237302, 184.635, -0.000976562, -0.00195312, -0.00195312, -0.0253906, 0.380859, -9.70801, 1.28.2022 18:43:13.455
114, 2.23026, 0.237302, 184.635, 0, -0.000976562, -0.000976562, -0.078125, 0.405273, -9.72363, 1.28.2022 18:43:13.463
115, 2.23026, 0.237302, 184.635, -0.000976562, -0.00195312, -0.00195312, 0.00292969, 0.362305, -9.74512, 1.28.2022 18:43:13.471
116, 2.23026, 0.237302, 184.635, -0.000976562, -0.00195312, -0.000976562, -0.0800781, 0.382812, -9.69141, 1.28.2022 18:43:13.479
117, 2.23026, 0.237302, 184.635, -0.000976562, -0.000976562, -0.000976562, -0.0634766, 0.37793, -9.69629, 1.28.2022 18:43:13.487
118, 2.23026, 0.237302, 184.635, 0, -0.000976562, -0.000976562, -0.00488281, 0.368164, -9.77734, 1.28.2022 18:43:13.495
119, 2.23026, 0.237302, 184.635, 0, 0.000976562, -0.00195312, -0.113281, 0.402344, -9.72559, 1.28.2022 18:43:13.503
120, 2.23023, 0.237439, 184.642, 0, -0.000976562, -0.000976562, -0.0302734, 0.389648, -9.70312, 1.28.2022 18:43:13.511
121, 2.23023, 0.237439, 184.642, -0.000976562, -0.00195312, -0.00195312, -0.0419922, 0.349609, -9.69922, 1.28.2022 18:43:13.519
122, 2.23023, 0.237439, 184.642, 0, 0, -0.000976562, -0.0839844, 0.398438, -9.66895, 1.28.2022 18:43:13.527
123, 2.23023, 0.237439, 184.642, -0.000976562, 0, 0, -0.00683594, 0.364258, -9.73535, 1.28.2022 18:43:13.533
124, 2.23023, 0.237439, 184.642, -0.000976562, 0, 0.000976562, -0.0517578, 0.37207, -9.74121, 1.28.2022 18:43:13.541
125, 2.23023, 0.237439, 184.642, 0, 0, 0, -0.0214844, 0.413086, -9.74805, 1.28.2022 18:43:13.549
126, 2.23023, 0.237439, 184.642, -0.000976562, -0.000976562, -0.000976562, -0.00195312, 0.355469, -9.74023, 1.28.2022 18:43:13.557
127, 2.23023, 0.237439, 184.642, -0.00195312, -0.000976562, 0, -0.0878906, 0.416992, -9.72266, 1.28.2022 18:43:13.565
128, 2.23023, 0.237439, 184.642, -0.000976562, -0.000976562, 0, -0.0576172, 0.357422, -9.66602, 1.28.2022 18:43:13.573
129, 2.23023, 0.237439, 184.642, 0, 0, 0, -0.0488281, 0.349609, -9.71582, 1.28.2022 18:43:13.581
130, 2.23023, 0.237439, 184.642, 0, -0.000976562, 0, -0.0917969, 0.397461, -9.70703, 1.28.2022 18:43:13.589
131, 2.22995, 0.244426, 184.642, -0.000976562, 0.000976562, -0.000976562, 0.00292969, 0.367188, -9.75195, 1.28.2022 18:43:13.597
132, 2.22995, 0.244426, 184.642, 0.000976562, 0.000976562, 0, -0.0478516, 0.37207, -9.75098, 1.28.2022 18:43:13.605
133, 2.22995, 0.244426, 184.642, 0, -0.000976562, 0, -0.0634766, 0.395508, -9.72852, 1.28.2022 18:43:13.613
134, 2.22995, 0.244426, 184.642, -0.000976562, -0.000976562, 0, 0, 0.365234, -9.74902, 1.28.2022 18:43:13.621
135, 2.22995, 0.244426, 184.642, 0, -0.000976562, 0, -0.0800781, 0.421875, -9.73242, 1.28.2022 18:43:13.629
136, 2.22995, 0.244426, 184.642, 0, 0, 0, -0.0175781, 0.379883, -9.69238, 1.28.2022 18:43:13.637
137, 2.22995, 0.244426, 184.642, 0, 0, 0, -0.0263672, 0.360352, -9.74414, 1.28.2022 18:43:13.645
138, 2.22995, 0.244426, 184.642, 0, 0.000976562, 0, -0.0947266, 0.392578, -9.71875, 1.28.2022 18:43:13.653
139, 2.22995, 0.244426, 184.642, -0.000976562, 0, 0, 0.00976562, 0.374023, -9.73047, 1.28.2022 18:43:13.661
140, 2.22995, 0.244426, 184.642, 0, 0.000976562, 0, -0.0800781, 0.361328, -9.69824, 1.28.2022 18:43:13.669
141, 2.22995, 0.244426, 184.642, 0, 0, 0, -0.0595703, 0.388672, -9.7334, 1.28.2022 18:43:13.677
142, 2.22995, 0.244426, 184.642, -0.000976562, -0.000976562, -0.000976562, -0.0166016, 0.360352, -9.74219, 1.28.2022 18:43:13.685
143, 2.22995, 0.244426, 184.642, -0.00195312, 0, 0, -0.0996094, 0.390625, -9.71191, 1.28.2022 18:43:13.693
144, 2.22995, 0.244426, 184.642, -0.00195312, 0.000976562, 0, -0.0800781, 0.382812, -9.70508, 1.28.2022 18:43:13.701
145, 2.22967, 0.251413, 184.642, 0, 0, 0, -0.0205078, 0.383789, -9.72754, 1.28.2022 18:43:13.709
146, 2.22967, 0.251413, 184.642, -0.000976562, 0, -0.000976562, -0.0625, 0.416992, -9.64551, 1.28.2022 18:43:13.717
147, 2.22967, 0.251413, 184.642, 0, 0, 0, 0.0224609, 0.37793, -9.69727, 1.28.2022 18:43:13.725
148, 2.22967, 0.251413, 184.642, 0, 0, -0.000976562, -0.0351562, 0.359375, -9.71582, 1.28.2022 18:43:13.733
149, 2.22967, 0.251413, 184.642, -0.000976562, 0, 0, -0.0683594, 0.383789, -9.72656, 1.28.2022 18:43:13.741
150, 2.22967, 0.251413, 184.642, 0, 0, 0, 0.000976562, 0.364258, -9.71387, 1.28.2022 18:43:13.749
151, 2.22967, 0.251413, 184.642, 0, 0.000976562, 0.000976562, -0.0751953, 0.399414, -9.69043, 1.28.2022 18:43:13.757
152, 2.22967, 0.251413, 184.642, 0.000976562, 0.000976562, 0, -0.00878906, 0.387695, -9.7207, 1.28.2022 18:43:13.765
153, 2.22967, 0.251413, 184.642, 0, 0, 0, -0.0205078, 0.385742, -9.71094, 1.28.2022 18:43:13.773
154, 2.22967, 0.251413, 184.642, 0, 0, 0, -0.0419922, 0.386719, -9.68945, 1.28.2022 18:43:13.781
155, 2.22967, 0.251413, 184.642, 0, 0, 0.000976562, 0.0205078, 0.358398, -9.69824, 1.28.2022 18:43:13.789
156, 2.22967, 0.251413, 184.642, -0.000976562, 0.000976562, 0, -0.00390625, 0.375977, -9.72754, 1.28.2022 18:43:13.797
157, 2.22967, 0.251413, 184.642, 0, -0.00195312, 0, -0.0751953, 0.395508, -9.72852, 1.28.2022 18:43:13.805
158, 2.22967, 0.251413, 184.642, -0.000976562, -0.00195312, 0, 0.0078125, 0.354492, -9.72656, 1.28.2022 18:43:13.813
159, 2.22967, 0.251413, 184.642, 0, 0, 0, -0.0751953, 0.392578, -9.70996, 1.28.2022 18:43:13.821
160, 2.22995, 0.244426, 184.642, 0, 0, 0, -0.0322266, 0.401367, -9.69141, 1.28.2022 18:43:13.829
161, 2.22995, 0.244426, 184.642, 0, 0.000976562, 0, -0.0078125, 0.391602, -9.6875, 1.28.2022 18:43:13.837
162, 2.23693, 0.244709, 184.642, 0, 0, 0, -0.0947266, 0.400391, -9.72363, 1.28.2022 18:43:13.845
163, 2.23696, 0.244572, 184.635, -0.000976562, 0, 0, 0.0175781, 0.37793, -9.71191, 1.28.2022 18:43:13.853
164, 2.23696, 0.244572, 184.635, -0.000976562, -0.00195312, 0.000976562, -0.0351562, 0.359375, -9.72559, 1.28.2022 18:43:13.861
165, 2.23696, 0.244572, 184.635, 0, 0.00195312, 0.000976562, -0.0634766, 0.367188, -9.72461, 1.28.2022 18:43:13.869
166, 2.23725, 0.237585, 184.635, 0, 0.000976562, 0.000976562, 0.0175781, 0.341797, -9.70996, 1.28.2022 18:43:13.877
167, 2.23725, 0.237585, 184.635, -0.00195312, 0, 0.000976562, -0.0830078, 0.374023, -9.72461, 1.28.2022 18:43:13.885
168, 2.23725, 0.237585, 184.635, 0, 0, 0, -0.046875, 0.387695, -9.69824, 1.28.2022 18:43:13.893
169, 2.23725, 0.237585, 184.635, -0.000976562, -0.00195312, 0, -0.00585938, 0.392578, -9.71582, 1.28.2022 18:43:13.901
170, 2.23725, 0.237585, 184.635, -0.000976562, 0, -0.000976562, -0.0947266, 0.402344, -9.73047, 1.28.2022 18:43:13.909
171, 2.23725, 0.237585, 184.635, 0, -0.00195312, 0, -0.0117188, 0.388672, -9.72949, 1.28.2022 18:43:13.917
172, 2.23753, 0.230598, 184.635, -0.000976562, 0, 0, -0.0302734, 0.376953, -9.7373, 1.28.2022 18:43:13.925
173, 2.23753, 0.230598, 184.635, -0.000976562, 0, 0, -0.0800781, 0.383789, -9.72852, 1.28.2022 18:43:13.933
174, 2.23753, 0.230598, 184.635, -0.000976562, 0.000976562, 0, 0.0078125, 0.37207, -9.74023, 1.28.2022 18:43:13.941
175, 2.23753, 0.230598, 184.635, 0, 0, 0.000976562, -0.0615234, 0.375977, -9.70996, 1.28.2022 18:43:13.949
176, 2.23753, 0.230598, 184.635, -0.000976562, 0.000976562, 0, -0.0390625, 0.389648, -9.70117, 1.28.2022 18:43:13.957
177, 2.23753, 0.230598, 184.635, -0.000976562, 0.000976562, 0.000976562, -0.0234375, 0.360352, -9.74902, 1.28.2022 18:43:13.965
178, 2.23753, 0.230598, 184.635, 0, 0, 0, -0.0869141, 0.402344, -9.7041, 1.28.2022 18:43:13.973
179, 2.23753, 0.230598, 184.635, -0.000976562, 0.000976562, 0, -0.0136719, 0.387695, -9.70117, 1.28.2022 18:43:13.981
180, 2.23753, 0.230598, 184.635, -0.000976562, 0, -0.000976562, -0.0517578, 0.373047, -9.71289, 1.28.2022 18:43:13.989
181, 2.23753, 0.230598, 184.635, -0.000976562, 0, 0, -0.0703125, 0.389648, -9.70508, 1.28.2022 18:43:13.997
182, 2.23781, 0.22361, 184.635, 0, 0, 0, 0.0224609, 0.345703, -9.67676, 1.28.2022 18:43:14.005
183, 2.23781, 0.22361, 184.635, 0, 0, -0.00195312, -0.0673828, 0.376953, -9.65625, 1.28.2022 18:43:14.013
184, 2.23781, 0.22361, 184.635, 0, -0.00195312, -0.00195312, -0.0449219, 0.400391, -9.74023, 1.28.2022 18:43:14.021
185, 2.23753, 0.230598, 184.635, 0, -0.00195312, 0.000976562, -0.00390625, 0.37207, -9.73242, 1.28.2022 18:43:14.029
186, 2.23753, 0.230598, 184.635, 0, -0.000976562, -0.000976562, -0.0761719, 0.388672, -9.73535, 1.28.2022 18:43:14.037
187, 2.23753, 0.230598, 184.635, -0.000976562, 0.000976562, -0.000976562, -0.015625, 0.369141, -9.7207, 1.28.2022 18:43:14.045
188, 2.23781, 0.22361, 184.635, -0.000976562, -0.000976562, -0.00195312, -0.0566406, 0.376953, -9.73438, 1.28.2022 18:43:14.053
189, 2.23753, 0.230598, 184.635, -0.000976562, -0.000976562, -0.000976562, -0.0908203, 0.368164, -9.76172, 1.28.2022 18:43:14.061
190, 2.23753, 0.230598, 184.635, 0, -0.000976562, -0.000976562, 0.0341797, 0.34668, -9.71484, 1.28.2022 18:43:14.069
191, 2.23753, 0.230598, 184.635, 0, -0.000976562, -0.000976562, -0.0654297, 0.344727, -9.69727, 1.28.2022 18:43:14.077
192, 2.23753, 0.230598, 184.635, 0, -0.000976562, -0.000976562, -0.0839844, 0.388672, -9.67188, 1.28.2022 18:43:14.085
193, 2.23753, 0.230598, 184.635, -0.000976562, 0.000976562, 0.000976562, -0.0253906, 0.364258, -9.71094, 1.28.2022 18:43:14.093
194, 2.23753, 0.230598, 184.635, -0.000976562, -0.000976562, -0.000976562, -0.104492, 0.40918, -9.71777, 1.28.2022 18:43:14.101
195, 2.23753, 0.230598, 184.635, -0.000976562, -0.000976562, -0.000976562, -0.0185547, 0.389648, -9.70801, 1.28.2022 18:43:14.109
196, 2.23753, 0.230598, 184.635, 0, -0.00195312, -0.000976562, -0.0302734, 0.356445, -9.69922, 1.28.2022 18:43:14.117
197, 2.23753, 0.230598, 184.635, -0.000976562, -0.00195312, -0.000976562, -0.0556641, 0.395508, -9.65039, 1.28.2022 18:43:14.125
198, 2.23753, 0.230598, 184.635, -0.000976562, 0.000976562, -0.00195312, 0.0078125, 0.360352, -9.74707, 1.28.2022 18:43:14.133
199, 2.23753, 0.230598, 184.635, 0, -0.000976562, -0.00195312, -0.0654297, 0.375977, -9.70312, 1.28.2022 18:43:14.141
200, 2.23753, 0.230598, 184.635, -0.000976562, -0.00195312, -0.000976562, -0.0517578, 0.389648, -9.70801, 1.28.2022 18:43:14.149
201, 2.23753, 0.230598, 184.635, 0, -0.000976562, -0.000976562, 0.000976562, 0.374023, -9.73242, 1.28.2022 18:43:14.157
202, 2.23725, 0.237585, 184.635, -0.000976562, -0.000976562, 0, -0.0800781, 0.397461, -9.72363, 1.28.2022 18:43:14.165
203, 2.23725, 0.237585, 184.635, 0, -0.000976562, -0.000976562, -0.0273438, 0.363281, -9.70215, 1.28.2022 18:43:14.173
204, 2.23026, 0.237302, 184.635, 0, -0.000976562, -0.000976562, -0.0126953, 0.355469, -9.67383, 1.28.2022 18:43:14.181
205, 2.23026, 0.237302, 184.635, 0, 0.000976562, 0, -0.101562, 0.388672, -9.72559, 1.28.2022 18:43:14.189
206, 2.23026, 0.237302, 184.635, 0, -0.000976562, -0.000976562, -0.00585938, 0.373047, -9.71094, 1.28.2022 18:43:14.197
207, 2.23026, 0.237302, 184.635, 0, -0.000976562, -0.000976562, -0.0615234, 0.374023, -9.72461, 1.28.2022 18:43:14.205
208, 2.23026, 0.237302, 184.635, 0, -0.000976562, -0.000976562, -0.0498047, 0.385742, -9.73145, 1.28.2022 18:43:14.213
209, 2.23026, 0.237302, 184.635, -0.000976562, 0.000976562, -0.000976562, -0.0214844, 0.381836, -9.74902, 1.28.2022 18:43:14.221
210, 2.23026, 0.237302, 184.635, -0.000976562, 0.000976562, -0.000976562, -0.113281, 0.382812, -9.71191, 1.28.2022 18:43:14.229
211, 2.23026, 0.237302, 184.635, -0.000976562, 0.000976562, -0.000976562, -0.0234375, 0.388672, -9.73438, 1.28.2022 18:43:14.237
212, 2.23026, 0.237302, 184.635, 0, -0.000976562, -0.000976562, -0.0537109, 0.366211, -9.69434, 1.28.2022 18:43:14.245
213, 2.23026, 0.237302, 184.635, 0, -0.000976562, -0.000976562, -0.078125, 0.387695, -9.70996, 1.28.2022 18:43:14.253
214, 2.23026, 0.237302, 184.635, -0.000976562, -0.000976562, -0.000976562, 0.0292969, 0.373047, -9.7168, 1.28.2022 18:43:14.261
215, 2.23026, 0.237302, 184.635, -0.000976562, 0.000976562, -0.000976562, -0.0585938, 0.382812, -9.70801, 1.28.2022 18:43:14.269
216, 2.22998, 0.244289, 184.635, 0, -0.000976562, -0.00195312, -0.0722656, 0.37793, -9.68848, 1.28.2022 18:43:14.277
217, 2.22998, 0.244289, 184.635, 0, -0.000976562, -0.000976562, 0.0078125, 0.383789, -9.7373, 1.28.2022 18:43:14.285
218, 2.22998, 0.244289, 184.635, 0, -0.000976562, 0.000976562, -0.0664062, 0.398438, -9.7334, 1.28.2022 18:43:14.293
219, 2.22998, 0.244289, 184.635, 0, -0.000976562, 0.000976562, -0.0449219, 0.388672, -9.75, 1.28.2022 18:43:14.301
220, 2.22998, 0.244289, 184.635, 0, -0.00195312, -0.000976562, -0.0107422, 0.356445, -9.70898, 1.28.2022 18:43:14.309
221, 2.22998, 0.244289, 184.635, -0.000976562, -0.00292969, -0.00195312, -0.0683594, 0.393555, -9.72852, 1.28.2022 18:43:14.317
222, 2.22998, 0.244289, 184.635, -0.000976562, -0.000976562, -0.00195312, 0.0175781, 0.361328, -9.72363, 1.28.2022 18:43:14.325
223, 2.22998, 0.244289, 184.635, -0.000976562, -0.000976562, 0.000976562, -0.0517578, 0.344727, -9.71094, 1.28.2022 18:43:14.333
224, 2.22998, 0.244289, 184.635, 0, -0.00195312, 0.000976562, -0.0693359, 0.396484, -9.74707, 1.28.2022 18:43:14.341
225, 2.2297, 0.251277, 184.635, 0, -0.000976562, -0.00195312, 0.0126953, 0.37207, -9.73535, 1.28.2022 18:43:14.349
226, 2.2297, 0.251277, 184.635, -0.000976562, -0.000976562, 0, -0.0751953, 0.414062, -9.69727, 1.28.2022 18:43:14.357
227, 2.22998, 0.244289, 184.635, -0.000976562, 0, 0, -0.0419922, 0.373047, -9.68945, 1.28.2022 18:43:14.365
228, 2.22998, 0.244289, 184.635, -0.000976562, -0.000976562, 0, -0.00878906, 0.347656, -9.71875, 1.28.2022 18:43:14.373
229, 2.22998, 0.244289, 184.635, -0.000976562, -0.000976562, 0, -0.101562, 0.382812, -9.69531, 1.28.2022 18:43:14.381
230, 2.22998, 0.244289, 184.635, 0, -0.00195312, -0.000976562, -0.0136719, 0.366211, -9.71094, 1.28.2022 18:43:14.389
231, 2.2297, 0.251277, 184.635, 0, -0.00195312, -0.000976562, -0.046875, 0.354492, -9.7041, 1.28.2022 18:43:14.397
232, 2.2297, 0.251277, 184.635, -0.00195312, -0.000976562, 0.000976562, -0.0546875, 0.40332, -9.74707, 1.28.2022 18:43:14.405
233, 2.2297, 0.251277, 184.635, -0.000976562, -0.00195312, 0.000976562, 0.0078125, 0.351562, -9.70312, 1.28.2022 18:43:14.413
234, 2.2297, 0.251277, 184.635, 0, -0.000976562, -0.00195312, -0.0791016, 0.370117, -9.6748, 1.28.2022 18:43:14.421
235, 2.2297, 0.251277, 184.635, 0, -0.000976562, -0.00195312, -0.0615234, 0.364258, -9.70801, 1.28.2022 18:43:14.429
236, 2.2297, 0.251277, 184.635, -0.000976562, -0.000976562, 0, -0.0332031, 0.378906, -9.74121, 1.28.2022 18:43:14.437
237, 2.2297, 0.251277, 184.635, -0.00195312, -0.000976562, 0, -0.0771484, 0.396484, -9.68848, 1.28.2022 18:43:14.445
238, 2.2297, 0.251277, 184.635, 0, -0.000976562, -0.000976562, -0.015625, 0.401367, -9.70117, 1.28.2022 18:43:14.453
239, 2.2297, 0.251277, 184.635, 0, 0, 0, -0.0634766, 0.366211, -9.70801, 1.28.2022 18:43:14.461
240, 2.2297, 0.251277, 184.635, 0, 0, 0, -0.0585938, 0.387695, -9.69336, 1.28.2022 18:43:14.469
241, 2.2297, 0.251277, 184.635, -0.000976562, 0, 0, 0.00585938, 0.361328, -9.70508, 1.28.2022 18:43:14.477
242, 2.22272, 0.250994, 184.635, 0, -0.000976562, 0.000976562, -0.0634766, 0.369141, -9.71777, 1.28.2022 18:43:14.485
243, 2.22272, 0.250994, 184.635, 0, -0.000976562, 0.000976562, -0.0273438, 0.387695, -9.71484, 1.28.2022 18:43:14.493
244, 2.22272, 0.250994, 184.635, -0.000976562, 0, 0, -0.0136719, 0.374023, -9.7373, 1.28.2022 18:43:14.499
245, 2.22272, 0.250994, 184.635, -0.000976562, -0.000976562, 0, -0.078125, 0.380859, -9.70801, 1.28.2022 18:43:14.507
246, 2.22272, 0.250994, 184.635, -0.000976562, -0.000976562, 0.000976562, -0.0175781, 0.336914, -9.7002, 1.28.2022 18:43:14.515
247, 2.22272, 0.250994, 184.635, 0, -0.00195312, -0.000976562, -0.0322266, 0.358398, -9.69043, 1.28.2022 18:43:14.523
248, 2.22272, 0.250994, 184.635, 0, -0.00195312, -0.000976562, -0.0820312, 0.402344, -9.70508, 1.28.2022 18:43:14.531
249, 2.22272, 0.250994, 184.635, 0, -0.000976562, -0.000976562, 0.015625, 0.380859, -9.71191, 1.28.2022 18:43:14.539
250, 2.22272, 0.250994, 184.635, -0.000976562, 0, -0.000976562, -0.0585938, 0.371094, -9.71777, 1.28.2022 18:43:14.549
251, 2.22272, 0.250994, 184.635, -0.000976562, -0.000976562, -0.000976562, -0.0341797, 0.37793, -9.69922, 1.28.2022 18:43:14.555
252, 2.22272, 0.250994, 184.635, -0.000976562, 0, -0.000976562, -0.0166016, 0.358398, -9.78223, 1.28.2022 18:43:14.563
253, 2.22272, 0.250994, 184.635, -0.000976562, -0.000976562, -0.00195312, -0.0947266, 0.393555, -9.7373, 1.28.2022 18:43:14.571
254, 2.22272, 0.250994, 184.635, 0, 0, -0.000976562, -0.00195312, 0.374023, -9.74707, 1.28.2022 18:43:14.579
255, 2.22272, 0.250994, 184.635, 0, -0.000976562, -0.000976562, -0.0273438, 0.371094, -9.70898, 1.28.2022 18:43:14.587
256, 2.22272, 0.250994, 184.635, -0.000976562, 0.000976562, -0.000976562, -0.0664062, 0.405273, -9.73535, 1.28.2022 18:43:14.595
257, 2.22272, 0.250994, 184.635, -0.000976562, 0, 0.000976562, 0.0273438, 0.392578, -9.7207, 1.28.2022 18:43:14.603
258, 2.22272, 0.250994, 184.635, 0, 0, -0.000976562, -0.0751953, 0.37793, -9.70508, 1.28.2022 18:43:14.611
259, 2.223, 0.244006, 184.635, 0, 0.000976562, -0.000976562, -0.0703125, 0.402344, -9.70508, 1.28.2022 18:43:14.619
260, 2.223, 0.244006, 184.635, 0, 0, -0.000976562, -0.00683594, 0.354492, -9.7168, 1.28.2022 18:43:14.627
261, 2.223, 0.244006, 184.635, 0, 0, -0.000976562, -0.0917969, 0.399414, -9.71191, 1.28.2022 18:43:14.635
262, 2.223, 0.244006, 184.635, -0.000976562, 0, -0.000976562, 0.000976562, 0.347656, -9.7168, 1.28.2022 18:43:14.643
263, 2.223, 0.244006, 184.635, -0.00195312, -0.000976562, 0, -0.0439453, 0.351562, -9.69434, 1.28.2022 18:43:14.651
264, 2.223, 0.244006, 184.635, -0.000976562, -0.000976562, -0.000976562, -0.0605469, 0.384766, -9.68652, 1.28.2022 18:43:14.659
265, 2.223, 0.244006, 184.635, 0, -0.000976562, -0.000976562, 0.0107422, 0.348633, -9.69824, 1.28.2022 18:43:14.667
266, 2.223, 0.244006, 184.635, 0, -0.000976562, -0.00195312, -0.0898438, 0.374023, -9.71191, 1.28.2022 18:43:14.675
267, 2.223, 0.244006, 184.635, -0.000976562, 0, -0.000976562, -0.0605469, 0.380859, -9.70312, 1.28.2022 18:43:14.683
268, 2.223, 0.244006, 184.635, 0, 0, -0.000976562, -0.0107422, 0.334961, -9.7002, 1.28.2022 18:43:14.691
269, 2.223, 0.244006, 184.635, 0, 0.000976562, -0.000976562, -0.0810547, 0.385742, -9.73535, 1.28.2022 18:43:14.699
270, 2.21602, 0.243723, 184.635, 0, 0, -0.000976562, 0.000976562, 0.397461, -9.72754, 1.28.2022 18:43:14.707
271, 2.21602, 0.243723, 184.635, 0.000976562, 0, -0.00195312, -0.0322266, 0.356445, -9.71582, 1.28.2022 18:43:14.715
272, 2.21602, 0.243723, 184.635, 0, 0.000976562, -0.000976562, -0.0927734, 0.412109, -9.72754, 1.28.2022 18:43:14.723
273, 2.21602, 0.243723, 184.635, 0, 0, 0, 0.0107422, 0.387695, -9.7207, 1.28.2022 18:43:14.731
274, 2.21602, 0.243723, 184.635, 0, 0, -0.000976562, -0.0615234, 0.353516, -9.75391, 1.28.2022 18:43:14.739
275, 2.21602, 0.243723, 184.635, -0.000976562, 0, -0.00195312, -0.0761719, 0.385742, -9.73633, 1.28.2022 18:43:14.747
276, 2.21602, 0.243723, 184.635, -0.000976562, 0, -0.000976562, -0.00976562, 0.360352, -9.74902, 1.28.2022 18:43:14.755
277, 2.21599, 0.243859, 184.642, 0, -0.000976562, -0.00195312, -0.0947266, 0.376953, -9.74316, 1.28.2022 18:43:14.763
278, 2.21599, 0.243859, 184.642, -0.000976562, -0.000976562, -0.00195312, -0.0253906, 0.375977, -9.72754, 1.28.2022 18:43:14.771
279, 2.21599, 0.243859, 184.642, -0.000976562, 0, -0.000976562, -0.0253906, 0.387695, -9.70605, 1.28.2022 18:43:14.779
280, 2.21599, 0.243859, 184.642, -0.000976562, 0, -0.000976562, -0.101562, 0.414062, -9.69922, 1.28.2022 18:43:14.787
281, 2.21599, 0.243859, 184.642, 0, 0, 0, -0.00683594, 0.376953, -9.74219, 1.28.2022 18:43:14.795
282, 2.21599, 0.243859, 184.642, 0.000976562, 0, 0.000976562, -0.0546875, 0.359375, -9.72559, 1.28.2022 18:43:14.803
283, 2.21599, 0.243859, 184.642, 0, 0, 0.000976562, -0.0683594, 0.371094, -9.72656, 1.28.2022 18:43:14.811
284, 2.21599, 0.243859, 184.642, -0.000976562, 0, -0.00195312, 0.00292969, 0.355469, -9.74023, 1.28.2022 18:43:14.819
285, 2.21599, 0.243859, 184.642, -0.000976562, 0, 0, -0.0732422, 0.393555, -9.7334, 1.28.2022 18:43:14.827
286, 2.21599, 0.243859, 184.642, -0.000976562, -0.000976562, 0, -0.0283203, 0.378906, -9.7207, 1.28.2022 18:43:14.835
287, 2.21599, 0.243859, 184.642, -0.000976562, -0.000976562, -0.00195312, -0.0498047, 0.375977, -9.71973, 1.28.2022 18:43:14.843
288, 2.2157, 0.250846, 184.642, -0.000976562, 0, 0, -0.0751953, 0.389648, -9.7002, 1.28.2022 18:43:14.851
289, 2.2157, 0.250846, 184.642, -0.000976562, 0, 0.000976562, 0.0195312, 0.371094, -9.72559, 1.28.2022 18:43:14.859
290, 2.2157, 0.250846, 184.642, -0.000976562, 0.000976562, 0, -0.0712891, 0.378906, -9.73828, 1.28.2022 18:43:14.867
291, 2.2157, 0.250846, 184.642, -0.000976562, 0, 0, -0.046875, 0.400391, -9.7168, 1.28.2022 18:43:14.875
292, 2.2157, 0.250846, 184.642, -0.000976562, 0.000976562, 0, 0.0117188, 0.37207, -9.75684, 1.28.2022 18:43:14.883
293, 2.2157, 0.250846, 184.642, -0.00195312, 0, 0, -0.0556641, 0.396484, -9.69531, 1.28.2022 18:43:14.891
294, 2.2157, 0.250846, 184.642, -0.000976562, -0.000976562, -0.00195312, -0.0664062, 0.390625, -9.7334, 1.28.2022 18:43:14.899
295, 2.22269, 0.25113, 184.642, -0.000976562, 0, 0, -0.0234375, 0.347656, -9.71875, 1.28.2022 18:43:14.907
296, 2.22269, 0.25113, 184.642, 0, 0, 0.000976562, -0.0986328, 0.404297, -9.6875, 1.28.2022 18:43:14.915
297, 2.22272, 0.250994, 184.635, 0, 0.000976562, 0.000976562, -0.000976562, 0.375, -9.67383, 1.28.2022 18:43:14.923
298, 2.22272, 0.250994, 184.635, -0.000976562, 0, 0, -0.0498047, 0.391602, -9.75293, 1.28.2022 18:43:14.931
299, 2.22272, 0.250994, 184.635, 0, -0.000976562, -0.000976562, -0.0654297, 0.392578, -9.69531, 1.28.2022 18:43:14.939
300, 2.22272, 0.250994, 184.635, -0.000976562, 0, 0, -0.0400391, 0.347656, -9.71875, 1.28.2022 18:43:14.947
301, 2.22272, 0.250994, 184.635, -0.000976562, -0.000976562, 0, -0.0664062, 0.410156, -9.7207, 1.28.2022 18:43:14.955
302, 2.22272, 0.250994, 184.635, 0, -0.000976562, -0.00195312, -0.0390625, 0.376953, -9.67969, 1.28.2022 18:43:14.963
303, 2.22269, 0.25113, 184.642, -0.000976562, -0.000976562, -0.00195312, -0.0283203, 0.385742, -9.72754, 1.28.2022 18:43:14.971
304, 2.22269, 0.25113, 184.642, -0.000976562, -0.000976562, 0, -0.0996094, 0.385742, -9.70996, 1.28.2022 18:43:14.979
305, 2.22269, 0.25113, 184.642, -0.000976562, 0, 0.000976562, 0.0175781, 0.361328, -9.71191, 1.28.2022 18:43:14.987
306, 2.2297, 0.251277, 184.635, -0.000976562, 0, 0.000976562, -0.0351562, 0.371094, -9.70898, 1.28.2022 18:43:14.995
307, 2.2297, 0.251277, 184.635, -0.000976562, 0, 0, -0.0830078, 0.382812, -9.7168, 1.28.2022 18:43:15.003
308, 2.2297, 0.251277, 184.635, 0, -0.000976562, 0.000976562, 0.0175781, 0.404297, -9.71094, 1.28.2022 18:43:15.011
309, 2.2297, 0.251277, 184.635, -0.000976562, 0, 0.000976562, -0.0947266, 0.380859, -9.72363, 1.28.2022 18:43:15.019
310, 2.2297, 0.251277, 184.635, -0.000976562, 0.000976562, 0.000976562, -0.0664062, 0.375977, -9.72168, 1.28.2022 18:43:15.027
311, 2.2297, 0.251277, 184.635, 0, 0.000976562, 0.000976562, -0.0419922, 0.365234, -9.6875, 1.28.2022 18:43:15.035
312, 2.2297, 0.251277, 184.635, 0, 0.000976562, 0, -0.0947266, 0.397461, -9.7207, 1.28.2022 18:43:15.043
313, 2.22942, 0.258264, 184.634, 0, -0.000976562, -0.000976562, 0.00585938, 0.356445, -9.70508, 1.28.2022 18:43:15.051
314, 2.22942, 0.258264, 184.634, -0.000976562, -0.000976562, 0, -0.0371094, 0.366211, -9.72559, 1.28.2022 18:43:15.059
315, 2.22942, 0.258264, 184.634, 0, -0.000976562, -0.000976562, -0.0566406, 0.395508, -9.73828, 1.28.2022 18:43:15.067
316, 2.22942, 0.258264, 184.634, -0.000976562, -0.000976562, -0.000976562, -0.0117188, 0.359375, -9.72852, 1.28.2022 18:43:15.075
317, 2.2364, 0.258547, 184.634, -0.000976562, 0, -0.000976562, -0.0966797, 0.392578, -9.69238, 1.28.2022 18:43:15.083
318, 2.2364, 0.258547, 184.634, -0.000976562, -0.000976562, 0, -0.0566406, 0.400391, -9.73145, 1.28.2022 18:43:15.091
319, 2.2364, 0.258547, 184.634, -0.000976562, -0.000976562, -0.000976562, -0.0517578, 0.357422, -9.72266, 1.28.2022 18:43:15.099
320, 2.2364, 0.258547, 184.634, -0.000976562, -0.000976562, -0.00195312, -0.0947266, 0.397461, -9.71191, 1.28.2022 18:43:15.107
321, 2.23611, 0.265534, 184.634, -0.000976562, -0.000976562, -0.000976562, -0.000976562, 0.373047, -9.69531, 1.28.2022 18:43:15.115
322, 2.23611, 0.265534, 184.634, 0, 0, -0.000976562, -0.015625, 0.369141, -9.72266, 1.28.2022 18:43:15.123
323, 2.23611, 0.265534, 184.634, -0.000976562, 0, -0.000976562, -0.0839844, 0.390625, -9.65527, 1.28.2022 18:43:15.131
324, 2.23611, 0.265534, 184.634, 0, 0.000976562, -0.000976562, 0.0136719, 0.350586, -9.66309, 1.28.2022 18:43:15.139
325, 2.23611, 0.265534, 184.634, 0, 0, -0.000976562, -0.0849609, 0.363281, -9.69629, 1.28.2022 18:43:15.147
326, 2.23611, 0.265534, 184.634, 0, 0.000976562, 0, -0.0449219, 0.410156, -9.72363, 1.28.2022 18:43:15.155
327, 2.23611, 0.265534, 184.634, -0.000976562, 0, -0.000976562, -0.00878906, 0.352539, -9.72168, 1.28.2022 18:43:15.163
328, 2.23611, 0.265534, 184.634, -0.000976562, 0, -0.000976562, -0.0849609, 0.392578, -9.69531, 1.28.2022 18:43:15.171
329, 2.23611, 0.265534, 184.634, -0.000976562, 0.000976562, -0.000976562, 0.0126953, 0.40332, -9.74414, 1.28.2022 18:43:15.179
330, 2.23611, 0.265534, 184.634, 0, 0.000976562, 0, -0.0302734, 0.371094, -9.71289, 1.28.2022 18:43:15.187
331, 2.23611, 0.265534, 184.634, -0.000976562, 0, 0, -0.0576172, 0.378906, -9.66797, 1.28.2022 18:43:15.195
332, 2.23611, 0.265534, 184.634, -0.000976562, 0, -0.00195312, 0.000976562, 0.360352, -9.68555, 1.28.2022 18:43:15.203
333, 2.23611, 0.265534, 184.634, -0.000976562, 0, -0.00195312, -0.0664062, 0.388672, -9.73828, 1.28.2022 18:43:15.211
334, 2.23611, 0.265534, 184.634, 0, 0, -0.000976562, -0.0488281, 0.396484, -9.68848, 1.28.2022 18:43:15.219
335, 2.23611, 0.265534, 184.634, -0.000976562, -0.000976562, -0.000976562, 0.00292969, 0.386719, -9.74414, 1.28.2022 18:43:15.227
336, 2.23611, 0.265534, 184.634, 0, -0.000976562, -0.000976562, -0.0927734, 0.400391, -9.7373, 1.28.2022 18:43:15.235
337, 2.23611, 0.265534, 184.634, 0, 0, -0.000976562, -0.015625, 0.363281, -9.69043, 1.28.2022 18:43:15.243
338, 2.23611, 0.265534, 184.634, -0.000976562, 0, -0.00195312, -0.0185547, 0.366211, -9.72266, 1.28.2022 18:43:15.251
339, 2.2364, 0.258547, 184.634, -0.000976562, 0, -0.000976562, -0.0830078, 0.376953, -9.75293, 1.28.2022 18:43:15.259
340, 2.2364, 0.258547, 184.634, -0.000976562, 0, -0.000976562, 0.0224609, 0.362305, -9.72852, 1.28.2022 18:43:15.267
341, 2.2364, 0.258547, 184.634, -0.000976562, 0.000976562, -0.000976562, -0.0605469, 0.37793, -9.69824, 1.28.2022 18:43:15.275
342, 2.23636, 0.258684, 184.641, -0.000976562, 0.000976562, -0.00195312, -0.0537109, 0.389648, -9.70508, 1.28.2022 18:43:15.283
343, 2.23636, 0.258684, 184.641, 0, 0.000976562, -0.00195312, -0.0126953, 0.367188, -9.66895, 1.28.2022 18:43:15.291
344, 2.23636, 0.258684, 184.641, -0.000976562, 0, -0.000976562, -0.0898438, 0.380859, -9.71484, 1.28.2022 18:43:15.299
345, 2.23636, 0.258684, 184.641, -0.000976562, 0, -0.000976562, -0.0380859, 0.374023, -9.73633, 1.28.2022 18:43:15.307
346, 2.23665, 0.251697, 184.642, -0.000976562, 0.000976562, 0, -0.0351562, 0.382812, -9.70117, 1.28.2022 18:43:15.315
347, 2.23665, 0.251697, 184.642, -0.000976562, 0.000976562, 0.000976562, -0.0693359, 0.408203, -9.76855, 1.28.2022 18:43:15.323
348, 2.23665, 0.251697, 184.642, -0.000976562, -0.000976562, 0, 0, 0.364258, -9.7373, 1.28.2022 18:43:15.331
349, 2.23665, 0.251697, 184.642, 0, 0, -0.00195312, -0.0615234, 0.398438, -9.73535, 1.28.2022 18:43:15.339
350, 2.23665, 0.251697, 184.642, 0, -0.000976562, 0, -0.0761719, 0.398438, -9.74023, 1.28.2022 18:43:15.347
351, 2.23665, 0.251697, 184.642, 0, -0.000976562, 0, 0.00488281, 0.395508, -9.73926, 1.28.2022 18:43:15.355
352, 2.23665, 0.251697, 184.642, -0.000976562, -0.000976562, 0, -0.0849609, 0.407227, -9.72559, 1.28.2022 18:43:15.363
353, 2.23665, 0.251697, 184.642, -0.000976562, 0.000976562, 0, -0.0332031, 0.375977, -9.72754, 1.28.2022 18:43:15.371
354, 2.23665, 0.251697, 184.642, -0.000976562, -0.00195312, 0, -0.0195312, 0.360352, -9.77051, 1.28.2022 18:43:15.379
355, 2.23665, 0.251697, 184.642, -0.000976562, 0, 0, -0.103516, 0.407227, -9.70215, 1.28.2022 18:43:15.387
356, 2.23665, 0.251697, 184.642, -0.000976562, 0.000976562, 0, 0.0107422, 0.349609, -9.70801, 1.28.2022 18:43:15.395
357, 2.23665, 0.251697, 184.642, 0, 0, -0.00195312, -0.046875, 0.348633, -9.6875, 1.28.2022 18:43:15.403
358, 2.23665, 0.251697, 184.642, -0.00195312, 0.000976562, -0.000976562, -0.0683594, 0.383789, -9.72461, 1.28.2022 18:43:15.411
359, 2.23665, 0.251697, 184.642, 0, 0, -0.00195312, -0.00683594, 0.364258, -9.7168, 1.28.2022 18:43:15.419
360, 2.23665, 0.251697, 184.642, 0, -0.000976562, 0, -0.0800781, 0.393555, -9.73047, 1.28.2022 18:43:15.427
361, 2.23665, 0.251697, 184.642, -0.000976562, 0.00195312, 0, -0.0517578, 0.390625, -9.73633, 1.28.2022 18:43:15.435
362, 2.23693, 0.244709, 184.642, -0.000976562, -0.000976562, 0.000976562, -0.0224609, 0.37793, -9.69629, 1.28.2022 18:43:15.443
363, 2.23693, 0.244709, 184.642, -0.00195312, 0, 0, -0.0830078, 0.383789, -9.73145, 1.28.2022 18:43:15.451
364, 2.23665, 0.251697, 184.642, -0.000976562, -0.000976562, 0, 0.00585938, 0.373047, -9.71191, 1.28.2022 18:43:15.459
365, 2.23693, 0.244709, 184.642, 0, 0.000976562, 0, -0.0537109, 0.354492, -9.71777, 1.28.2022 18:43:15.467
366, 2.23693, 0.244709, 184.642, 0, -0.000976562, 0, -0.0517578, 0.40332, -9.74023, 1.28.2022 18:43:15.475
367, 2.23693, 0.244709, 184.642, -0.000976562, 0.000976562, 0, 0.015625, 0.389648, -9.7041, 1.28.2022 18:43:15.481
368, 2.23693, 0.244709, 184.642, 0, -0.000976562, 0, -0.0849609, 0.37793, -9.69141, 1.28.2022 18:43:15.489
369, 2.23693, 0.244709, 184.642, -0.000976562, -0.000976562, 0.000976562, -0.0224609, 0.37793, -9.69922, 1.28.2022 18:43:15.497
370, 2.23693, 0.244709, 184.642, 0, -0.000976562, 0, 0.0107422, 0.360352, -9.69043, 1.28.2022 18:43:15.505
371, 2.23693, 0.244709, 184.642, -0.000976562, -0.000976562, 0, -0.0732422, 0.423828, -9.72754, 1.28.2022 18:43:15.513
372, 2.23693, 0.244709, 184.642, -0.000976562, -0.00195312, 0, -0.00390625, 0.349609, -9.7334, 1.28.2022 18:43:15.521
373, 2.23693, 0.244709, 184.642, 0, -0.000976562, 0, -0.0664062, 0.380859, -9.72656, 1.28.2022 18:43:15.529
374, 2.23693, 0.244709, 184.642, -0.000976562, 0, -0.00195312, -0.046875, 0.386719, -9.68945, 1.28.2022 18:43:15.537
375, 2.23693, 0.244709, 184.642, 0, -0.000976562, 0, -0.00585938, 0.373047, -9.69922, 1.28.2022 18:43:15.545
376, 2.23693, 0.244709, 184.642, -0.000976562, 0, 0, -0.0986328, 0.386719, -9.68066, 1.28.2022 18:43:15.553
377, 2.23693, 0.244709, 184.642, 0, -0.00195312, 0.000976562, -0.0253906, 0.374023, -9.72266, 1.28.2022 18:43:15.561
378, 2.23693, 0.244709, 184.642, 0, -0.000976562, 0, -0.0253906, 0.347656, -9.72852, 1.28.2022 18:43:15.569
379, 2.23693, 0.244709, 184.642, 0, -0.000976562, 0, -0.114258, 0.375977, -9.72363, 1.28.2022 18:43:15.577
380, 2.23693, 0.244709, 184.642, -0.000976562, -0.000976562, 0.000976562, -0.00878906, 0.362305, -9.73047, 1.28.2022 18:43:15.585
381, 2.23696, 0.244572, 184.635, -0.000976562, -0.00195312, 0.000976562, -0.0654297, 0.375977, -9.70605, 1.28.2022 18:43:15.593
382, 2.23696, 0.244572, 184.635, 0, -0.000976562, 0, -0.0800781, 0.375977, -9.71973, 1.28.2022 18:43:15.601
383, 2.23696, 0.244572, 184.635, 0, -0.000976562, -0.00195312, 0.00585938, 0.34668, -9.70801, 1.28.2022 18:43:15.609
384, 2.23696, 0.244572, 184.635, -0.000976562, 0, 0, -0.0878906, 0.375977, -9.7168, 1.28.2022 18:43:15.617
385, 2.23693, 0.244709, 184.642, -0.000976562, 0, -0.00195312, -0.015625, 0.40918, -9.72461, 1.28.2022 18:43:15.625
386, 2.23693, 0.244709, 184.642, 0, 0, -0.00195312, -0.0175781, 0.375, -9.68262, 1.28.2022 18:43:15.633
387, 2.23693, 0.244709, 184.642, 0, -0.000976562, 0, -0.0800781, 0.37793, -9.68652, 1.28.2022 18:43:15.641
388, 2.22995, 0.244426, 184.642, 0, 0, 0, -0.00683594, 0.359375, -9.7168, 1.28.2022 18:43:15.649
389, 2.22995, 0.244426, 184.642, 0, 0, -0.00195312, -0.0400391, 0.386719, -9.74121, 1.28.2022 18:43:15.657
390, 2.22995, 0.244426, 184.642, 0, -0.000976562, 0, -0.0634766, 0.402344, -9.70703, 1.28.2022 18:43:15.665
391, 2.22995, 0.244426, 184.642, 0, -0.000976562, 0, 0.0214844, 0.374023, -9.73535, 1.28.2022 18:43:15.673
392, 2.22995, 0.244426, 184.642, 0, -0.000976562, 0, -0.0615234, 0.37793, -9.70801, 1.28.2022 18:43:15.681
393, 2.22995, 0.244426, 184.642, 0, -0.000976562, 0, -0.0322266, 0.375977, -9.7041, 1.28.2022 18:43:15.689
394, 2.22995, 0.244426, 184.642, 0, -0.000976562, 0, -0.0205078, 0.361328, -9.71582, 1.28.2022 18:43:15.697
395, 2.22995, 0.244426, 184.642, 0, 0, -0.00195312, -0.0927734, 0.412109, -9.73047, 1.28.2022 18:43:15.705
396, 2.22995, 0.244426, 184.642, -0.000976562, 0, -0.00195312, -0.0175781, 0.382812, -9.69629, 1.28.2022 18:43:15.713
397, 2.22995, 0.244426, 184.642, -0.000976562, -0.000976562, 0, -0.0439453, 0.389648, -9.69824, 1.28.2022 18:43:15.721
398, 2.22995, 0.244426, 184.642, 0, -0.000976562, 0, -0.0566406, 0.381836, -9.73828, 1.28.2022 18:43:15.729
399, 2.22995, 0.244426, 184.642, 0, -0.000976562, -0.00195312, 0.00488281, 0.326172, -9.74121, 1.28.2022 18:43:15.737
400, 2.22995, 0.244426, 184.642, 0, -0.000976562, 0, -0.0449219, 0.362305, -9.72559, 1.28.2022 18:43:15.745
401, 2.22995, 0.244426, 184.642, -0.00195312, -0.000976562, 0.000976562, -0.0283203, 0.391602, -9.74609, 1.28.2022 18:43:15.753
402, 2.22995, 0.244426, 184.642, -0.000976562, -0.00195312, -0.000976562, 0.00976562, 0.354492, -9.73145, 1.28.2022 18:43:15.761
403, 2.22995, 0.244426, 184.642, -0.000976562, -0.000976562, 0, -0.0771484, 0.389648, -9.68652, 1.28.2022 18:43:15.769
404, 2.22297, 0.244142, 184.642, 0, 0, 0, -0.0166016, 0.398438, -9.75098, 1.28.2022 18:43:15.777
405, 2.22297, 0.244142, 184.642, -0.000976562, -0.000976562, -0.00195312, -0.0332031, 0.388672, -9.73145, 1.28.2022 18:43:15.785
406, 2.22297, 0.244142, 184.642, -0.00195312, -0.000976562, 0, -0.0751953, 0.397461, -9.72559, 1.28.2022 18:43:15.793
407, 2.22297, 0.244142, 184.642, -0.000976562, -0.000976562, 0.000976562, 0.0195312, 0.376953, -9.74707, 1.28.2022 18:43:15.801
408, 2.22995, 0.244426, 184.642, -0.000976562, -0.000976562, 0, -0.0996094, 0.364258, -9.73633, 1.28.2022 18:43:15.809
409, 2.22297, 0.244142, 184.642, 0, -0.000976562, -0.00195312, -0.0683594, 0.404297, -9.71387, 1.28.2022 18:43:15.817
410, 2.22325, 0.237155, 184.642, -0.000976562, -0.000976562, -0.000976562, 0.0107422, 0.367188, -9.67383, 1.28.2022 18:43:15.825
411, 2.23023, 0.237439, 184.642, 0, -0.000976562, 0, -0.0917969, 0.385742, -9.70996, 1.28.2022 18:43:15.833
412, 2.22325, 0.237155, 184.642, 0, -0.00195312, 0.000976562, -0.00585938, 0.385742, -9.71582, 1.28.2022 18:43:15.841
413, 2.22325, 0.237155, 184.642, 0, -0.00195312, 0, -0.0205078, 0.371094, -9.70605, 1.28.2022 18:43:15.849
414, 2.22325, 0.237155, 184.642, 0, -0.000976562, 0, -0.0654297, 0.40918, -9.70703, 1.28.2022 18:43:15.857
415, 2.23023, 0.237439, 184.642, -0.000976562, 0, 0, 0.00292969, 0.364258, -9.71191, 1.28.2022 18:43:15.865
416, 2.23023, 0.237439, 184.642, 0, 0, 0, -0.078125, 0.395508, -9.72168, 1.28.2022 18:43:15.873
417, 2.23023, 0.237439, 184.642, 0, -0.000976562, 0, -0.0751953, 0.390625, -9.70996, 1.28.2022 18:43:15.881
418, 2.23023, 0.237439, 184.642, 0, -0.000976562, -0.000976562, -0.0107422, 0.358398, -9.7041, 1.28.2022 18:43:15.889
419, 2.23023, 0.237439, 184.642, 0, 0, -0.000976562, -0.0654297, 0.387695, -9.69629, 1.28.2022 18:43:15.897
420, 2.23023, 0.237439, 184.642, 0, -0.000976562, 0, -0.0273438, 0.394531, -9.69824, 1.28.2022 18:43:15.905
421, 2.23023, 0.237439, 184.642, 0, -0.000976562, -0.000976562, -0.0185547, 0.386719, -9.75293, 1.28.2022 18:43:15.913
422, 2.23023, 0.237439, 184.642, -0.000976562, -0.000976562, 0, -0.0761719, 0.402344, -9.73047, 1.28.2022 18:43:15.921
423, 2.23023, 0.237439, 184.642, 0, -0.00195312, 0.000976562, 0.0126953, 0.381836, -9.74219, 1.28.2022 18:43:15.929
424, 2.23023, 0.237439, 184.642, -0.000976562, -0.000976562, 0.000976562, -0.0351562, 0.382812, -9.70605, 1.28.2022 18:43:15.937
425, 2.23023, 0.237439, 184.642, -0.000976562, -0.000976562, 0, -0.0546875, 0.381836, -9.73633, 1.28.2022 18:43:15.945
426, 2.23023, 0.237439, 184.642, -0.00195312, 0, 0, 0.0175781, 0.363281, -9.69336, 1.28.2022 18:43:15.953
427, 2.23721, 0.237722, 184.642, -0.000976562, -0.000976562, 0, -0.0917969, 0.394531, -9.69531, 1.28.2022 18:43:15.961
428, 2.23721, 0.237722, 184.642, 0, -0.000976562, -0.000976562, -0.0273438, 0.386719, -9.6748, 1.28.2022 18:43:15.969
429, 2.23721, 0.237722, 184.642, -0.000976562, -0.000976562, 0, -0.0371094, 0.371094, -9.7041, 1.28.2022 18:43:15.977
430, 2.23721, 0.237722, 184.642, -0.000976562, -0.000976562, 0.000976562, -0.0878906, 0.410156, -9.72754, 1.28.2022 18:43:15.985
431, 2.23721, 0.237722, 184.642, 0, -0.000976562, 0, 0.00976562, 0.369141, -9.72363, 1.28.2022 18:43:15.993
432, 2.23721, 0.237722, 184.642, 0, -0.000976562, 0, -0.0371094, 0.374023, -9.71777, 1.28.2022 18:43:16.001
433, 2.23721, 0.237722, 184.642, 0, -0.000976562, 0, -0.0400391, 0.385742, -9.71289, 1.28.2022 18:43:16.009
434, 2.23721, 0.237722, 184.642, -0.000976562, -0.000976562, 0, -0.0117188, 0.349609, -9.72363, 1.28.2022 18:43:16.017
435, 2.23721, 0.237722, 184.642, -0.000976562, -0.000976562, 0, -0.0732422, 0.370117, -9.74316, 1.28.2022 18:43:16.025
436, 2.23721, 0.237722, 184.642, 0, -0.000976562, 0, -0.0449219, 0.37207, -9.73438, 1.28.2022 18:43:16.033
437, 2.2375, 0.230735, 184.642, -0.000976562, -0.000976562, 0, -0.0302734, 0.332031, -9.69824, 1.28.2022 18:43:16.041
438, 2.2375, 0.230735, 184.642, -0.000976562, -0.000976562, 0, -0.0869141, 0.368164, -9.69141, 1.28.2022 18:43:16.049
439, 2.2375, 0.230735, 184.642, -0.000976562, -0.000976562, -0.000976562, -0.00390625, 0.361328, -9.70898, 1.28.2022 18:43:16.057
440, 2.2375, 0.230735, 184.642, -0.000976562, -0.00195312, 0, -0.0439453, 0.373047, -9.68457, 1.28.2022 18:43:16.065
441, 2.23721, 0.237722, 184.642, 0, -0.00195312, 0, -0.0849609, 0.428711, -9.73242, 1.28.2022 18:43:16.073
442, 2.23721, 0.237722, 184.642, 0, 0, -0.00195312, -0.00683594, 0.395508, -9.72461, 1.28.2022 18:43:16.081
443, 2.23721, 0.237722, 184.642, -0.000976562, 0, 0, -0.0966797, 0.392578, -9.7207, 1.28.2022 18:43:16.089
444, 2.23721, 0.237722, 184.642, 0, 0, -0.00195312, -0.0332031, 0.376953, -9.74414, 1.28.2022 18:43:16.097
445, 2.23721, 0.237722, 184.642, 0, -0.00195312, -0.00195312, -0.0107422, 0.394531, -9.70801, 1.28.2022 18:43:16.105
446, 2.23721, 0.237722, 184.642, -0.000976562, -0.00195312, -0.00195312, -0.09375, 0.392578, -9.69531, 1.28.2022 18:43:16.113
447, 2.23721, 0.237722, 184.642, 0, -0.00195312, -0.00195312, -0.0214844, 0.345703, -9.7334, 1.28.2022 18:43:16.121
448, 2.23721, 0.237722, 184.642, -0.000976562, 0, 0, -0.046875, 0.374023, -9.73145, 1.28.2022 18:43:16.129
449, 2.23721, 0.237722, 184.642, -0.000976562, 0.000976562, 0, -0.0722656, 0.40625, -9.67871, 1.28.2022 18:43:16.137
450, 2.23721, 0.237722, 184.642, 0, 0, 0, 0.0078125, 0.358398, -9.69531, 1.28.2022 18:43:16.145
451, 2.23721, 0.237722, 184.642, -0.000976562, 0, 0, -0.0605469, 0.399414, -9.69531, 1.28.2022 18:43:16.153
452, 2.23721, 0.237722, 184.642, -0.00195312, 0, 0, -0.0439453, 0.389648, -9.68652, 1.28.2022 18:43:16.161
453, 2.23721, 0.237722, 184.642, 0, 0.000976562, 0, -0.0302734, 0.376953, -9.7373, 1.28.2022 18:43:16.169
454, 2.23721, 0.237722, 184.642, -0.000976562, 0, 0, -0.0996094, 0.385742, -9.70703, 1.28.2022 18:43:16.177
455, 2.23693, 0.244709, 184.642, 0, 0, -0.00195312, 0.0205078, 0.373047, -9.70703, 1.28.2022 18:43:16.185
456, 2.23693, 0.244709, 184.642, -0.000976562, 0.000976562, -0.000976562, 0.00292969, 0.368164, -9.71191, 1.28.2022 18:43:16.193
457, 2.23693, 0.244709, 184.642, 0, 0, 0, -0.0683594, 0.395508, -9.7168, 1.28.2022 18:43:16.201
458, 2.23693, 0.244709, 184.642, -0.000976562, 0, -0.00195312, 0.0458984, 0.347656, -9.73633, 1.28.2022 18:43:16.209
459, 2.23693, 0.244709, 184.642, -0.000976562, 0.000976562, 0, -0.0898438, 0.40918, -9.70703, 1.28.2022 18:43:16.217
460, 2.2442, 0.238005, 184.642, -0.000976562, 0, 0, -0.0351562, 0.374023, -9.72949, 1.28.2022 18:43:16.225
461, 2.2442, 0.238005, 184.642, -0.000976562, 0, 0, -0.015625, 0.353516, -9.7002, 1.28.2022 18:43:16.233
462, 2.2442, 0.238005, 184.642, -0.000976562, -0.00195312, 0, -0.0712891, 0.369141, -9.72656, 1.28.2022 18:43:16.241
463, 2.2442, 0.238005, 184.642, -0.000976562, 0, -0.00195312, 0.00585938, 0.380859, -9.70703, 1.28.2022 18:43:16.249
464, 2.2442, 0.238005, 184.642, -0.000976562, 0, 0, -0.0292969, 0.348633, -9.66895, 1.28.2022 18:43:16.257
465, 2.2442, 0.238005, 184.642, -0.000976562, 0, 0, -0.0751953, 0.375977, -9.70508, 1.28.2022 18:43:16.265
466, 2.2442, 0.238005, 184.642, -0.000976562, -0.00195312, 0, -0.00585938, 0.37793, -9.7041, 1.28.2022 18:43:16.273
467, 2.2442, 0.238005, 184.642, 0, -0.00195312, 0, -0.0761719, 0.386719, -9.74805, 1.28.2022 18:43:16.281
468, 2.23721, 0.237722, 184.642, 0, 0, 0, -0.0439453, 0.404297, -9.69336, 1.28.2022 18:43:16.289
469, 2.23721, 0.237722, 184.642, 0, 0, 0, 0.0244141, 0.361328, -9.71484, 1.28.2022 18:43:16.297
470, 2.23721, 0.237722, 184.642, 0, 0, 0, -0.0771484, 0.398438, -9.67383, 1.28.2022 18:43:16.305
471, 2.23721, 0.237722, 184.642, 0, 0, 0, -0.0136719, 0.37793, -9.70898, 1.28.2022 18:43:16.313
472, 2.23721, 0.237722, 184.642, 0, -0.00195312, 0, -0.0400391, 0.382812, -9.71777, 1.28.2022 18:43:16.321
473, 2.23721, 0.237722, 184.642, 0, 0, 0, -0.0771484, 0.401367, -9.69238, 1.28.2022 18:43:16.329
474, 2.23721, 0.237722, 184.642, 0, 0.000976562, 0, 0.00390625, 0.370117, -9.68066, 1.28.2022 18:43:16.337
475, 2.23721, 0.237722, 184.642, -0.000976562, 0, -0.000976562, -0.0605469, 0.375, -9.68945, 1.28.2022 18:43:16.345
476, 2.2375, 0.230735, 184.642, -0.00195312, 0.000976562, 0, -0.0595703, 0.383789, -9.75293, 1.28.2022 18:43:16.353
477, 2.2375, 0.230735, 184.642, -0.000976562, 0, 0.000976562, -0.0205078, 0.380859, -9.72949, 1.28.2022 18:43:16.361
478, 2.2375, 0.230735, 184.642, -0.000976562, -0.00195312, 0.000976562, -0.116211, 0.382812, -9.7002, 1.28.2022 18:43:16.369
479, 2.2375, 0.230735, 184.642, -0.000976562, -0.00195312, 0, -0.0302734, 0.368164, -9.70898, 1.28.2022 18:43:16.377
480, 2.2375, 0.230735, 184.642, -0.000976562, 0, 0, -0.0371094, 0.366211, -9.7041, 1.28.2022 18:43:16.385
481, 2.2375, 0.230735, 184.642, -0.000976562, -0.00195312, -0.000976562, -0.0712891, 0.388672, -9.72363, 1.28.2022 18:43:16.393
482, 2.23721, 0.237722, 184.642, -0.000976562, -0.00195312, -0.000976562, 0.0234375, 0.353516, -9.77148, 1.28.2022 18:43:16.401
483, 2.23721, 0.237722, 184.642, -0.000976562, -0.00195312, -0.000976562, -0.0683594, 0.347656, -9.7207, 1.28.2022 18:43:16.409
484, 2.23721, 0.237722, 184.642, -0.000976562, 0, 0, -0.0429688, 0.388672, -9.74316, 1.28.2022 18:43:16.417
485, 2.23721, 0.237722, 184.642, -0.000976562, -0.00195312, 0.000976562, -0.015625, 0.399414, -9.70605, 1.28.2022 18:43:16.425
486, 2.23721, 0.237722, 184.642, 0, 0, 0, -0.0898438, 0.405273, -9.71582, 1.28.2022 18:43:16.433
487, 2.23721, 0.237722, 184.642, 0, 0, 0, -0.0126953, 0.373047, -9.69434, 1.28.2022 18:43:16.441
488, 2.23721, 0.237722, 184.642, 0, 0.000976562, 0, -0.0615234, 0.337891, -9.73047, 1.28.2022 18:43:16.449
489, 2.23721, 0.237722, 184.642, 0, 0, 0, -0.103516, 0.416016, -9.70605, 1.28.2022 18:43:16.455
490, 2.23721, 0.237722, 184.642, 0, 0, 0, -0.0107422, 0.354492, -9.70703, 1.28.2022 18:43:16.463
491, 2.23721, 0.237722, 184.642, -0.000976562, 0, 0, -0.0634766, 0.385742, -9.7334, 1.28.2022 18:43:16.471
492, 2.23721, 0.237722, 184.642, 0, 0, 0, -0.0634766, 0.394531, -9.68652, 1.28.2022 18:43:16.479
493, 2.23721, 0.237722, 184.642, -0.000976562, 0, 0, -0.00585938, 0.371094, -9.7041, 1.28.2022 18:43:16.487
494, 2.23721, 0.237722, 184.642, 0, 0, 0, -0.0732422, 0.389648, -9.70312, 1.28.2022 18:43:16.495
495, 2.23721, 0.237722, 184.642, 0, 0, 0, -0.0234375, 0.393555, -9.75098, 1.28.2022 18:43:16.503
496, 2.23693, 0.244709, 184.642, -0.00195312, 0, 0, -0.0273438, 0.361328, -9.7041, 1.28.2022 18:43:16.511
497, 2.23693, 0.244709, 184.642, -0.000976562, -0.00195312, 0, -0.0683594, 0.423828, -9.72754, 1.28.2022 18:43:16.519
498, 2.23693, 0.244709, 184.642, -0.000976562, 0, 0, 0.000976562, 0.384766, -9.70898, 1.28.2022 18:43:16.527
499, 2.23693, 0.244709, 184.642, 0, 0.000976562, -0.000976562, -0.0419922, 0.375977, -9.70605, 1.28.2022 18:43:16.535
500, 2.23693, 0.244709, 184.642, 0, 0.000976562, 0, -0.0517578, 0.385742, -9.73633, 1.28.2022 18:43:16.543
501, 2.23693, 0.244709, 184.642, -0.000976562, -0.00195312, 0, -0.0234375, 0.354492, -9.72559, 1.28.2022 18:43:16.551
502, 2.23693, 0.244709, 184.642, -0.00195312, -0.00195312, -0.000976562, -0.0898438, 0.397461, -9.70703, 1.28.2022 18:43:16.559
503, 2.23693, 0.244709, 184.642, 0, 0, 0, -0.0585938, 0.370117, -9.68262, 1.28.2022 18:43:16.567
504, 2.23693, 0.244709, 184.642, 0, -0.00195312, 0, -0.0273438, 0.392578, -9.70312, 1.28.2022 18:43:16.575
505, 2.23693, 0.244709, 184.642, -0.000976562, 0, 0, -0.0966797, 0.414062, -9.71582, 1.28.2022 18:43:16.583
506, 2.23665, 0.251697, 184.642, -0.000976562, -0.000976562, 0, -0.00195312, 0.362305, -9.72852, 1.28.2022 18:43:16.591
507, 2.23665, 0.251697, 184.642, -0.000976562, -0.000976562, 0.000976562, -0.0498047, 0.388672, -9.73145, 1.28.2022 18:43:16.599
508, 2.23665, 0.251697, 184.642, -0.000976562, 0, 0, -0.0732422, 0.397461, -9.72852, 1.28.2022 18:43:16.607
509, 2.23665, 0.251697, 184.642, 0, 0, 0, 0.0166016, 0.381836, -9.74219, 1.28.2022 18:43:16.615
510, 2.23665, 0.251697, 184.642, -0.000976562, 0.000976562, -0.000976562, -0.0996094, 0.393555, -9.73047, 1.28.2022 18:43:16.623
511, 2.24363, 0.25198, 184.642, 0, 0, 0, -0.0488281, 0.366211, -9.71094, 1.28.2022 18:43:16.631
512, 2.24363, 0.25198, 184.642, 0, 0, 0, 0.000976562, 0.364258, -9.7168, 1.28.2022 18:43:16.639
513, 2.24363, 0.25198, 184.642, -0.000976562, -0.000976562, 0.000976562, -0.101562, 0.388672, -9.72852, 1.28.2022 18:43:16.647
514, 2.24363, 0.25198, 184.642, -0.000976562, -0.000976562, 0.000976562, -0.00488281, 0.375, -9.75391, 1.28.2022 18:43:16.655
515, 2.24363, 0.25198, 184.642, -0.000976562, 0, 0.000976562, -0.0400391, 0.363281, -9.70605, 1.28.2022 18:43:16.663
516, 2.24338, 0.25883, 184.634, -0.000976562, 0, 0, -0.0654297, 0.367188, -9.66797, 1.28.2022 18:43:16.671
517, 2.24338, 0.25883, 184.634, 0, -0.000976562, 0, -0.00878906, 0.352539, -9.74023, 1.28.2022 18:43:16.679
518, 2.24338, 0.25883, 184.634, -0.000976562, 0, 0, -0.101562, 0.367188, -9.72656, 1.28.2022 18:43:16.687
519, 2.24338, 0.25883, 184.634, 0, 0, 0, -0.0380859, 0.385742, -9.73926, 1.28.2022 18:43:16.695
520, 2.24338, 0.25883, 184.634, -0.000976562, 0, 0, -0.0302734, 0.358398, -9.69727, 1.28.2022 18:43:16.703
521, 2.24338, 0.25883, 184.634, -0.000976562, 0, 0, -0.0830078, 0.398438, -9.73047, 1.28.2022 18:43:16.711
522, 2.24338, 0.25883, 184.634, 0, 0, 0, -0.0224609, 0.376953, -9.67578, 1.28.2022 18:43:16.719
523, 2.24338, 0.25883, 184.634, 0.000976562, 0, 0, -0.0371094, 0.373047, -9.70605, 1.28.2022 18:43:16.727
524, 2.2364, 0.258547, 184.634, 0, 0, 0, -0.0693359, 0.386719, -9.75, 1.28.2022 18:43:16.735
525, 2.2364, 0.258547, 184.634, -0.000976562, 0, -0.000976562, -0.00195312, 0.374023, -9.72754, 1.28.2022 18:43:16.743
526, 2.23636, 0.258684, 184.641, -0.000976562, -0.000976562, -0.00195312, -0.0869141, 0.399414, -9.7041, 1.28.2022 18:43:16.751
527, 2.23636, 0.258684, 184.641, 0, -0.000976562, -0.00195312, -0.0419922, 0.375977, -9.72949, 1.28.2022 18:43:16.759
528, 2.23608, 0.265671, 184.641, -0.000976562, -0.000976562, 0, 0.0078125, 0.368164, -9.70215, 1.28.2022 18:43:16.767
529, 2.23608, 0.265671, 184.641, -0.000976562, 0, 0.000976562, -0.0947266, 0.391602, -9.74219, 1.28.2022 18:43:16.775
530, 2.23608, 0.265671, 184.641, -0.000976562, 0, 0, -0.0117188, 0.391602, -9.76074, 1.28.2022 18:43:16.783
531, 2.23608, 0.265671, 184.641, 0, -0.000976562, -0.00195312, -0.0234375, 0.374023, -9.71582, 1.28.2022 18:43:16.791
532, 2.23608, 0.265671, 184.641, -0.000976562, -0.000976562, 0, -0.0751953, 0.399414, -9.70703, 1.28.2022 18:43:16.799
533, 2.23608, 0.265671, 184.641, -0.000976562, 0, 0, 0.0224609, 0.364258, -9.7168, 1.28.2022 18:43:16.807
534, 2.23608, 0.265671, 184.641, -0.000976562, -0.000976562, 0, -0.0615234, 0.400391, -9.74316, 1.28.2022 18:43:16.815
535, 2.23608, 0.265671, 184.641, -0.000976562, 0, 0, -0.0390625, 0.389648, -9.69336, 1.28.2022 18:43:16.823
536, 2.23608, 0.265671, 184.641, -0.000976562, 0, 0, -0.0195312, 0.375, -9.67285, 1.28.2022 18:43:16.831
537, 2.23608, 0.265671, 184.641, -0.000976562, 0, 0, -0.108398, 0.395508, -9.71191, 1.28.2022 18:43:16.839
538, 2.23608, 0.265671, 184.641, -0.000976562, -0.000976562, 0.000976562, -0.0234375, 0.382812, -9.7207, 1.28.2022 18:43:16.847
539, 2.23608, 0.265671, 184.641, -0.000976562, 0, -0.000976562, -0.0537109, 0.375, -9.68945, 1.28.2022 18:43:16.855
540, 2.23608, 0.265671, 184.641, -0.000976562, 0.000976562, 0, -0.0898438, 0.391602, -9.74219, 1.28.2022 18:43:16.863
541, 2.23608, 0.265671, 184.641, -0.00195312, 0, 0, -0.00390625, 0.354492, -9.72559, 1.28.2022 18:43:16.871
542, 2.24335, 0.258968, 184.641, -0.000976562, 0.000976562, 0, -0.0830078, 0.369141, -9.73633, 1.28.2022 18:43:16.879
543, 2.24335, 0.258968, 184.641, -0.000976562, 0, -0.000976562, -0.0302734, 0.379883, -9.69434, 1.28.2022 18:43:16.887
544, 2.24335, 0.258968, 184.641, 0, 0, -0.00195312, -0.000976562, 0.351562, -9.69824, 1.28.2022 18:43:16.895
545, 2.24335, 0.258968, 184.641, 0, 0, -0.000976562, -0.108398, 0.416016, -9.69629, 1.28.2022 18:43:16.903
546, 2.24335, 0.258968, 184.641, -0.000976562, 0, -0.000976562, -0.0283203, 0.395508, -9.72949, 1.28.2022 18:43:16.911
547, 2.24335, 0.258968, 184.641, 0, 0, -0.000976562, -0.0351562, 0.383789, -9.73633, 1.28.2022 18:43:16.919
548, 2.24335, 0.258968, 184.641, 0, -0.000976562, -0.000976562, -0.0830078, 0.407227, -9.72852, 1.28.2022 18:43:16.927
549, 2.24335, 0.258968, 184.641, -0.000976562, 0, -0.000976562, 0.00585938, 0.356445, -9.69531, 1.28.2022 18:43:16.935
550, 2.24335, 0.258968, 184.641, 0.000976562, 0, -0.000976562, -0.0615234, 0.374023, -9.73828, 1.28.2022 18:43:16.943
551, 2.23636, 0.258684, 184.641, 0.000976562, 0, -0.000976562, -0.0585938, 0.397461, -9.72656, 1.28.2022 18:43:16.951
552, 2.23636, 0.258684, 184.641, -0.000976562, 0, -0.000976562, -0.0175781, 0.358398, -9.7002, 1.28.2022 18:43:16.959
553, 2.23608, 0.265671, 184.641, 0, -0.000976562, -0.000976562, -0.121094, 0.400391, -9.7207, 1.28.2022 18:43:16.967
554, 2.24306, 0.265955, 184.641, -0.000976562, -0.000976562, -0.00195312, -0.0185547, 0.37207, -9.73438, 1.28.2022 18:43:16.975
555, 2.24306, 0.265955, 184.641, -0.000976562, -0.000976562, -0.000976562, -0.0322266, 0.375977, -9.71094, 1.28.2022 18:43:16.983
556, 2.24306, 0.265955, 184.641, -0.000976562, 0, -0.00195312, -0.0849609, 0.399414, -9.69043, 1.28.2022 18:43:16.991
557, 2.24306, 0.265955, 184.641, -0.000976562, 0.000976562, 0, 0.00292969, 0.356445, -9.70996, 1.28.2022 18:43:16.999
558, 2.24306, 0.265955, 184.641, -0.000976562, 0.000976562, 0, -0.0263672, 0.395508, -9.74609, 1.28.2022 18:43:17.007
559, 2.24306, 0.265955, 184.641, -0.000976562, 0.000976562, 0.000976562, -0.0380859, 0.400391, -9.74121, 1.28.2022 18:43:17.015
560, 2.24306, 0.265955, 184.641, -0.000976562, 0.000976562, 0, 0.0078125, 0.352539, -9.72363, 1.28.2022 18:43:17.023
561, 2.24335, 0.258968, 184.641, -0.000976562, 0.000976562, 0, -0.0800781, 0.384766, -9.70312, 1.28.2022 18:43:17.031
562, 2.24335, 0.258968, 184.641, 0, 0.000976562, 0.000976562, -0.0585938, 0.359375, -9.70605, 1.28.2022 18:43:17.039
563, 2.24335, 0.258968, 184.641, -0.000976562, 0.000976562, -0.00195312, -0.0566406, 0.375977, -9.71777, 1.28.2022 18:43:17.047
564, 2.24335, 0.258968, 184.641, -0.00195312, 0, 0, -0.0751953, 0.399414, -9.71191, 1.28.2022 18:43:17.055
565, 2.24335, 0.258968, 184.641, -0.000976562, 0, 0.000976562, 0.00292969, 0.366211, -9.72559, 1.28.2022 18:43:17.063
566, 2.24335, 0.258968, 184.641, 0, 0, -0.000976562, -0.0605469, 0.387695, -9.69629, 1.28.2022 18:43:17.071
567, 2.24335, 0.258968, 184.641, 0, 0, -0.000976562, -0.046875, 0.398438, -9.73633, 1.28.2022 18:43:17.079
568, 2.24335, 0.258968, 184.641, 0, 0.000976562, 0, 0.0146484, 0.344727, -9.72461, 1.28.2022 18:43:17.087
569, 2.24335, 0.258968, 184.641, -0.000976562, 0, -0.000976562, -0.0917969, 0.375, -9.69336, 1.28.2022 18:43:17.095
570, 2.24335, 0.258968, 184.641, 0, -0.000976562, -0.00195312, -0.0302734, 0.368164, -9.7041, 1.28.2022 18:43:17.103
571, 2.24335, 0.258968, 184.641, 0, -0.000976562, -0.00195312, -0.0107422, 0.361328, -9.69727, 1.28.2022 18:43:17.111
572, 2.24335, 0.258968, 184.641, 0, -0.00195312, 0, -0.0703125, 0.375977, -9.71973, 1.28.2022 18:43:17.119
573, 2.24335, 0.258968, 184.641, 0, -0.00195312, -0.00195312, 0.0263672, 0.354492, -9.73633, 1.28.2022 18:43:17.127
574, 2.23636, 0.258684, 184.641, -0.000976562, -0.000976562, 0, -0.0400391, 0.369141, -9.71289, 1.28.2022 18:43:17.135
575, 2.23636, 0.258684, 184.641, -0.000976562, -0.00195312, -0.00195312, -0.0585938, 0.397461, -9.71191, 1.28.2022 18:43:17.143
576, 2.23636, 0.258684, 184.641, -0.000976562, -0.000976562, 0, -0.00390625, 0.373047, -9.7041, 1.28.2022 18:43:17.151
577, 2.23636, 0.258684, 184.641, -0.000976562, -0.000976562, 0, -0.0732422, 0.392578, -9.70996, 1.28.2022 18:43:17.159
578, 2.23636, 0.258684, 184.641, -0.000976562, -0.000976562, 0.000976562, -0.0449219, 0.376953, -9.74121, 1.28.2022 18:43:17.167
579, 2.23636, 0.258684, 184.641, -0.000976562, -0.000976562, 0.000976562, -0.00683594, 0.369141, -9.74023, 1.28.2022 18:43:17.175
580, 2.23636, 0.258684, 184.641, -0.000976562, -0.000976562, 0, -0.0664062, 0.387695, -9.71973, 1.28.2022 18:43:17.183
581, 2.23665, 0.251697, 184.642, -0.000976562, -0.000976562, -0.00195312, 0.0107422, 0.368164, -9.70215, 1.28.2022 18:43:17.191
582, 2.23665, 0.251697, 184.642, 0.000976562, 0, 0, -0.0283203, 0.359375, -9.72754, 1.28.2022 18:43:17.199
583, 2.23665, 0.251697, 184.642, 0, 0, 0, -0.0595703, 0.401367, -9.75195, 1.28.2022 18:43:17.207
584, 2.23665, 0.251697, 184.642, 0, -0.000976562, -0.00195312, 0.0078125, 0.382812, -9.7041, 1.28.2022 18:43:17.215
585, 2.22967, 0.251413, 184.642, -0.000976562, -0.00195312, 0, -0.0898438, 0.394531, -9.69531, 1.28.2022 18:43:17.223
586, 2.22967, 0.251413, 184.642, 0, -0.000976562, 0, -0.0537109, 0.407227, -9.72363, 1.28.2022 18:43:17.231
587, 2.22967, 0.251413, 184.642, 0, -0.000976562, 0, -0.0253906, 0.361328, -9.71094, 1.28.2022 18:43:17.239
588, 2.22995, 0.244426, 184.642, 0, -0.000976562, 0.000976562, -0.0878906, 0.405273, -9.7373, 1.28.2022 18:43:17.247
589, 2.22995, 0.244426, 184.642, 0, -0.000976562, -0.00195312, 0.00878906, 0.370117, -9.69238, 1.28.2022 18:43:17.255
590, 2.22995, 0.244426, 184.642, -0.000976562, -0.000976562, -0.00195312, -0.0566406, 0.400391, -9.74707, 1.28.2022 18:43:17.263
591, 2.22995, 0.244426, 184.642, -0.000976562, -0.000976562, 0, -0.0537109, 0.397461, -9.70508, 1.28.2022 18:43:17.271
592, 2.22995, 0.244426, 184.642, -0.000976562, -0.000976562, 0, 0.0205078, 0.370117, -9.69531, 1.28.2022 18:43:17.279
593, 2.22995, 0.244426, 184.642, 0, -0.00195312, -0.00195312, -0.0751953, 0.387695, -9.70312, 1.28.2022 18:43:17.287
594, 2.22995, 0.244426, 184.642, 0, -0.00195312, 0, -0.0585938, 0.373047, -9.70117, 1.28.2022 18:43:17.295
595, 2.22995, 0.244426, 184.642, -0.000976562, -0.000976562, 0, -0.0224609, 0.370117, -9.68945, 1.28.2022 18:43:17.303
596, 2.22995, 0.244426, 184.642, -0.000976562, -0.00195312, -0.00195312, -0.115234, 0.402344, -9.69727, 1.28.2022 18:43:17.311
597, 2.23693, 0.244709, 184.642, -0.000976562, -0.000976562, 0, -0.0253906, 0.366211, -9.69922, 1.28.2022 18:43:17.319
598, 2.23693, 0.244709, 184.642, 0, -0.000976562, 0, -0.0175781, 0.386719, -9.68457, 1.28.2022 18:43:17.327
599, 2.23693, 0.244709, 184.642, 0, -0.000976562, 0, -0.0332031, 0.405273, -9.7334, 1.28.2022 18:43:17.335
600, 2.23693, 0.244709, 184.642, -0.000976562, -0.000976562, -0.00195312, 0.0078125, 0.382812, -9.72266, 1.28.2022 18:43:17.343
601, 2.23693, 0.244709, 184.642, -0.000976562, -0.00195312, -0.00195312, -0.0439453, 0.373047, -9.69629, 1.28.2022 18:43:17.351
602, 2.23693, 0.244709, 184.642, 0, 0, 0, -0.0332031, 0.378906, -9.72754, 1.28.2022 18:43:17.359
603, 2.23693, 0.244709, 184.642, 0, 0, 0, -0.0283203, 0.367188, -9.75098, 1.28.2022 18:43:17.367
604, 2.23693, 0.244709, 184.642, 0, -0.000976562, 0, -0.106445, 0.402344, -9.7207, 1.28.2022 18:43:17.375
605, 2.23693, 0.244709, 184.642, -0.000976562, 0, 0.000976562, -0.0107422, 0.365234, -9.68066, 1.28.2022 18:43:17.383
606, 2.23693, 0.244709, 184.642, -0.000976562, 0, 0, -0.0537109, 0.381836, -9.68164, 1.28.2022 18:43:17.391
607, 2.23693, 0.244709, 184.642, 0.000976562, 0, 0, -0.0898438, 0.373047, -9.70508, 1.28.2022 18:43:17.399
608, 2.23721, 0.237722, 184.642, 0, 0.000976562, 0, 0.0078125, 0.34082, -9.74121, 1.28.2022 18:43:17.407
609, 2.23721, 0.237722, 184.642, 0, 0, 0, -0.0322266, 0.354492, -9.71582, 1.28.2022 18:43:17.415
610, 2.23721, 0.237722, 184.642, 0, 0, -0.000976562, -0.0400391, 0.376953, -9.76074, 1.28.2022 18:43:17.421
611, 2.23721, 0.237722, 184.642, 0, 0, 0, -0.0234375, 0.371094, -9.72266, 1.28.2022 18:43:17.429
612, 2.23721, 0.237722, 184.642, -0.000976562, 0, 0, -0.119141, 0.393555, -9.73242, 1.28.2022 18:43:17.437
613, 2.23721, 0.237722, 184.642, -0.00195312, 0, -0.000976562, -0.0205078, 0.366211, -9.70215, 1.28.2022 18:43:17.445
614, 2.23721, 0.237722, 184.642, -0.000976562, 0, 0.000976562, -0.0224609, 0.358398, -9.69727, 1.28.2022 18:43:17.453
615, 2.23721, 0.237722, 184.642, -0.000976562, 0, 0.000976562, -0.0849609, 0.395508, -9.72168, 1.28.2022 18:43:17.461
616, 2.23721, 0.237722, 184.642, -0.000976562, -0.000976562, 0, 0.00488281, 0.365234, -9.75195, 1.28.2022 18:43:17.469
617, 2.23721, 0.237722, 184.642, -0.000976562, -0.000976562, 0, -0.046875, 0.371094, -9.71094, 1.28.2022 18:43:17.477
618, 2.23721, 0.237722, 184.642, -0.000976562, 0, 0, -0.0751953, 0.385742, -9.72363, 1.28.2022 18:43:17.485
619, 2.23721, 0.237722, 184.642, 0, 0, 0.000976562, -0.0302734, 0.341797, -9.70508, 1.28.2022 18:43:17.493
620, 2.23693, 0.244709, 184.642, 0.000976562, 0, 0.000976562, -0.106445, 0.399414, -9.7041, 1.28.2022 18:43:17.501
621, 2.23693, 0.244709, 184.642, 0.000976562, 0, 0, -0.0244141, 0.367188, -9.67773, 1.28.2022 18:43:17.509
622, 2.22995, 0.244426, 184.642, 0, 0, 0, -0.0322266, 0.375, -9.69922, 1.28.2022 18:43:17.517
623, 2.22995, 0.244426, 184.642, 0, 0, -0.000976562, -0.0751953, 0.378906, -9.72461, 1.28.2022 18:43:17.525
624, 2.22995, 0.244426, 184.642, 0, -0.000976562, 0, 0.000976562, 0.369141, -9.71582, 1.28.2022 18:43:17.533
625, 2.22995, 0.244426, 184.642, -0.000976562, 0, 0, -0.0517578, 0.376953, -9.73633, 1.28.2022 18:43:17.541
626, 2.22995, 0.244426, 184.642, 0, 0, 0, -0.0517578, 0.385742, -9.70508, 1.28.2022 18:43:17.549
627, 2.22995, 0.244426, 184.642, -0.000976562, 0, 0, -0.015625, 0.37793, -9.7041, 1.28.2022 18:43:17.557
628, 2.22995, 0.244426, 184.642, -0.000976562, 0, -0.000976562, -0.106445, 0.393555, -9.74023, 1.28.2022 18:43:17.565
629, 2.22995, 0.244426, 184.642, -0.000976562, -0.000976562, 0.000976562, -0.0439453, 0.390625, -9.70996, 1.28.2022 18:43:17.573
630, 2.22998, 0.244289, 184.635, 0, 0.000976562, 0.000976562, -0.0302734, 0.366211, -9.70898, 1.28.2022 18:43:17.581
631, 2.2297, 0.251277, 184.635, -0.000976562, 0, 0, -0.107422, 0.388672, -9.66016, 1.28.2022 18:43:17.589
632, 2.2297, 0.251277, 184.635, -0.000976562, 0.000976562, 0, 0.0078125, 0.375977, -9.71387, 1.28.2022 18:43:17.597
633, 2.2297, 0.251277, 184.635, -0.000976562, 0, 0.000976562, -0.046875, 0.391602, -9.74316, 1.28.2022 18:43:17.605
634, 2.2297, 0.251277, 184.635, -0.000976562, 0, -0.000976562, -0.0712891, 0.388672, -9.75488, 1.28.2022 18:43:17.613
635, 2.2297, 0.251277, 184.635, -0.00195312, 0, -0.000976562, -0.0283203, 0.357422, -9.73242, 1.28.2022 18:43:17.621
636, 2.2297, 0.251277, 184.635, -0.000976562, -0.000976562, -0.00195312, -0.101562, 0.390625, -9.71387, 1.28.2022 18:43:17.629
637, 2.2297, 0.251277, 184.635, -0.000976562, -0.000976562, -0.00195312, -0.0498047, 0.421875, -9.72363, 1.28.2022 18:43:17.637
638, 2.22938, 0.258401, 184.641, 0, 0, -0.000976562, -0.0136719, 0.370117, -9.69727, 1.28.2022 18:43:17.645
639, 2.22938, 0.258401, 184.641, 0, -0.000976562, -0.00195312, -0.0800781, 0.393555, -9.72656, 1.28.2022 18:43:17.653
640, 2.22938, 0.258401, 184.641, 0, 0, -0.00195312, 0.00488281, 0.367188, -9.73047, 1.28.2022 18:43:17.661
641, 2.22938, 0.258401, 184.641, 0, 0, -0.000976562, -0.0351562, 0.37793, -9.71094, 1.28.2022 18:43:17.669
642, 2.22938, 0.258401, 184.641, 0, 0, -0.000976562, -0.0800781, 0.380859, -9.72656, 1.28.2022 18:43:17.677
643, 2.22938, 0.258401, 184.641, 0, 0, -0.00195312, -0.00195312, 0.362305, -9.7334, 1.28.2022 18:43:17.685
644, 2.22938, 0.258401, 184.641, -0.000976562, 0, -0.00195312, -0.0966797, 0.363281, -9.6748, 1.28.2022 18:43:17.693
645, 2.2291, 0.265388, 184.641, 0, 0, -0.000976562, -0.0419922, 0.351562, -9.69922, 1.28.2022 18:43:17.701
646, 2.2291, 0.265388, 184.641, -0.000976562, 0, -0.000976562, 0, 0.347656, -9.74316, 1.28.2022 18:43:17.709
647, 2.2291, 0.265388, 184.641, -0.000976562, 0, 0, -0.0751953, 0.397461, -9.70703, 1.28.2022 18:43:17.717
648, 2.2291, 0.265388, 184.641, -0.000976562, 0, -0.000976562, -0.0253906, 0.380859, -9.71094, 1.28.2022 18:43:17.725
649, 2.2291, 0.265388, 184.641, -0.000976562, 0, -0.000976562, -0.0449219, 0.354492, -9.73242, 1.28.2022 18:43:17.733
650, 2.2291, 0.265388, 184.641, -0.00195312, 0, -0.000976562, -0.0654297, 0.371094, -9.70605, 1.28.2022 18:43:17.741
651, 2.2291, 0.265388, 184.641, -0.000976562, -0.00195312, -0.000976562, -0.00390625, 0.351562, -9.70215, 1.28.2022 18:43:17.749
652, 2.2291, 0.265388, 184.641, 0, 0, 0, -0.0849609, 0.383789, -9.7334, 1.28.2022 18:43:17.757
653, 2.2291, 0.265388, 184.641, 0, 0.000976562, -0.000976562, -0.0371094, 0.395508, -9.71484, 1.28.2022 18:43:17.765
654, 2.2291, 0.265388, 184.641, 0, 0.000976562, -0.000976562, -0.0371094, 0.378906, -9.71973, 1.28.2022 18:43:17.773
655, 2.2291, 0.265388, 184.641, 0, 0, -0.00195312, -0.0878906, 0.393555, -9.73047, 1.28.2022 18:43:17.781
656, 2.2291, 0.265388, 184.641, -0.000976562, 0, -0.000976562, 0.00585938, 0.366211, -9.71387, 1.28.2022 18:43:17.789
657, 2.2291, 0.265388, 184.641, -0.000976562, 0, -0.000976562, -0.0712891, 0.370117, -9.75977, 1.28.2022 18:43:17.797
658, 2.2291, 0.265388, 184.641, -0.000976562, 0, -0.000976562, -0.0849609, 0.394531, -9.70703, 1.28.2022 18:43:17.805
659, 2.2291, 0.265388, 184.641, -0.000976562, 0, -0.00195312, 0.000976562, 0.356445, -9.69727, 1.28.2022 18:43:17.813
660, 2.2291, 0.265388, 184.641, -0.000976562, 0, -0.000976562, -0.0898438, 0.37793, -9.70312, 1.28.2022 18:43:17.821
661, 2.2291, 0.265388, 184.641, -0.000976562, 0, -0.000976562, -0.046875, 0.395508, -9.72461, 1.28.2022 18:43:17.829
662, 2.2291, 0.265388, 184.641, -0.000976562, 0, -0.000976562, -0.00390625, 0.360352, -9.69043, 1.28.2022 18:43:17.837
663, 2.22212, 0.265104, 184.641, -0.000976562, 0, -0.000976562, -0.0869141, 0.384766, -9.69336, 1.28.2022 18:43:17.845
664, 2.22212, 0.265104, 184.641, 0, 0, -0.00195312, -0.00390625, 0.380859, -9.71387, 1.28.2022 18:43:17.853
665, 2.22184, 0.272092, 184.641, -0.000976562, 0, -0.000976562, -0.0517578, 0.392578, -9.71973, 1.28.2022 18:43:17.861
666, 2.22184, 0.272092, 184.641, 0, 0, 0, -0.0751953, 0.371094, -9.71289, 1.28.2022 18:43:17.869
667, 2.22184, 0.272092, 184.641, 0, 0, 0, 0.0263672, 0.326172, -9.72949, 1.28.2022 18:43:17.877
668, 2.22184, 0.272092, 184.641, -0.000976562, 0, 0.000976562, -0.0830078, 0.362305, -9.72461, 1.28.2022 18:43:17.885
669, 2.22184, 0.272092, 184.641, 0, 0, 0.000976562, -0.046875, 0.387695, -9.71777, 1.28.2022 18:43:17.893
670, 2.22184, 0.272092, 184.641, -0.00195312, 0.000976562, 0.000976562, -0.0175781, 0.363281, -9.69238, 1.28.2022 18:43:17.901
671, 2.22184, 0.272092, 184.641, -0.000976562, 0, 0, -0.0898438, 0.418945, -9.69434, 1.28.2022 18:43:17.909
672, 2.22212, 0.265104, 184.641, -0.000976562, 0.000976562, 0, -0.0302734, 0.380859, -9.70605, 1.28.2022 18:43:17.917
673, 2.22212, 0.265104, 184.641, -0.000976562, 0.000976562, 0.000976562, -0.0751953, 0.366211, -9.71289, 1.28.2022 18:43:17.925
674, 2.22212, 0.265104, 184.641, 0, 0, 0.000976562, -0.0761719, 0.395508, -9.73047, 1.28.2022 18:43:17.933
675, 2.22212, 0.265104, 184.641, -0.000976562, 0, 0.000976562, 0.0175781, 0.375977, -9.73047, 1.28.2022 18:43:17.941
676, 2.22212, 0.265104, 184.641, 0, 0, 0.000976562, -0.0546875, 0.376953, -9.74805, 1.28.2022 18:43:17.949
677, 2.22215, 0.264968, 184.634, 0.000976562, 0, 0, -0.0585938, 0.389648, -9.70801, 1.28.2022 18:43:17.957
678, 2.22187, 0.271956, 184.634, 0, -0.00195312, 0, 0, 0.370117, -9.75391, 1.28.2022 18:43:17.965
679, 2.22187, 0.271956, 184.634, -0.000976562, -0.00195312, 0, -0.101562, 0.392578, -9.7168, 1.28.2022 18:43:17.973
680, 2.22187, 0.271956, 184.634, 0.000976562, -0.00195312, -0.000976562, -0.00878906, 0.380859, -9.73242, 1.28.2022 18:43:17.981
681, 2.22187, 0.271956, 184.634, -0.000976562, 0.000976562, 0, -0.0292969, 0.379883, -9.69141, 1.28.2022 18:43:17.989
682, 2.22187, 0.271956, 184.634, -0.00195312, 0, 0, -0.0634766, 0.371094, -9.72461, 1.28.2022 18:43:17.997
683, 2.22187, 0.271956, 184.634, -0.000976562, 0, 0, 0.0361328, 0.359375, -9.71484, 1.28.2022 18:43:18.005
684, 2.22187, 0.271956, 184.634, 0, 0, 0.000976562, -0.0498047, 0.374023, -9.72461, 1.28.2022 18:43:18.013
685, 2.22215, 0.264968, 184.634, 0, -0.00195312, 0.000976562, -0.0537109, 0.387695, -9.71973, 1.28.2022 18:43:18.021
686, 2.22215, 0.264968, 184.634, 0, 0, 0, -0.0214844, 0.37207, -9.74902, 1.28.2022 18:43:18.029
687, 2.22215, 0.264968, 184.634, 0, 0, 0, -0.0917969, 0.426758, -9.71777, 1.28.2022 18:43:18.037
688, 2.22215, 0.264968, 184.634, 0, 0, 0, -0.0634766, 0.385742, -9.72852, 1.28.2022 18:43:18.045
689, 2.22215, 0.264968, 184.634, 0, 0, 0, -0.0371094, 0.375977, -9.71094, 1.28.2022 18:43:18.053
690, 2.22215, 0.264968, 184.634, -0.000976562, 0, 0, -0.0371094, 0.402344, -9.72852, 1.28.2022 18:43:18.061
691, 2.22215, 0.264968, 184.634, -0.000976562, 0, 0, 0.0146484, 0.385742, -9.7207, 1.28.2022 18:43:18.069
692, 2.22215, 0.264968, 184.634, -0.000976562, 0, 0, -0.0761719, 0.365234, -9.75488, 1.28.2022 18:43:18.077
693, 2.22215, 0.264968, 184.634, -0.00195312, 0, 0, -0.0371094, 0.40918, -9.71191, 1.28.2022 18:43:18.085
694, 2.22215, 0.264968, 184.634, 0, 0, 0, 0.0986328, 0.362305, -9.83105, 1.28.2022 18:43:18.093
695, 2.22243, 0.257981, 184.634, -0.000976562, 0.00195312, 0, 0.139648, 0.381836, -9.68066, 1.28.2022 18:43:18.101
696, 2.22243, 0.257981, 184.634, 0, -0.00195312, -0.000976562, 0.0957031, 0.420898, -9.77344, 1.28.2022 18:43:18.109
697, 2.22942, 0.258264, 184.634, -0.000976562, 0.00195312, -0.000976562, 0.134766, 0.421875, -9.5752, 1.28.2022 18:43:18.117
698, 2.2297, 0.251277, 184.635, -0.00195312, 0.00195312, -0.000976562, 0.078125, 0.43457, -9.77441, 1.28.2022 18:43:18.125
699, 2.22998, 0.244289, 184.635, -0.000976562, 0.00390625, 0.000976562, 0.380859, 0.361328, -9.66602, 1.28.2022 18:43:18.133
700, 2.23055, 0.230315, 184.635, -0.000976562, -0.00195312, 0.000976562, 0.195312, 0.424805, -9.75293, 1.28.2022 18:43:18.141
701, 2.23083, 0.223327, 184.635, 0, 0.000976562, 0.00195312, 0.260742, 0.369141, -9.59277, 1.28.2022 18:43:18.149
702, 2.23838, 0.209636, 184.635, -0.000976562, -0.000976562, -0.000976562, 0.27832, 0.392578, -9.80957, 1.28.2022 18:43:18.157
703, 2.23894, 0.195661, 184.636, -0.000976562, 0.00390625, -0.00195312, 0.480469, 0.387695, -9.67578, 1.28.2022 18:43:18.165
704, 2.23979, 0.174699, 184.636, 0, -0.000976562, -0.00292969, 0.452148, 0.449219, -9.80664, 1.28.2022 18:43:18.173
705, 2.24064, 0.153737, 184.636, 0, 0.00292969, -0.00292969, 0.460938, 0.448242, -9.7002, 1.28.2022 18:43:18.181
706, 2.24149, 0.132775, 184.637, 0, 0.00390625, -0.00292969, 0.352539, 0.476562, -9.67871, 1.28.2022 18:43:18.189
707, 2.24262, 0.104826, 184.637, 0, 0.00390625, -0.000976562, 0.703125, 0.358398, -9.89746, 1.28.2022 18:43:18.197
708, 2.25101, 0.0701725, 184.638, -0.00195312, 0.00390625, -0.000976562, 0.71582, 0.416016, -9.5918, 1.28.2022 18:43:18.205
709, 2.25241, 0.0353736, 184.646, 0, -0.000976562, -0.000976562, 0.514648, 0.43457, -9.78418, 1.28.2022 18:43:18.213
710, 2.25411, 359.993, 184.647, -0.00195312, 0.00488281, -0.00195312, 0.6875, 0.425781, -9.58203, 1.28.2022 18:43:18.221
711, 2.26279, 359.952, 184.647, -0.000976562, -0.00195312, -0.00195312, 0.405273, 0.46582, -9.78418, 1.28.2022 18:43:18.229
712, 2.26477, 359.903, 184.648, -0.000976562, 0.00292969, -0.00195312, 0.777344, 0.393555, -9.7373, 1.28.2022 18:43:18.237
713, 2.26674, 359.854, 184.656, -0.000976562, 0.00292969, -0.00292969, 0.835938, 0.413086, -9.67383, 1.28.2022 18:43:18.245
714, 2.26873, 359.805, 184.657, 0.000976562, -0.000976562, -0.00488281, 0.669922, 0.446289, -9.89258, 1.28.2022 18:43:18.253
715, 2.27798, 359.75, 184.666, 0, 0.00488281, -0.00585938, 0.868164, 0.507812, -9.6416, 1.28.2022 18:43:18.261
716, 2.28053, 359.687, 184.667, 0.000976562, 0.00195312, -0.00488281, 0.714844, 0.481445, -9.77637, 1.28.2022 18:43:18.269
717, 2.28309, 359.624, 184.675, 0.000976562, 0.00488281, -0.00390625, 1.03906, 0.460938, -9.68555, 1.28.2022 18:43:18.277
718, 2.29335, 359.555, 184.683, -0.000976562, 0.00292969, -0.00292969, 0.974609, 0.438477, -9.64453, 1.28.2022 18:43:18.285
719, 2.29621, 359.485, 184.692, 0, 0.00292969, -0.00292969, 0.855469, 0.427734, -9.66699, 1.28.2022 18:43:18.293
720, 2.29907, 359.415, 184.693, 0, 0.00195312, -0.00195312, 0.9375, 0.40332, -9.74902, 1.28.2022 18:43:18.301
721, 2.30892, 359.346, 184.702, -0.000976562, 0.00195312, -0.00292969, 1.06738, 0.397461, -9.79199, 1.28.2022 18:43:18.309
722, 2.3121, 359.269, 184.71, -0.000976562, 0.00195312, -0.00585938, 1.07031, 0.410156, -9.65625, 1.28.2022 18:43:18.317
723, 2.31531, 359.192, 184.726, 0, -0.000976562, -0.0078125, 1.02539, 0.370117, -9.75586, 1.28.2022 18:43:18.325
724, 2.32548, 359.116, 184.735, -0.000976562, 0.00195312, -0.0117188, 1.03125, 0.418945, -9.5498, 1.28.2022 18:43:18.333
725, 2.32873, 359.039, 184.75, 0.000976562, -0.000976562, -0.0146484, 0.891602, 0.488281, -9.78125, 1.28.2022 18:43:18.341
726, 2.33242, 358.963, 184.766, 0.00195312, 0.00195312, -0.0175781, 1.16016, 0.519531, -9.5625, 1.28.2022 18:43:18.349
727, 2.33541, 358.893, 184.781, 0.00683594, -0.00195312, -0.0195312, 0.992188, 0.59668, -9.65039, 1.28.2022 18:43:18.357
728, 2.33115, 358.83, 184.797, 0.0117188, 0.00195312, -0.0205078, 1.10547, 0.553711, -9.67188, 1.28.2022 18:43:18.365
729, 2.33382, 358.768, 184.805, 0.015625, 0.00585938, -0.0214844, 1.1377, 0.53418, -9.73438, 1.28.2022 18:43:18.373
730, 2.32959, 358.705, 184.82, 0.0195312, 0.0136719, -0.0253906, 1.39453, 0.430664, -9.90234, 1.28.2022 18:43:18.381
731, 2.31815, 358.649, 184.842, 0.0214844, 0.0166016, -0.0302734, 1.375, 0.53418, -9.81445, 1.28.2022 18:43:18.389
732, 2.31438, 358.586, 184.857, 0.0214844, 0.0166016, -0.0322266, 1.19727, 0.519531, -9.88281, 1.28.2022 18:43:18.397
733, 2.30997, 358.53, 184.88, 0.0185547, 0.015625, -0.03125, 1.09863, 0.445312, -9.54297, 1.28.2022 18:43:18.403
734, 2.3052, 358.481, 184.895, 0.0136719, 0.00195312, -0.0283203, 1.08008, 0.248047, -9.60742, 1.28.2022 18:43:18.411
735, 2.30015, 358.439, 184.909, 0.00390625, -0.0078125, -0.0224609, 1.06738, 0.222656, -9.22266, 1.28.2022 18:43:18.419
736, 2.3087, 358.405, 184.917, -0.0078125, -0.0224609, -0.0166016, 0.952148, 0.143555, -9.54688, 1.28.2022 18:43:18.427
737, 2.31666, 358.384, 184.925, -0.0214844, -0.0322266, -0.0107422, 1.21191, -0.0615234, -9.41016, 1.28.2022 18:43:18.435
738, 2.33233, 358.357, 184.932, -0.03125, -0.0410156, -0.00878906, 0.994141, 0.0595703, -9.99805, 1.28.2022 18:43:18.443
739, 2.34697, 358.344, 184.94, -0.03125, -0.0302734, -0.0117188, 1.34375, 0.0810547, -9.79102, 1.28.2022 18:43:18.451
740, 2.36222, 358.316, 184.948, -0.0302734, -0.0244141, -0.0146484, 1.31055, 0.316406, -10.2207, 1.28.2022 18:43:18.459
741, 2.37716, 358.296, 184.955, -0.0214844, -0.0078125, -0.0205078, 1.04688, 0.533203, -10.3447, 1.28.2022 18:43:18.467
742, 2.38573, 358.262, 184.963, -0.0107422, 0.0224609, -0.0273438, 1.24512, 0.576172, -10.1797, 1.28.2022 18:43:18.475
743, 2.38811, 358.213, 184.986, 0.000976562, 0.0371094, -0.0332031, 1.00684, 0.924805, -9.90137, 1.28.2022 18:43:18.483
744, 2.38356, 358.171, 185, 0.0136719, 0.0478516, -0.0361328, 1.0957, 1.0166, -9.31152, 1.28.2022 18:43:18.491
745, 2.37898, 358.123, 185.022, 0.0205078, 0.0322266, -0.0361328, 0.717773, 1.00879, -9.24219, 1.28.2022 18:43:18.499
746, 2.37371, 358.088, 185.037, 0.0224609, 0.0205078, -0.0361328, 0.532227, 0.899414, -9.25879, 1.28.2022 18:43:18.507
747, 2.36147, 358.052, 185.051, 0.0214844, 0.00195312, -0.0351562, 0.620117, 0.620117, -9.10547, 1.28.2022 18:43:18.515
748, 2.35571, 358.031, 185.073, 0.0214844, -0.0146484, -0.0351562, 0.861328, 0.21582, -8.90234, 1.28.2022 18:43:18.523
749, 2.34955, 358.017, 185.087, 0.0292969, -0.0341797, -0.0371094, 0.767578, -0.110352, -9.5791, 1.28.2022 18:43:18.531
750, 2.3362, 358.01, 185.108, 0.0292969, -0.0253906, -0.0400391, 1.06445, 0.046875, -10.085, 1.28.2022 18:43:18.539
751, 2.3238, 357.989, 185.122, 0.0214844, 0, -0.0380859, 1.32227, 0.445312, -10.7891, 1.28.2022 18:43:18.547
752, 2.31806, 357.968, 185.143, 0.0185547, 0.00683594, -0.0361328, 1.18359, 0.746094, -10.5869, 1.28.2022 18:43:18.555
753, 2.31253, 357.94, 185.158, 0.0146484, 0.0175781, -0.0322266, 1.15723, 0.419922, -9.98633, 1.28.2022 18:43:18.563
754, 2.314, 357.913, 185.173, -0.00488281, 0.00683594, -0.0302734, 0.620117, 0.420898, -8.91895, 1.28.2022 18:43:18.571
755, 2.32214, 357.892, 185.187, -0.0253906, -0.00683594, -0.0244141, 0.521484, -0.0136719, -9.09961, 1.28.2022 18:43:18.579
756, 2.33684, 357.879, 185.195, -0.0419922, -0.0175781, -0.0234375, 0.673828, -0.34082, -9.07617, 1.28.2022 18:43:18.587
757, 2.35832, 357.873, 185.209, -0.0449219, -0.0390625, -0.0273438, 0.753906, -0.425781, -9.10742, 1.28.2022 18:43:18.595
758, 2.37993, 357.875, 185.224, -0.0439453, -0.0400391, -0.03125, 0.821289, -0.119141, -10.7393, 1.28.2022 18:43:18.603
759, 2.40141, 357.869, 185.238, -0.0351562, -0.0166016, -0.0332031, 1.66113, 0.367188, -10.1016, 1.28.2022 18:43:18.611
760, 2.40925, 357.855, 185.253, -0.0166016, -0.0117188, -0.0361328, 1.64258, 0.723633, -10.3633, 1.28.2022 18:43:18.619
761, 2.41741, 357.835, 185.267, 0.00488281, 0.00390625, -0.0400391, 1.25488, 1.08887, -10.2334, 1.28.2022 18:43:18.627
762, 2.41204, 357.807, 185.289, 0.0166016, 0.0351562, -0.0419922, 0.763672, 1.375, -9.82324, 1.28.2022 18:43:18.635
763, 2.40745, 357.772, 185.31, 0.0214844, 0.0537109, -0.0439453, 0.71875, 1.22461, -9.08984, 1.28.2022 18:43:18.643
764, 2.39576, 357.73, 185.332, 0.0332031, 0.0449219, -0.0527344, 0.371094, 0.47168, -9.6748, 1.28.2022 18:43:18.651
765, 2.38389, 357.695, 185.361, 0.0273438, 0.0419922, -0.0634766, 0.730469, 0.424805, -8.90723, 1.28.2022 18:43:18.659
766, 2.37183, 357.667, 185.396, 0.0283203, 0.0117188, -0.0761719, 1.22461, -0.046875, -9.08789, 1.28.2022 18:43:18.667
767, 2.3588, 357.66, 185.431, 0.0224609, -0.0488281, -0.0830078, 0.438477, 0.375, -9.64551, 1.28.2022 18:43:18.675
768, 2.35952, 357.668, 185.466, 0.00585938, -0.0546875, -0.078125, 0.910156, 0.260742, -9.10547, 1.28.2022 18:43:18.683
769, 2.35947, 357.683, 185.501, -0.0117188, -0.0693359, -0.0693359, 0.955078, 0.275391, -9.5498, 1.28.2022 18:43:18.691
770, 2.3666, 357.691, 185.529, -0.0126953, -0.046875, -0.0693359, 0.539062, -0.163086, -11.9268, 1.28.2022 18:43:18.699
771, 2.3815, 357.685, 185.564, -0.03125, 0.0185547, -0.0693359, 1.43555, -0.0908203, -11.3652, 1.28.2022 18:43:18.707
772, 2.39774, 357.659, 185.593, -0.0361328, 0.03125, -0.0664062, 1.45605, 0.100586, -10.2168, 1.28.2022 18:43:18.715
773, 2.41389, 357.625, 185.622, -0.0224609, 0.0458984, -0.0644531, 0.805664, -0.357422, -9.41602, 1.28.2022 18:43:18.723
774, 2.42353, 357.584, 185.658, -0.0185547, 0.0585938, -0.0644531, 0.00683594, 0.148438, -9.04688, 1.28.2022 18:43:18.731
775, 2.43388, 357.536, 185.688, -0.00683594, 0.0878906, -0.0742188, 0.71582, 0.310547, -8.60742, 1.28.2022 18:43:18.739
776, 2.42974, 357.495, 185.731, 0.0234375, 0.0302734, -0.0976562, 0.253906, 0.266602, -8.46191, 1.28.2022 18:43:18.747
777, 2.41784, 357.481, 185.779, 0.0292969, -0.0136719, -0.117188, -0.0712891, 0.287109, -9.85938, 1.28.2022 18:43:18.755
778, 2.41191, 357.482, 185.835, 0.00976562, -0.0517578, -0.12207, 0.413086, 1.39453, -8.33594, 1.28.2022 18:43:18.763
779, 2.41176, 357.504, 185.884, 0.0175781, -0.111328, -0.117188, 0.244141, 0.483398, -9.96973, 1.28.2022 18:43:18.771
780, 2.41145, 357.54, 185.939, -0.00390625, -0.101562, -0.111328, 0.885742, 0.820312, -8.22949, 1.28.2022 18:43:18.779
781, 2.41787, 357.569, 185.988, -0.0175781, -0.0615234, -0.109375, 0.644531, 0.670898, -12.3916, 1.28.2022 18:43:18.787
782, 2.42573, 357.571, 186.037, -0.0205078, 0.000976562, -0.109375, 1.17188, 0.241211, -13.1143, 1.28.2022 18:43:18.795
783, 2.44249, 357.545, 186.087, -0.0185547, 0.0527344, -0.109375, 1.67383, -0.0927734, -10.8066, 1.28.2022 18:43:18.803
784, 2.4456, 357.504, 186.137, -0.0136719, 0.0683594, -0.111328, 0.951172, -0.308594, -8.89062, 1.28.2022 18:43:18.811
785, 2.45668, 357.456, 186.194, 0.00195312, 0.0947266, -0.112305, 0.0966797, -0.0605469, -8.39062, 1.28.2022 18:43:18.819
786, 2.45401, 357.394, 186.245, 0.0214844, 0.125977, -0.116211, 0.0771484, 0.0429688, -9.37891, 1.28.2022 18:43:18.827
787, 2.44463, 357.339, 186.302, 0.0263672, 0.0722656, -0.130859, 0.25293, 0.151367, -9.75195, 1.28.2022 18:43:18.835
788, 2.44126, 357.305, 186.366, 0.00195312, 0.00292969, -0.136719, -0.198242, 1.42773, -9.58203, 1.28.2022 18:43:18.843
789, 2.44252, 357.306, 186.429, 0.0078125, -0.0576172, -0.132812, 0.443359, 0.27832, -6.98633, 1.28.2022 18:43:18.851
790, 2.44207, 357.335, 186.484, -0.015625, -0.118164, -0.126953, 1.03613, 0.0410156, -6.06445, 1.28.2022 18:43:18.859
791, 2.46219, 357.38, 186.54, -0.0400391, -0.114258, -0.125977, 0.0878906, 0.760742, -12.3193, 1.28.2022 18:43:18.867
792, 2.483, 357.403, 186.596, -0.0361328, -0.0195312, -0.125977, 1.50684, -0.0917969, -14.5713, 1.28.2022 18:43:18.875
793, 2.49929, 357.391, 186.652, -0.0341797, 0.0175781, -0.123047, 2.18555, 0.195312, -12.8457, 1.28.2022 18:43:18.883
794, 2.50854, 357.372, 186.709, -0.00976562, 0.00585938, -0.12207, 1.07324, 0.162109, -8.36914, 1.28.2022 18:43:18.891
795, 2.51171, 357.345, 186.766, 0.0185547, 0.078125, -0.116211, -0.615234, 0.424805, -7.67578, 1.28.2022 18:43:18.899
796, 2.50342, 357.276, 186.823, 0.03125, 0.174805, -0.110352, 1.35352, 0.00683594, -8.23633, 1.28.2022 18:43:18.907
797, 2.48734, 357.213, 186.881, 0.0380859, 0.0537109, -0.12207, -1.01367, 1.62012, -12.8115, 1.28.2022 18:43:18.915
798, 2.47652, 357.185, 186.93, 0.0302734, 0.03125, -0.118164, -1.20605, 1.06641, -11.8721, 1.28.2022 18:43:18.923
799, 2.47238, 357.158, 186.987, -0.000976562, 0.0273438, -0.103516, 0.739258, 0.47168, -6.03125, 1.28.2022 18:43:18.931
800, 2.47387, 357.159, 187.036, -0.00683594, -0.0556641, -0.109375, 2.73926, -0.0693359, -0.635742, 1.28.2022 18:43:18.939
801, 2.48584, 357.21, 187.084, -0.0175781, -0.201172, -0.125, -0.825195, -0.793945, -10.0635, 1.28.2022 18:43:18.947
802, 2.49835, 357.254, 187.14, -0.0361328, -0.0322266, -0.128906, 0.397461, 0.632812, -15.0557, 1.28.2022 18:43:18.955
803, 2.52173, 357.242, 187.196, -0.0390625, 0.0380859, -0.117188, 2.75391, 0.6875, -13.9375, 1.28.2022 18:43:18.963
804, 2.53073, 357.237, 187.253, 0.00976562, -0.0751953, -0.124023, 0.44043, -0.611328, -10.2627, 1.28.2022 18:43:18.971
805, 2.53228, 357.231, 187.309, 0, 0.0703125, -0.118164, 0.619141, 0.854492, -8.46777, 1.28.2022 18:43:18.979
806, 2.52259, 357.19, 187.366, 0.0273438, 0.0810547, -0.121094, 0.537109, -0.744141, -8.09961, 1.28.2022 18:43:18.987
807, 2.52033, 357.134, 187.423, 0.00390625, 0.111328, -0.125, 0.40625, 1.36621, -9.82715, 1.28.2022 18:43:18.995
808, 2.51725, 357.1, 187.48, 0.0302734, 0.0117188, -0.135742, -1.04785, -0.522461, -11.541, 1.28.2022 18:43:19.003
809, 2.51252, 357.094, 187.543, -0.0136719, -0.03125, -0.132812, -0.990234, 1.16602, -7.81445, 1.28.2022 18:43:19.011
810, 2.52082, 357.096, 187.607, 0.000976562, -0.015625, -0.137695, 1.48535, -0.636719, -4.68652, 1.28.2022 18:43:19.019
811, 2.52819, 357.119, 187.669, -0.0107422, -0.107422, -0.141602, -0.855469, 1.23633, -10.7744, 1.28.2022 18:43:19.027
812, 2.52809, 357.141, 187.732, 0.0126953, -0.0302734, -0.140625, 1.35645, -0.294922, -12.4541, 1.28.2022 18:43:19.035
813, 2.52335, 357.135, 187.795, 0.0253906, 0.0205078, -0.135742, 1.78027, 0.169922, -11.7158, 1.28.2022 18:43:19.043
814, 2.51211, 357.122, 187.858, 0.0244141, 0.0175781, -0.131836, 1.03613, 0.969727, -12.0781, 1.28.2022 18:43:19.051
815, 2.50122, 357.094, 187.915, 0.0371094, 0.0546875, -0.126953, 0.176758, 1.08398, -10.9395, 1.28.2022 18:43:19.059
816, 2.49131, 357.06, 187.971, 0.0371094, 0.0605469, -0.125, -0.756836, -0.0380859, -7.29688, 1.28.2022 18:43:19.067
817, 2.48905, 357.019, 188.035, -0.0136719, 0.0908203, -0.125, -0.296875, 0.1875, -7.0332, 1.28.2022 18:43:19.075
818, 2.49967, 356.985, 188.093, -0.0380859, 0.0341797, -0.129883, 0.0341797, -0.158203, -8.16504, 1.28.2022 18:43:19.083
819, 2.52292, 356.981, 188.156, -0.0478516, -0.0507812, -0.136719, -1.09961, 0.0332031, -9.61621, 1.28.2022 18:43:19.091
820, 2.54453, 356.998, 188.213, -0.0283203, -0.0351562, -0.137695, 0.597656, -1.19043, -10.0898, 1.28.2022 18:43:19.099
821, 2.55983, 357, 188.276, -0.0361328, -0.0234375, -0.131836, 0.914062, -0.0449219, -11.5938, 1.28.2022 18:43:19.107
822, 2.57495, 357.01, 188.332, -0.0117188, -0.0283203, -0.125977, 1.32812, 0.429688, -11.9541, 1.28.2022 18:43:19.115
823, 2.57562, 357.018, 188.389, 0.0185547, -0.0302734, -0.115234, 0.197266, 1.10547, -11.1162, 1.28.2022 18:43:19.123
824, 2.5637, 357.011, 188.437, 0.0371094, 0.0361328, -0.104492, 0.12207, 0.676758, -8.66309, 1.28.2022 18:43:19.131
825, 2.55335, 356.976, 188.487, 0.0253906, 0.0615234, -0.100586, 0.595703, 0.985352, -5.58887, 1.28.2022 18:43:19.139
826, 2.54248, 356.955, 188.536, 0.0117188, 0.0214844, -0.101562, -1.16309, 1.0127, -10.6318, 1.28.2022 18:43:19.147
827, 2.53845, 356.935, 188.579, 0.00585938, 0.0410156, -0.0976562, -0.621094, 0.4375, -11.2021, 1.28.2022 18:43:19.155
828, 2.54093, 356.915, 188.622, 0.0117188, 0.0175781, -0.0849609, -0.389648, -0.40332, -10.8301, 1.28.2022 18:43:19.163
829, 2.54269, 356.909, 188.657, -0.0146484, -0.0107422, -0.0683594, 0.830078, 0.151367, -6.95508, 1.28.2022 18:43:19.171
830, 2.54976, 356.917, 188.685, -0.00976562, -0.0585938, -0.0585938, -0.162109, 0.387695, -11.1543, 1.28.2022 18:43:19.179
831, 2.54931, 356.931, 188.713, 0.000976562, -0.0458984, -0.0478516, 0.332031, 0.486328, -9.33301, 1.28.2022 18:43:19.187
832, 2.54909, 356.938, 188.727, 0.00195312, 0.000976562, -0.0341797, 0.21875, 0.625, -10.9482, 1.28.2022 18:43:19.195
833, 2.54992, 356.932, 188.741, -0.00585938, 0, -0.0273438, 1.01953, 0.430664, -7.50391, 1.28.2022 18:43:19.203
834, 2.55719, 356.933, 188.755, -0.0166016, -0.0302734, -0.0244141, -1.04297, 0.729492, -11.0781, 1.28.2022 18:43:19.211
835, 2.55836, 356.926, 188.762, -0.0107422, 0.0273438, -0.0244141, -0.301758, -0.166016, -9.81152, 1.28.2022 18:43:19.219
836, 2.56722, 356.906, 188.777, -0.0126953, 0.0361328, -0.0224609, -0.416016, 0.0742188, -11.3027, 1.28.2022 18:43:19.227
837, 2.57594, 356.886, 188.785, -0.0234375, 0.0351562, -0.0195312, 0.506836, 0.576172, -8.57812, 1.28.2022 18:43:19.235
838, 2.58413, 356.872, 188.792, -0.015625, -0.000976562, -0.0175781, -0.419922, 0.69043, -11.6025, 1.28.2022 18:43:19.243
839, 2.58482, 356.865, 188.8, 0.00585938, -0.0078125, -0.0195312, 0.18457, 0.345703, -8.06641, 1.28.2022 18:43:19.251
840, 2.57816, 356.865, 188.814, 0.0175781, 0.000976562, -0.0205078, -0.203125, 0.524414, -8.56543, 1.28.2022 18:43:19.259
841, 2.57236, 356.858, 188.82, 0.0117188, -0.000976562, -0.0224609, 0.335938, 0.47168, -7.56445, 1.28.2022 18:43:19.267
842, 2.57198, 356.865, 188.827, -0.0117188, -0.0322266, -0.0205078, -0.788086, 0.881836, -10.5801, 1.28.2022 18:43:19.275
843, 2.57229, 356.865, 188.841, -0.00195312, -0.0214844, -0.0214844, -0.835938, 0.399414, -12.3379, 1.28.2022 18:43:19.283
844, 2.57244, 356.866, 188.848, 0.0107422, 0.00292969, -0.0136719, -0.125977, -0.376953, -11.1943, 1.28.2022 18:43:19.291
845, 2.56601, 356.858, 188.848, -0.0166016, 0.0117188, -0.0078125, 0.922852, 0.941406, -7.21094, 1.28.2022 18:43:19.299
846, 2.56616, 356.858, 188.855, 0.0126953, -0.0263672, -0.0107422, -0.430664, -0.0820312, -11.4297, 1.28.2022 18:43:19.307
847, 2.55934, 356.858, 188.862, 0.0224609, 0.00195312, -0.0146484, -0.357422, 0.0878906, -9.42969, 1.28.2022 18:43:19.315
848, 2.5536, 356.843, 188.869, 0.0175781, 0.046875, -0.0185547, 0.0292969, 0.711914, -8.78125, 1.28.2022 18:43:19.323
849, 2.54089, 356.829, 188.876, 0.0332031, 0.00390625, -0.0234375, -0.165039, 0.577148, -7.1875, 1.28.2022 18:43:19.331
850, 2.52726, 356.828, 188.89, 0.015625, -0.0185547, -0.0253906, -0.689453, 0.388672, -8.79102, 1.28.2022 18:43:19.339
851, 2.5199, 356.834, 188.897, 0.000976562, -0.0224609, -0.0263672, -1.26953, 0.904297, -11.4102, 1.28.2022 18:43:19.347
852, 2.51325, 356.834, 188.911, 0.0185547, 0.0126953, -0.0244141, -0.0214844, -0.114258, -10.9385, 1.28.2022 18:43:19.355
853, 2.51442, 356.827, 188.918, -0.0126953, 0.0175781, -0.015625, 1.0166, 0.240234, -9.58008, 1.28.2022 18:43:19.363
854, 2.52155, 356.828, 188.925, -0.0107422, -0.0263672, -0.015625, -0.323242, 0.547852, -11.9521, 1.28.2022 18:43:19.369
855, 2.52171, 356.828, 188.932, 0.00488281, 0.0146484, -0.0117188, 0.0712891, -0.0380859, -9.05566, 1.28.2022 18:43:19.377
856, 2.51597, 356.814, 188.939, 0.00488281, 0.0380859, -0.00976562, -0.553711, 0.103516, -9.05078, 1.28.2022 18:43:19.385
857, 2.51008, 356.799, 188.939, 0, 0.0419922, -0.0107422, -0.0849609, 0.506836, -7.24023, 1.28.2022 18:43:19.393
858, 2.51829, 356.786, 188.947, -0.0117188, -0.00585938, -0.0136719, -0.762695, 0.244141, -9.1709, 1.28.2022 18:43:19.401
859, 2.52489, 356.794, 188.954, -0.0205078, -0.0175781, -0.0166016, -1.31934, 0.730469, -10.9346, 1.28.2022 18:43:19.409
860, 2.5245, 356.801, 188.961, 0.0166016, -0.00878906, -0.0195312, -0.347656, -0.267578, -10.5078, 1.28.2022 18:43:19.417
861, 2.51715, 356.807, 188.968, 0.00390625, -0.00585938, -0.015625, 0.507812, 0.361328, -9.7627, 1.28.2022 18:43:19.425
862, 2.50979, 356.814, 188.974, 0.0166016, -0.0273438, -0.015625, 0.206055, 0.788086, -10.0059, 1.28.2022 18:43:19.433
863, 2.49546, 356.82, 188.981, 0.0380859, -0.00585938, -0.00976562, -0.296875, 1.31738, -10.8975, 1.28.2022 18:43:19.441
864, 2.4747, 356.819, 188.987, 0.0585938, 0.0351562, 0, -0.327148, 0.586914, -10.5244, 1.28.2022 18:43:19.449
865, 2.4479, 356.802, 188.987, 0.0429688, 0.0410156, 0.00488281, -0.0996094, 1.09082, -7.58105, 1.28.2022 18:43:19.457
866, 2.43489, 356.787, 188.98, 0.0205078, 0.0322266, 0.00488281, -0.418945, 0.15332, -7.90625, 1.28.2022 18:43:19.465
867, 2.43543, 356.78, 188.98, -0.0273438, -0.00683594, 0.00292969, -0.49707, 0.222656, -7.05957, 1.28.2022 18:43:19.473
868, 2.44829, 356.795, 188.98, -0.0273438, -0.0419922, -0.00292969, -2.35352, 0.0966797, -14.543, 1.28.2022 18:43:19.481
869, 2.45472, 356.803, 188.98, -0.0244141, 0.0205078, -0.00195312, 0.661133, -1.21777, -10.3916, 1.28.2022 18:43:19.489
870, 2.46866, 356.804, 188.98, -0.0488281, -0.0263672, -0.00292969, 1.07617, -0.0771484, -8.86523, 1.28.2022 18:43:19.497
871, 2.48702, 356.841, 188.987, -0.0136719, -0.09375, -0.0126953, -0.537109, 0.188477, -10.3125, 1.28.2022 18:43:19.505
872, 2.48484, 356.869, 188.986, 0.00390625, -0.0126953, -0.000976562, 0.0078125, 0.110352, -8.88965, 1.28.2022 18:43:19.513
873, 2.47787, 356.868, 188.986, 0.00976562, 0.0283203, 0.00195312, -0.0458984, 1.04199, -9.74414, 1.28.2022 18:43:19.521
874, 2.47144, 356.86, 188.986, 0.0146484, 0.0283203, 0, 0.188477, 1.42188, -9.60254, 1.28.2022 18:43:19.529
875, 2.47144, 356.86, 188.986, -0.00390625, -0.0146484, 0.00390625, -0.637695, 1.10352, -9.35742, 1.28.2022 18:43:19.537
876, 2.47074, 356.867, 188.979, -0.0185547, -0.00585938, 0.00488281, -1.27832, 0.673828, -10.2285, 1.28.2022 18:43:19.545
877, 2.47717, 356.875, 188.979, 0.00878906, 0.00488281, -0.000976562, -0.765625, -0.445312, -9.97266, 1.28.2022 18:43:19.553
878, 2.47074, 356.867, 188.979, -0.00585938, 0.0292969, -0.000976562, 0.713867, -0.28125, -9.37207, 1.28.2022 18:43:19.561
879, 2.47733, 356.875, 188.986, -0.00292969, -0.0224609, -0.00878906, -0.166016, 0.192383, -11.1924, 1.28.2022 18:43:19.569
880, 2.46927, 356.888, 188.985, 0.00976562, -0.00976562, -0.00683594, -0.245117, 0.847656, -10.6152, 1.28.2022 18:43:19.577
881, 2.46175, 356.895, 188.985, 0.03125, 0.00976562, -0.00292969, -0.0957031, 0.320312, -9.35742, 1.28.2022 18:43:19.585
882, 2.44796, 356.894, 188.991, 0.0244141, 0.00976562, -0.00390625, -0.165039, 0.763672, -7.50391, 1.28.2022 18:43:19.593
883, 2.44099, 356.893, 188.991, -0.00195312, 0.0175781, -0.00292969, -0.103516, 0.263672, -8.99023, 1.28.2022 18:43:19.601
884, 2.44742, 356.901, 188.991, -0.0439453, -0.0214844, -0.00585938, -0.279297, -0.0703125, -8.76953, 1.28.2022 18:43:19.609
885, 2.47383, 356.924, 188.998, -0.0507812, -0.0439453, -0.0146484, -1.65234, 0.518555, -12.416, 1.28.2022 18:43:19.617
886, 2.48668, 356.939, 188.998, -0.0195312, -0.00683594, -0.0126953, -0.244141, -0.926758, -9.97754, 1.28.2022 18:43:19.625
887, 2.50077, 356.94, 189.006, -0.0400391, 0.0253906, -0.000976562, 1.1416, 0.1875, -9.47754, 1.28.2022 18:43:19.633
888, 2.51417, 356.948, 189.006, -0.0185547, -0.0371094, 0.00390625, -0.384766, 0.969727, -11.6465, 1.28.2022 18:43:19.641
889, 2.51293, 356.962, 188.999, 0.00488281, 0.0136719, 0.0234375, -0.0224609, 1.04004, -10.1797, 1.28.2022 18:43:19.649
890, 2.50566, 356.961, 188.984, 0.0205078, 0.0361328, 0.0332031, -0.183594, 0.953125, -8.99121, 1.28.2022 18:43:19.657
891, 2.49251, 356.946, 188.97, 0.0244141, 0.0371094, 0.03125, -0.320312, 1.36621, -8.40527, 1.28.2022 18:43:19.665
892, 2.47833, 356.938, 188.956, 0.0126953, 0.0273438, 0.03125, -0.21875, 0.44043, -8.2373, 1.28.2022 18:43:19.673
893, 2.47749, 356.944, 188.942, -0.0166016, -0.0253906, 0.0244141, -0.530273, 0.359375, -7.75, 1.28.2022 18:43:19.681
894, 2.48215, 356.973, 188.934, 0, -0.0576172, 0.0185547, -1.45312, 0.34375, -11.1934, 1.28.2022 18:43:19.689
895, 2.47272, 357, 188.919, 0.0175781, -0.0214844, 0.0205078, -0.0595703, -0.474609, -10.251, 1.28.2022 18:43:19.697
896, 2.47149, 357.014, 188.912, 0.00878906, -0.00488281, 0.0175781, 1.07129, 0.101562, -10.3857, 1.28.2022 18:43:19.705
897, 2.45579, 357.033, 188.904, 0.0351562, -0.0537109, 0.0136719, 0.198242, 0.814453, -11.46, 1.28.2022 18:43:19.713
898, 2.43908, 357.06, 188.896, 0.0458984, -0.00585938, 0.0273438, 0.115234, 0.863281, -10.6094, 1.28.2022 18:43:19.721
899, 2.41788, 357.058, 188.882, 0.0380859, 0.0292969, 0.0351562, 0.0595703, 0.893555, -8.70117, 1.28.2022 18:43:19.729
900, 2.39667, 357.056, 188.867, 0.0361328, 0.0263672, 0.0351562, -0.720703, 0.709961, -8.98633, 1.28.2022 18:43:19.737
901, 2.38979, 357.048, 188.846, -0.00683594, 0.0478516, 0.0390625, -0.151367, -0.345703, -8.36133, 1.28.2022 18:43:19.745
902, 2.40398, 357.042, 188.832, -0.0585938, -0.0078125, 0.0380859, -0.0527344, 0.400391, -7.03613, 1.28.2022 18:43:19.753
903, 2.42241, 357.064, 188.811, -0.046875, -0.0488281, 0.0380859, -1.18555, -0.317383, -11.6602, 1.28.2022 18:43:19.761
904, 2.4409, 357.093, 188.797, -0.0390625, -0.0273438, 0.0361328, -0.279297, -1.20117, -11.5361, 1.28.2022 18:43:19.769
905, 2.46033, 357.108, 188.776, -0.0439453, 0.00390625, 0.03125, 1.1875, -0.412109, -9.68848, 1.28.2022 18:43:19.777
906, 2.4661, 357.123, 188.769, -0.00683594, -0.0341797, 0.0224609, 0.342773, 0.617188, -10.0713, 1.28.2022 18:43:19.785
907, 2.46476, 357.136, 188.754, 0.0214844, 0.00488281, 0.0302734, -0.185547, 1.07324, -11.4658, 1.28.2022 18:43:19.793
908, 2.45007, 357.135, 188.74, 0.0273438, 0.0507812, 0.0400391, 0.446289, 1.70703, -8.89258, 1.28.2022 18:43:19.801
909, 2.42979, 357.119, 188.719, 0.0478516, 0.0332031, 0.0361328, -0.759766, 1.38477, -9.23926, 1.28.2022 18:43:19.809
910, 2.40911, 357.11, 188.705, 0.0253906, 0.046875, 0.03125, -0.209961, 0.269531, -7.70508, 1.28.2022 18:43:19.817
911, 2.40883, 357.11, 188.69, -0.0175781, -0.00292969, 0.0234375, -0.318359, 0.536133, -7.75586, 1.28.2022 18:43:19.825
912, 2.41408, 357.131, 188.683, -0.0214844, -0.0556641, 0.0126953, -1.27344, -0.0683594, -10.9453, 1.28.2022 18:43:19.833
913, 2.41842, 357.166, 188.682, -0.0078125, -0.0517578, 0.00488281, -0.478516, -1.0625, -10.8066, 1.28.2022 18:43:19.841
914, 2.42323, 357.188, 188.675, -0.0214844, -0.00488281, 0.00195312, 1.33496, -0.535156, -9.81934, 1.28.2022 18:43:19.849
915, 2.42862, 357.209, 188.675, -0.00683594, -0.0429688, -0.00878906, 0.892578, 0.515625, -9.98828, 1.28.2022 18:43:19.857
916, 2.42666, 357.237, 188.681, 0.0253906, -0.0205078, -0.0078125, -0.0429688, 0.177734, -12.6426, 1.28.2022 18:43:19.865
917, 2.41219, 357.243, 188.681, 0.0146484, 0.0371094, -0.000976562, 0.396484, 1.27246, -9.41211, 1.28.2022 18:43:19.873
918, 2.40535, 357.243, 188.688, 0.03125, 0.0224609, -0.00488281, -0.835938, 0.96875, -9.88672, 1.28.2022 18:43:19.881
919, 2.39193, 357.235, 188.687, 0.0195312, 0.0449219, -0.00585938, -0.21582, 0.116211, -7.60547, 1.28.2022 18:43:19.889
920, 2.39207, 357.235, 188.694, -0.0136719, 0.00683594, -0.00976562, -0.294922, 0.0615234, -7.22852, 1.28.2022 18:43:19.897
921, 2.39799, 357.249, 188.694, -0.0273438, -0.0390625, -0.0166016, -0.5625, 0.186523, -8.75781, 1.28.2022 18:43:19.905
922, 2.40956, 357.285, 188.708, -0.0195312, -0.0566406, -0.0214844, -0.803711, -0.296875, -11.748, 1.28.2022 18:43:19.913
923, 2.41508, 357.307, 188.714, -0.0195312, -0.00292969, -0.0234375, 0.865234, -0.199219, -9.56836, 1.28.2022 18:43:19.921
924, 2.42171, 357.322, 188.728, -0.0175781, -0.00195312, -0.0273438, 1.61328, 0.324219, -10.3672, 1.28.2022 18:43:19.929
925, 2.42776, 357.337, 188.735, 0.000976562, -0.0263672, -0.0292969, -0.21582, 0.601562, -13.6982, 1.28.2022 18:43:19.937
926, 2.42748, 357.344, 188.749, -0.00683594, 0.0488281, -0.0195312, 0.709961, 0.927734, -9.41211, 1.28.2022 18:43:19.945
927, 2.42814, 357.337, 188.756, 0.00292969, 0.0273438, -0.0214844, -0.796875, 0.508789, -8.97949, 1.28.2022 18:43:19.953
928, 2.42946, 357.323, 188.77, -0.0078125, 0.0693359, -0.0224609, -0.0966797, 0.0253906, -7.31055, 1.28.2022 18:43:19.961
929, 2.43775, 357.31, 188.785, -0.0292969, 0.0302734, -0.0283203, -0.130859, -0.0244141, -8.05957, 1.28.2022 18:43:19.969
930, 2.45089, 357.326, 188.799, -0.0429688, -0.0253906, -0.0390625, -0.472656, 0.0996094, -9.33105, 1.28.2022 18:43:19.977
931, 2.46354, 357.355, 188.819, -0.0166016, -0.0595703, -0.0517578, -0.966797, 0.179688, -10.6318, 1.28.2022 18:43:19.985
932, 2.46124, 357.39, 188.84, 0.0078125, -0.0419922, -0.0527344, 0.0263672, -0.258789, -11.0635, 1.28.2022 18:43:19.993
933, 2.46054, 357.405, 188.86, 0.00976562, 0.0078125, -0.0488281, 1.76562, 0.65332, -8.77734, 1.28.2022 18:43:20.001
934, 2.44548, 357.425, 188.888, 0.0361328, -0.0332031, -0.0478516, 0.0322266, 1.36816, -12.9697, 1.28.2022 18:43:20.009
935, 2.43125, 357.431, 188.901, 0.0498047, 0.0400391, -0.0341797, 0.678711, 1.56445, -10.4902, 1.28.2022 18:43:20.017
936, 2.40415, 357.422, 188.915, 0.0517578, 0.0595703, -0.0283203, -0.171875, 0.924805, -9.56836, 1.28.2022 18:43:20.025
937, 2.38511, 357.4, 188.929, 0.0322266, 0.0683594, -0.0273438, -0.445312, 0.493164, -8.23145, 1.28.2022 18:43:20.033
938, 2.38046, 357.379, 188.943, -0.0136719, 0.0722656, -0.0273438, -0.0283203, 0.0263672, -8.30566, 1.28.2022 18:43:20.041
939, 2.38768, 357.38, 188.957, -0.0390625, -0.0078125, -0.0322266, -0.889648, -0.395508, -9.12793, 1.28.2022 18:43:20.049
940, 2.40788, 357.396, 188.979, -0.0429688, -0.0341797, -0.0390625, -0.293945, -0.762695, -8.16309, 1.28.2022 18:43:20.057
941, 2.42631, 357.433, 188.992, -0.0283203, -0.0683594, -0.0458984, -0.492188, -0.641602, -11.5342, 1.28.2022 18:43:20.065
942, 2.43843, 357.462, 189.013, -0.03125, -0.0146484, -0.0498047, 1.65527, -0.277344, -7.72168, 1.28.2022 18:43:20.073
943, 2.44415, 357.491, 189.04, -0.00488281, -0.0488281, -0.0605469, 0.664062, 0.386719, -12.8867, 1.28.2022 18:43:20.081
944, 2.44297, 357.513, 189.068, 0.00683594, -0.00976562, -0.0585938, 0.490234, 1.62109, -12.8213, 1.28.2022 18:43:20.089
945, 2.43591, 357.52, 189.096, 0.0302734, 0.0224609, -0.0566406, 0.0429688, 0.786133, -10.083, 1.28.2022 18:43:20.097
946, 2.42288, 357.512, 189.117, 0.0195312, 0.0644531, -0.0595703, 0.142578, 0.878906, -6.67578, 1.28.2022 18:43:20.105
947, 2.41861, 357.491, 189.152, -0.00195312, 0.0761719, -0.0644531, 0.0166016, 0.561523, -8.38379, 1.28.2022 18:43:20.113
948, 2.41963, 357.485, 189.181, -0.015625, 0.0175781, -0.0712891, -0.771484, 0.387695, -10.5518, 1.28.2022 18:43:20.121
949, 2.42663, 357.493, 189.216, -0.00683594, -0.00878906, -0.0761719, -0.712891, 0.0283203, -9.88672, 1.28.2022 18:43:20.129
950, 2.42599, 357.515, 189.25, 0.0078125, -0.0292969, -0.0761719, -0.799805, -0.253906, -9.23438, 1.28.2022 18:43:20.137
951, 2.42488, 357.537, 189.285, 0.00195312, -0.0166016, -0.0751953, 1.46387, -0.233398, -7.49805, 1.28.2022 18:43:20.145
952, 2.42376, 357.558, 189.32, 0.00390625, -0.0478516, -0.0771484, -0.00683594, 0.680664, -14.625, 1.28.2022 18:43:20.153
953, 2.41554, 357.586, 189.354, 0.0146484, -0.0146484, -0.0722656, 0.774414, 1.14355, -10.418, 1.28.2022 18:43:20.161
954, 2.40845, 357.593, 189.381, 0.0224609, 0.0175781, -0.0654297, 0.81543, 0.458984, -8.94043, 1.28.2022 18:43:20.169
955, 2.40135, 357.6, 189.409, 0.00976562, 0.0253906, -0.0664062, -0.231445, 0.466797, -8.97949, 1.28.2022 18:43:20.177
956, 2.4035, 357.587, 189.445, -0.0185547, 0.0742188, -0.0644531, 0.244141, 0.193359, -9.29785, 1.28.2022 18:43:20.185
957, 2.41205, 357.574, 189.473, -0.0253906, 0.0400391, -0.0693359, -0.393555, -0.141602, -10.5576, 1.28.2022 18:43:20.193
958, 2.42061, 357.569, 189.508, -0.0078125, 0.0175781, -0.0742188, -0.575195, -0.0263672, -9.33105, 1.28.2022 18:43:20.201
959, 2.42058, 357.576, 189.544, 0.0185547, -0.00878906, -0.0732422, -1.18262, -0.136719, -9.4375, 1.28.2022 18:43:20.209
960, 2.40651, 357.583, 189.571, 0.015625, 0.0361328, -0.0654297, 1.4209, 0.0380859, -8.34277, 1.28.2022 18:43:20.217
961, 2.39997, 357.59, 189.606, 0.0166016, -0.0263672, -0.0644531, -0.0830078, 1.3291, -13.5762, 1.28.2022 18:43:20.225
962, 2.38414, 357.617, 189.633, 0.0380859, -0.0302734, -0.0595703, 0.0244141, 1.42578, -10.7783, 1.28.2022 18:43:20.233
963, 2.36936, 357.63, 189.654, 0.0361328, 0.0117188, -0.0488281, 0.636719, 0.474609, -8.08887, 1.28.2022 18:43:20.241
964, 2.35517, 357.637, 189.674, 0.0107422, 0.0117188, -0.0498047, 0.0869141, 0.665039, -8.08691, 1.28.2022 18:43:20.249
965, 2.35663, 357.63, 189.702, -0.015625, 0.0449219, -0.046875, 0.267578, -0.03125, -9.97266, 1.28.2022 18:43:20.257
966, 2.37088, 357.632, 189.724, -0.0332031, 0.0361328, -0.0498047, 0.269531, -0.0947266, -10.0146, 1.28.2022 18:43:20.265
967, 2.37817, 357.633, 189.745, -0.015625, -0.0078125, -0.0576172, -0.757812, -0.552734, -10.8633, 1.28.2022 18:43:20.273
968, 2.38438, 357.648, 189.773, -0.00195312, 0.0146484, -0.0576172, -0.587891, -0.751953, -9.86523, 1.28.2022 18:43:20.281
969, 2.38525, 357.649, 189.801, -0.015625, 0.0263672, -0.0527344, 0.954102, -0.0537109, -7.78223, 1.28.2022 18:43:20.289
970, 2.39134, 357.663, 189.822, -0.0224609, -0.0419922, -0.0537109, 0.264648, 0.783203, -8.30078, 1.28.2022 18:43:20.297
971, 2.39564, 357.699, 189.842, -0.0117188, -0.0664062, -0.0498047, -0.958008, 1.04395, -11.4463, 1.28.2022 18:43:20.305
972, 2.40748, 357.729, 189.863, -0.03125, 0.0078125, -0.0410156, 0.478516, 1.04297, -10.1348, 1.28.2022 18:43:20.313
973, 2.42156, 357.738, 189.884, -0.0410156, -0.0136719, -0.0410156, 0.716797, 0.117188, -8.52539, 1.28.2022 18:43:20.321
974, 2.44095, 357.761, 189.905, -0.0566406, -0.015625, -0.0439453, 0.0683594, -0.160156, -10.4502, 1.28.2022 18:43:20.329
975, 2.46789, 357.777, 189.926, -0.0634766, -0.00878906, -0.0458984, 0.417969, -0.198242, -8.68262, 1.28.2022 18:43:20.335
976, 2.48833, 357.794, 189.947, -0.0292969, -0.0253906, -0.0546875, -1.12012, -0.0693359, -11.7539, 1.28.2022 18:43:20.343
977, 2.49497, 357.802, 189.968, -0.00488281, 0.0253906, -0.0566406, -0.566406, 0.424805, -10.9414, 1.28.2022 18:43:20.351
978, 2.49535, 357.802, 189.997, 0.00195312, 0.0429688, -0.0507812, 0.458008, 0.799805, -8.80273, 1.28.2022 18:43:20.359
979, 2.48928, 357.795, 190.018, 0.0253906, 0.0117188, -0.0517578, 0.475586, 1.28027, -8.52441, 1.28.2022 18:43:20.367
980, 2.46801, 357.808, 190.045, 0.0439453, -0.0146484, -0.0537109, -0.824219, 1.72266, -10.2373, 1.28.2022 18:43:20.375
981, 2.44679, 357.814, 190.065, 0.0458984, 0.0400391, -0.0478516, 0.494141, 1.0127, -8.69824, 1.28.2022 18:43:20.383
982, 2.43325, 357.813, 190.093, 0.0253906, 0.0117188, -0.0507812, -0.182617, 0.681641, -10.4277, 1.28.2022 18:43:20.391
983, 2.42595, 357.82, 190.114, 0.00585938, 0.00683594, -0.0537109, -0.249023, 0.288086, -9.81836, 1.28.2022 18:43:20.399
984, 2.41911, 357.827, 190.135, 0.0078125, 0.0107422, -0.0507812, 0.597656, -0.508789, -7.81836, 1.28.2022 18:43:20.407
985, 2.41067, 357.847, 190.162, 0.00976562, -0.0537109, -0.0527344, -1.10938, -0.760742, -9.70605, 1.28.2022 18:43:20.415
986, 2.40909, 357.869, 190.183, 0.00195312, -0.00195312, -0.0566406, -1.05078, 0.364258, -12.7422, 1.28.2022 18:43:20.423
987, 2.41642, 357.87, 190.211, -0.0234375, 0.0292969, -0.0478516, 1.10254, 0.263672, -9.4082, 1.28.2022 18:43:20.431
988, 2.42286, 357.885, 190.232, -0.0107422, -0.0361328, -0.0507812, -0.317383, 0.660156, -12.2705, 1.28.2022 18:43:20.439
989, 2.42126, 357.906, 190.252, -0.0078125, -0.0244141, -0.0498047, -0.243164, 0.738281, -10.0664, 1.28.2022 18:43:20.447
990, 2.42724, 357.921, 190.273, -0.0136719, 0.0107422, -0.046875, 0.306641, 0.145508, -7.20215, 1.28.2022 18:43:20.455
991, 2.43392, 357.929, 190.302, -0.0234375, 0.0146484, -0.0537109, 0.167969, 0.00390625, -8.56445, 1.28.2022 18:43:20.463
992, 2.44793, 357.938, 190.322, -0.0283203, -0.00878906, -0.0556641, -0.117188, 0.116211, -9.91016, 1.28.2022 18:43:20.471
993, 2.46031, 357.961, 190.35, -0.0234375, -0.0439453, -0.0576172, -0.563477, 0.392578, -9.65723, 1.28.2022 18:43:20.479
994, 2.46509, 357.99, 190.378, -0.00195312, -0.0429688, -0.0625, -1.10938, 0.206055, -10.7617, 1.28.2022 18:43:20.487
995, 2.46453, 358.004, 190.398, 0.000976562, 0.0078125, -0.0556641, 0.256836, 0.150391, -8.23828, 1.28.2022 18:43:20.495
996, 2.46422, 358.012, 190.426, -0.00683594, 0.00878906, -0.0507812, 1.1875, 0.693359, -10.5059, 1.28.2022 18:43:20.503
997, 2.46319, 358.026, 190.447, 0.00878906, -0.0185547, -0.0527344, 0.231445, 1.26953, -10.8291, 1.28.2022 18:43:20.511
998, 2.45574, 358.04, 190.475, 0.0195312, 0.0136719, -0.0458984, -0.325195, 0.719727, -10.9766, 1.28.2022 18:43:20.519
999, 2.44261, 358.032, 190.489, 0.0107422, 0.0439453, -0.0390625, 0.249023, 0.585938, -8.34375, 1.28.2022 18:43:20.527
1000, 2.44348, 358.026, 190.51, 0.00292969, 0.0302734, -0.0410156, -0.628906, 0.245117, -9.7002, 1.28.2022 18:43:20.535
1001, 2.44436, 358.019, 190.532, -0.00878906, 0.03125, -0.0429688, 0.0800781, -0.0498047, -7.69727, 1.28.2022 18:43:20.543
1002, 2.44442, 358.027, 190.552, -0.00878906, -0.0214844, -0.0517578, -0.128906, -0.223633, -7.9375, 1.28.2022 18:43:20.551
1003, 2.4484, 358.063, 190.572, -0.00488281, -0.0703125, -0.0576172, -1.68848, 0.126953, -11.1396, 1.28.2022 18:43:20.559
1004, 2.44678, 358.084, 190.6, -0.00292969, 0.000976562, -0.0595703, 0.754883, -0.853516, -11.0684, 1.28.2022 18:43:20.567
1005, 2.45275, 358.099, 190.628, -0.0195312, -0.0175781, -0.0517578, 1.43457, 0.925781, -8.76758, 1.28.2022 18:43:20.575
1006, 2.45716, 358.135, 190.648, 0.00585938, -0.0742188, -0.0507812, -0.269531, 0.947266, -11.2285, 1.28.2022 18:43:20.583
1007, 2.44783, 358.163, 190.669, 0.0117188, -0.00195312, -0.0371094, -0.34375, 0.74707, -9.96484, 1.28.2022 18:43:20.591
1008, 2.44166, 358.155, 190.683, 0.00683594, 0.0527344, -0.0263672, 0.686523, 0.432617, -7.86621, 1.28.2022 18:43:20.599
1009, 2.44245, 358.149, 190.697, -0.00488281, 0.0361328, -0.0283203, -0.266602, 0.693359, -10.4805, 1.28.2022 18:43:20.607
1010, 2.44324, 358.142, 190.711, -0.00683594, 0.0253906, -0.0273438, -0.105469, 0.131836, -9.22559, 1.28.2022 18:43:20.615
1011, 2.44319, 358.149, 190.725, -0.00683594, -0.0146484, -0.0322266, -1.09082, -0.0146484, -9.53027, 1.28.2022 18:43:20.623
1012, 2.44202, 358.164, 190.739, 0.00488281, -0.0214844, -0.0380859, -0.813477, 0.103516, -8.78027, 1.28.2022 18:43:20.631
1013, 2.44028, 358.185, 190.759, 0.00683594, -0.0136719, -0.0410156, 0.0742188, 0.265625, -11.6523, 1.28.2022 18:43:20.639
1014, 2.43845, 358.206, 190.773, -0.0146484, -0.0478516, -0.0419922, 0.354492, 0.702148, -10.0928, 1.28.2022 18:43:20.647
1015, 2.44234, 358.242, 190.793, 0.00390625, -0.046875, -0.0449219, 0.230469, 1.03711, -10.002, 1.28.2022 18:43:20.655
1016, 2.43991, 358.27, 190.814, 0.00878906, -0.0341797, -0.0380859, 0.0214844, 0.439453, -11.1504, 1.28.2022 18:43:20.663
1017, 2.43221, 358.284, 190.827, -0.00292969, 0.00878906, -0.0371094, 0.441406, 0.464844, -8.625, 1.28.2022 18:43:20.671
1018, 2.4387, 358.292, 190.848, -0.0107422, 0.0136719, -0.0410156, -0.133789, 0.117188, -9.35938, 1.28.2022 18:43:20.679
1019, 2.44578, 358.293, 190.862, -0.0205078, 0.0224609, -0.0410156, 0.475586, 0.0205078, -7.58203, 1.28.2022 18:43:20.687
1020, 2.45226, 358.301, 190.884, -0.0195312, -0.0390625, -0.0449219, -1.15039, 0.460938, -10.2363, 1.28.2022 18:43:20.695
1021, 2.45091, 358.322, 190.904, 0.00585938, -0.0136719, -0.0439453, -1.6123, 0.132812, -12.6523, 1.28.2022 18:43:20.703
1022, 2.45109, 358.323, 190.925, -0.00292969, 0.0556641, -0.0361328, 1.17969, -0.0703125, -10.1484, 1.28.2022 18:43:20.711
1023, 2.45055, 358.33, 190.939, -0.000976562, -0.0410156, -0.0400391, 0.723633, 0.767578, -8.20508, 1.28.2022 18:43:20.719
1024, 2.44806, 358.358, 190.96, 0.0224609, -0.0478516, -0.0361328, -0.299805, 1.07227, -8.97363, 1.28.2022 18:43:20.727
1025, 2.43221, 358.378, 190.966, 0.0234375, 0.00488281, -0.0234375, 0.25293, 0.291992, -9.31348, 1.28.2022 18:43:20.735
1026, 2.42515, 358.385, 190.979, 0.000976562, 0.015625, -0.0214844, 0.0195312, 1.06152, -10.8994, 1.28.2022 18:43:20.743
1027, 2.42521, 358.385, 190.986, -0.00488281, 0.015625, -0.0244141, -0.171875, 0.399414, -10.8965, 1.28.2022 18:43:20.751
1028, 2.43161, 358.393, 191, -0.0195312, -0.0136719, -0.0244141, 0.213867, -0.34082, -6.98242, 1.28.2022 18:43:20.759
1029, 2.44296, 358.422, 191.014, -0.0302734, -0.0664062, -0.0292969, -0.998047, -0.0742188, -7.43555, 1.28.2022 18:43:20.767
1030, 2.44734, 358.451, 191.028, -0.0195312, -0.00878906, -0.0283203, -1.70801, -0.0234375, -12.6758, 1.28.2022 18:43:20.775
1031, 2.46197, 358.446, 191.035, -0.0244141, 0.0703125, -0.015625, 1.85156, 0.0341797, -11.3379, 1.28.2022 18:43:20.783
1032, 2.46898, 358.446, 191.042, -0.0136719, -0.03125, -0.0136719, 0.703125, 0.820312, -11.7705, 1.28.2022 18:43:20.791
1033, 2.46635, 358.474, 191.049, 0.0214844, -0.0498047, -0.00585938, -0.90625, 1.20117, -9.00586, 1.28.2022 18:43:20.799
