Seq, Rot x, Rot y, Rot z, Vel x, Vel y, Vel z, Acc x, Acc y, Acc z, Time(m.d.y h:m:s.ms)
0, 2.20345, 0.171453, 188.897, -0.000976562, -0.00195312, 0, -0.0351562, 0.387695, -9.71289, 1.28.2022 18:10:41.544
1, 2.20399, 0.164481, 188.897, -0.000976562, -0.000976562, 0, -0.0517578, 0.378906, -9.71777, 1.28.2022 18:10:41.547
2, 2.20399, 0.164481, 188.897, 0, -0.000976562, 0, 0.0195312, 0.359375, -9.73828, 1.28.2022 18:10:41.555
3, 2.20399, 0.164481, 188.897, -0.000976562, -0.000976562, 0, -0.0703125, 0.375, -9.67676, 1.28.2022 18:10:41.563
4, 2.20399, 0.164481, 188.897, -0.000976562, 0, 0, -0.0585938, 0.369141, -9.71094, 1.28.2022 18:10:41.571
5, 2.20399, 0.164481, 188.897, -0.000976562, -0.000976562, -0.000976562, -0.0205078, 0.344727, -9.72168, 1.28.2022 18:10:41.579
6, 2.20399, 0.164481, 188.897, -0.000976562, -0.000976562, 0, -0.0664062, 0.375977, -9.71973, 1.28.2022 18:10:41.587
7, 2.20399, 0.164481, 188.897, -0.000976562, -0.00195312, 0, -0.00195312, 0.350586, -9.74512, 1.28.2022 18:10:41.595
8, 2.19702, 0.163939, 188.897, 0, -0.000976562, 0, -0.0302734, 0.354492, -9.72363, 1.28.2022 18:10:41.603
9, 2.19702, 0.163939, 188.897, -0.000976562, -0.000976562, 0, -0.0605469, 0.392578, -9.70508, 1.28.2022 18:10:41.611
10, 2.19702, 0.163939, 188.897, 0, -0.000976562, -0.000976562, 0.000976562, 0.368164, -9.71191, 1.28.2022 18:10:41.619
11, 2.19702, 0.163939, 188.897, -0.000976562, -0.000976562, 0.000976562, -0.0751953, 0.391602, -9.68652, 1.28.2022 18:10:41.627
12, 2.19702, 0.163939, 188.897, -0.000976562, -0.00195312, 0, -0.0078125, 0.390625, -9.65625, 1.28.2022 18:10:41.635
13, 2.19648, 0.170911, 188.897, 0, -0.00195312, -0.00195312, -0.00390625, 0.351562, -9.69043, 1.28.2022 18:10:41.643
14, 2.19648, 0.170911, 188.897, -0.000976562, -0.000976562, 0, -0.0654297, 0.401367, -9.69043, 1.28.2022 18:10:41.651
15, 2.19648, 0.170911, 188.897, -0.000976562, -0.00195312, 0, 0.000976562, 0.361328, -9.72168, 1.28.2022 18:10:41.659
16, 2.19648, 0.170911, 188.897, -0.00195312, -0.000976562, 0, -0.0380859, 0.362305, -9.7373, 1.28.2022 18:10:41.667
17, 2.19648, 0.170911, 188.897, 0, -0.000976562, 0, -0.0351562, 0.386719, -9.74121, 1.28.2022 18:10:41.675
18, 2.19648, 0.170911, 188.897, 0, -0.00195312, 0, 0.0263672, 0.342773, -9.73828, 1.28.2022 18:10:41.683
19, 2.18952, 0.170368, 188.897, 0, -0.000976562, 0, -0.0371094, 0.375977, -9.71289, 1.28.2022 18:10:41.691
20, 2.18952, 0.170368, 188.897, -0.000976562, 0, 0, -0.0185547, 0.375977, -9.70898, 1.28.2022 18:10:41.699
21, 2.18952, 0.170368, 188.897, 0, -0.000976562, -0.000976562, 0.0195312, 0.364258, -9.72656, 1.28.2022 18:10:41.707
22, 2.18952, 0.170368, 188.897, 0, -0.00195312, -0.00195312, -0.078125, 0.388672, -9.74023, 1.28.2022 18:10:41.715
23, 2.18952, 0.170368, 188.897, -0.000976562, -0.000976562, 0.000976562, 0.0244141, 0.388672, -9.74219, 1.28.2022 18:10:41.723
24, 2.18952, 0.170368, 188.897, -0.000976562, -0.000976562, 0, -0.0185547, 0.354492, -9.72363, 1.28.2022 18:10:41.731
25, 2.18952, 0.170368, 188.897, -0.000976562, 0.000976562, 0, -0.0615234, 0.397461, -9.70996, 1.28.2022 18:10:41.739
26, 2.18952, 0.170368, 188.897, -0.000976562, 0, 0, 0.0195312, 0.347656, -9.72852, 1.28.2022 18:10:41.747
27, 2.18952, 0.170368, 188.897, 0, 0, -0.00195312, -0.0615234, 0.398438, -9.73145, 1.28.2022 18:10:41.755
28, 2.18952, 0.170368, 188.897, -0.000976562, 0, 0, -0.0400391, 0.391602, -9.75293, 1.28.2022 18:10:41.763
29, 2.19006, 0.163396, 188.897, 0, 0.000976562, 0, -0.0195312, 0.370117, -9.76074, 1.28.2022 18:10:41.771
30, 2.19006, 0.163396, 188.897, 0, 0, 0, -0.078125, 0.393555, -9.75684, 1.28.2022 18:10:41.779
31, 2.19006, 0.163396, 188.897, 0, -0.000976562, 0, 0.0224609, 0.37207, -9.68066, 1.28.2022 18:10:41.787
32, 2.19006, 0.163396, 188.897, -0.000976562, 0, -0.00195312, -0.0107422, 0.341797, -9.68359, 1.28.2022 18:10:41.795
33, 2.19006, 0.163396, 188.897, -0.000976562, -0.000976562, -0.00195312, -0.0546875, 0.370117, -9.75293, 1.28.2022 18:10:41.803
34, 2.19006, 0.163396, 188.897, -0.000976562, -0.000976562, 0, 0.0292969, 0.380859, -9.7373, 1.28.2022 18:10:41.811
35, 2.19006, 0.163396, 188.897, -0.000976562, 0, -0.00195312, -0.0634766, 0.388672, -9.73633, 1.28.2022 18:10:41.819
36, 2.19002, 0.16353, 188.904, -0.000976562, 0, -0.00195312, -0.0234375, 0.392578, -9.71484, 1.28.2022 18:10:41.827
37, 2.19002, 0.16353, 188.904, 0, 0, 0, 0.0253906, 0.370117, -9.68848, 1.28.2022 18:10:41.835
38, 2.19002, 0.16353, 188.904, 0, 0, -0.00195312, -0.0712891, 0.366211, -9.72266, 1.28.2022 18:10:41.843
39, 2.19002, 0.16353, 188.904, 0, 0, 0, 0.0078125, 0.344727, -9.70996, 1.28.2022 18:10:41.851
40, 2.19002, 0.16353, 188.904, -0.000976562, 0, 0, -0.0283203, 0.384766, -9.76465, 1.28.2022 18:10:41.859
41, 2.19002, 0.16353, 188.904, 0, 0, 0, -0.0488281, 0.394531, -9.70508, 1.28.2022 18:10:41.867
42, 2.19056, 0.156558, 188.904, -0.000976562, 0.000976562, 0.000976562, 0.0341797, 0.376953, -9.74023, 1.28.2022 18:10:41.875
43, 2.19056, 0.156558, 188.904, -0.000976562, 0.000976562, 0, -0.0390625, 0.357422, -9.65723, 1.28.2022 18:10:41.883
44, 2.19757, 0.156967, 188.897, -0.000976562, 0.000976562, 0, -0.0361328, 0.362305, -9.66602, 1.28.2022 18:10:41.891
45, 2.19757, 0.156967, 188.897, -0.000976562, -0.000976562, 0, 0.0107422, 0.349609, -9.7168, 1.28.2022 18:10:41.899
46, 2.19753, 0.157101, 188.904, -0.000976562, 0.000976562, -0.000976562, -0.0859375, 0.398438, -9.74219, 1.28.2022 18:10:41.907
47, 2.19753, 0.157101, 188.904, -0.000976562, 0, 0, -0.015625, 0.388672, -9.67578, 1.28.2022 18:10:41.915
48, 2.19757, 0.156967, 188.897, 0, 0, 0.00195312, -0.0322266, 0.364258, -9.71387, 1.28.2022 18:10:41.923
49, 2.19757, 0.156967, 188.897, 0, 0, 0.000976562, -0.078125, 0.364258, -9.72949, 1.28.2022 18:10:41.931
50, 2.19811, 0.149995, 188.897, 0, 0, 0, 0.0292969, 0.354492, -9.71484, 1.28.2022 18:10:41.939
51, 2.19811, 0.149995, 188.897, -0.000976562, 0, 0, -0.0800781, 0.384766, -9.69336, 1.28.2022 18:10:41.947
52, 2.19811, 0.149995, 188.897, -0.000976562, -0.000976562, -0.00195312, -0.00585938, 0.361328, -9.69238, 1.28.2022 18:10:41.955
53, 2.19811, 0.149995, 188.897, 0, 0, 0.000976562, 0.0107422, 0.384766, -9.67871, 1.28.2022 18:10:41.963
54, 2.19811, 0.149995, 188.897, -0.000976562, 0.000976562, 0, -0.0820312, 0.389648, -9.7002, 1.28.2022 18:10:41.971
55, 2.19811, 0.149995, 188.897, -0.000976562, -0.000976562, -0.00195312, 0.00292969, 0.344727, -9.7168, 1.28.2022 18:10:41.979
56, 2.19811, 0.149995, 188.897, -0.000976562, 0, 0, 0.00292969, 0.366211, -9.7207, 1.28.2022 18:10:41.987
57, 2.19811, 0.149995, 188.897, -0.000976562, 0.000976562, 0, -0.0732422, 0.382812, -9.7002, 1.28.2022 18:10:41.995
58, 2.19811, 0.149995, 188.897, 0.000976562, 0.000976562, 0, 0.00585938, 0.34668, -9.70312, 1.28.2022 18:10:42.003
59, 2.19811, 0.149995, 188.897, 0, -0.000976562, 0, -0.0664062, 0.392578, -9.72168, 1.28.2022 18:10:42.011
60, 2.19811, 0.149995, 188.897, -0.000976562, -0.000976562, 0, -0.0322266, 0.387695, -9.70312, 1.28.2022 18:10:42.019
61, 2.19811, 0.149995, 188.897, -0.000976562, -0.000976562, 0, -0.00195312, 0.344727, -9.70703, 1.28.2022 18:10:42.027
62, 2.19811, 0.149995, 188.897, -0.000976562, -0.000976562, 0, -0.0898438, 0.385742, -9.72852, 1.28.2022 18:10:42.035
63, 2.19811, 0.149995, 188.897, 0, 0.000976562, 0, 0.0195312, 0.334961, -9.71777, 1.28.2022 18:10:42.043
64, 2.19811, 0.149995, 188.897, -0.000976562, -0.000976562, 0, -0.0234375, 0.322266, -9.75781, 1.28.2022 18:10:42.051
65, 2.19811, 0.149995, 188.897, 0, -0.000976562, 0, -0.0917969, 0.373047, -9.69824, 1.28.2022 18:10:42.059
66, 2.19114, 0.149452, 188.897, 0, -0.00195312, 0, 0.00683594, 0.357422, -9.66699, 1.28.2022 18:10:42.067
67, 2.1906, 0.156424, 188.897, 0, -0.000976562, 0, -0.0302734, 0.349609, -9.72363, 1.28.2022 18:10:42.075
68, 2.1906, 0.156424, 188.897, 0, -0.000976562, 0.000976562, -0.0419922, 0.384766, -9.68457, 1.28.2022 18:10:42.083
69, 2.1906, 0.156424, 188.897, 0, -0.000976562, 0, -0.000976562, 0.363281, -9.7002, 1.28.2022 18:10:42.091
70, 2.1906, 0.156424, 188.897, -0.000976562, -0.00195312, 0, -0.0888672, 0.391602, -9.68359, 1.28.2022 18:10:42.099
71, 2.1906, 0.156424, 188.897, 0, -0.000976562, -0.000976562, -0.0185547, 0.361328, -9.7207, 1.28.2022 18:10:42.107
72, 2.1906, 0.156424, 188.897, -0.000976562, -0.000976562, 0, -0.0175781, 0.358398, -9.69238, 1.28.2022 18:10:42.115
73, 2.1906, 0.156424, 188.897, -0.000976562, -0.00195312, 0, -0.0800781, 0.368164, -9.69629, 1.28.2022 18:10:42.123
74, 2.18309, 0.162854, 188.897, -0.000976562, -0.00195312, 0.000976562, 0.0205078, 0.34375, -9.69824, 1.28.2022 18:10:42.131
75, 2.18309, 0.162854, 188.897, -0.000976562, 0.000976562, 0.000976562, -0.046875, 0.370117, -9.69434, 1.28.2022 18:10:42.139
76, 2.18309, 0.162854, 188.897, 0, -0.00195312, 0, -0.0439453, 0.363281, -9.69434, 1.28.2022 18:10:42.147
77, 2.18309, 0.162854, 188.897, 0, -0.000976562, 0, 0.00683594, 0.34082, -9.75, 1.28.2022 18:10:42.155
78, 2.18309, 0.162854, 188.897, -0.000976562, -0.000976562, 0, -0.0605469, 0.373047, -9.70312, 1.28.2022 18:10:42.163
79, 2.18309, 0.162854, 188.897, -0.000976562, -0.000976562, -0.000976562, -0.0253906, 0.362305, -9.72559, 1.28.2022 18:10:42.171
80, 2.18309, 0.162854, 188.897, 0, -0.000976562, 0, -0.0380859, 0.357422, -9.74219, 1.28.2022 18:10:42.179
81, 2.17558, 0.169283, 188.897, 0, -0.00195312, -0.00195312, -0.0732422, 0.405273, -9.74707, 1.28.2022 18:10:42.187
82, 2.17558, 0.169283, 188.897, -0.000976562, -0.000976562, -0.000976562, 0.0488281, 0.381836, -9.68359, 1.28.2022 18:10:42.195
83, 2.17558, 0.169283, 188.897, 0, -0.00195312, -0.00195312, -0.0576172, 0.388672, -9.66016, 1.28.2022 18:10:42.203
84, 2.17558, 0.169283, 188.897, -0.000976562, -0.000976562, 0, -0.0517578, 0.37793, -9.71484, 1.28.2022 18:10:42.211
85, 2.17558, 0.169283, 188.897, -0.00195312, -0.00195312, -0.000976562, 0.0146484, 0.357422, -9.7334, 1.28.2022 18:10:42.219
86, 2.17558, 0.169283, 188.897, -0.000976562, -0.000976562, 0, -0.0771484, 0.384766, -9.69336, 1.28.2022 18:10:42.227
87, 2.17558, 0.169283, 188.897, 0, 0.000976562, 0, -0.00585938, 0.390625, -9.71582, 1.28.2022 18:10:42.235
88, 2.17558, 0.169283, 188.897, 0, -0.000976562, -0.000976562, 0.00488281, 0.364258, -9.7334, 1.28.2022 18:10:42.243
89, 2.17558, 0.169283, 188.897, -0.000976562, 0, 0, -0.0664062, 0.367188, -9.73633, 1.28.2022 18:10:42.251
90, 2.17558, 0.169283, 188.897, 0, 0, 0, 0.0322266, 0.397461, -9.71387, 1.28.2022 18:10:42.259
91, 2.17504, 0.176255, 188.897, -0.000976562, -0.000976562, 0, -0.0537109, 0.382812, -9.71973, 1.28.2022 18:10:42.267
92, 2.17504, 0.176255, 188.897, -0.000976562, 0, -0.000976562, -0.0439453, 0.389648, -9.67676, 1.28.2022 18:10:42.275
93, 2.17504, 0.176255, 188.897, -0.000976562, 0, 0, 0.00585938, 0.354492, -9.7168, 1.28.2022 18:10:42.283
94, 2.17504, 0.176255, 188.897, 0, 0.000976562, -0.000976562, -0.0722656, 0.392578, -9.69531, 1.28.2022 18:10:42.291
95, 2.175, 0.176388, 188.904, -0.000976562, 0, 0, -0.0185547, 0.373047, -9.71582, 1.28.2022 18:10:42.299
96, 2.175, 0.176388, 188.904, 0, 0, 0, -0.0185547, 0.339844, -9.71191, 1.28.2022 18:10:42.307
97, 2.175, 0.176388, 188.904, -0.000976562, -0.000976562, 0, -0.0585938, 0.37793, -9.68457, 1.28.2022 18:10:42.315
98, 2.18201, 0.176798, 188.897, -0.000976562, -0.000976562, 0, 0.015625, 0.360352, -9.66504, 1.28.2022 18:10:42.323
99, 2.18201, 0.176798, 188.897, -0.000976562, -0.000976562, 0, -0.0351562, 0.378906, -9.71973, 1.28.2022 18:10:42.331
100, 2.18201, 0.176798, 188.897, -0.000976562, 0, 0.000976562, -0.0458984, 0.373047, -9.68457, 1.28.2022 18:10:42.339
101, 2.18201, 0.176798, 188.897, -0.000976562, 0, 0, -0.000976562, 0.348633, -9.69336, 1.28.2022 18:10:42.347
102, 2.18201, 0.176798, 188.897, -0.000976562, 0, 0, -0.0800781, 0.397461, -9.7168, 1.28.2022 18:10:42.355
103, 2.18201, 0.176798, 188.897, 0, 0, 0, -0.0283203, 0.378906, -9.74414, 1.28.2022 18:10:42.363
104, 2.18201, 0.176798, 188.897, 0.000976562, 0, -0.000976562, -0.0234375, 0.361328, -9.71582, 1.28.2022 18:10:42.371
105, 2.18201, 0.176798, 188.897, 0, 0, 0, -0.0654297, 0.389648, -9.69824, 1.28.2022 18:10:42.377
106, 2.18201, 0.176798, 188.897, -0.000976562, 0.000976562, 0, 0.00390625, 0.382812, -9.69727, 1.28.2022 18:10:42.385
107, 2.18201, 0.176798, 188.897, 0, 0, 0.000976562, -0.0400391, 0.376953, -9.74805, 1.28.2022 18:10:42.393
108, 2.18201, 0.176798, 188.897, -0.000976562, 0, 0.000976562, -0.0400391, 0.388672, -9.73145, 1.28.2022 18:10:42.401
109, 2.18201, 0.176798, 188.897, -0.000976562, 0, 0, -0.0136719, 0.383789, -9.72754, 1.28.2022 18:10:42.409
110, 2.18897, 0.17734, 188.897, -0.000976562, -0.000976562, 0.000976562, -0.0947266, 0.380859, -9.71484, 1.28.2022 18:10:42.417
111, 2.18897, 0.17734, 188.897, 0, 0, 0.000976562, -0.00878906, 0.371094, -9.71094, 1.28.2022 18:10:42.425
112, 2.18897, 0.17734, 188.897, 0, 0.000976562, 0, 0.0146484, 0.37207, -9.74023, 1.28.2022 18:10:42.433
113, 2.18897, 0.17734, 188.897, 0, 0, 0.000976562, -0.0703125, 0.384766, -9.7002, 1.28.2022 18:10:42.441
114, 2.18897, 0.17734, 188.897, -0.000976562, 0, 0, 0.0107422, 0.363281, -9.69531, 1.28.2022 18:10:42.449
115, 2.18897, 0.17734, 188.897, -0.000976562, 0, 0, -0.0419922, 0.37793, -9.70117, 1.28.2022 18:10:42.457
116, 2.18897, 0.17734, 188.897, 0, 0, -0.000976562, -0.0322266, 0.390625, -9.71973, 1.28.2022 18:10:42.465
117, 2.18897, 0.17734, 188.897, -0.00195312, 0, 0.000976562, 0.00488281, 0.345703, -9.73633, 1.28.2022 18:10:42.473
118, 2.19594, 0.177883, 188.897, -0.000976562, 0, 0, -0.0732422, 0.375977, -9.72656, 1.28.2022 18:10:42.481
119, 2.19594, 0.177883, 188.897, -0.000976562, 0, 0.000976562, -0.0175781, 0.375, -9.69238, 1.28.2022 18:10:42.489
120, 2.19594, 0.177883, 188.897, -0.000976562, -0.000976562, 0, -0.00878906, 0.354492, -9.71191, 1.28.2022 18:10:42.497
121, 2.19594, 0.177883, 188.897, 0, 0, -0.000976562, -0.0820312, 0.401367, -9.69238, 1.28.2022 18:10:42.505
122, 2.19594, 0.177883, 188.897, -0.000976562, 0, -0.000976562, 0.0214844, 0.369141, -9.73535, 1.28.2022 18:10:42.513
123, 2.19594, 0.177883, 188.897, 0, 0, 0, -0.0371094, 0.358398, -9.69922, 1.28.2022 18:10:42.521
124, 2.19594, 0.177883, 188.897, -0.000976562, 0, -0.000976562, -0.0556641, 0.384766, -9.69336, 1.28.2022 18:10:42.529
125, 2.19594, 0.177883, 188.897, 0, -0.000976562, -0.000976562, 0.00585938, 0.359375, -9.71387, 1.28.2022 18:10:42.537
126, 2.19594, 0.177883, 188.897, 0, 0, -0.000976562, -0.046875, 0.394531, -9.69141, 1.28.2022 18:10:42.545
127, 2.19594, 0.177883, 188.897, -0.000976562, 0, -0.000976562, -0.0302734, 0.368164, -9.69434, 1.28.2022 18:10:42.553
128, 2.19594, 0.177883, 188.897, -0.000976562, 0, 0, -0.0244141, 0.360352, -9.68262, 1.28.2022 18:10:42.561
129, 2.20291, 0.178425, 188.897, -0.00195312, 0, 0, -0.0546875, 0.386719, -9.76465, 1.28.2022 18:10:42.569
130, 2.20291, 0.178425, 188.897, -0.000976562, 0.000976562, -0.000976562, 0.0175781, 0.356445, -9.70508, 1.28.2022 18:10:42.577
131, 2.20291, 0.178425, 188.897, -0.000976562, 0, -0.000976562, -0.00878906, 0.394531, -9.71094, 1.28.2022 18:10:42.585
132, 2.20291, 0.178425, 188.897, -0.000976562, 0, -0.000976562, -0.0332031, 0.393555, -9.74609, 1.28.2022 18:10:42.593
133, 2.20291, 0.178425, 188.897, 0, -0.000976562, -0.000976562, 0.0126953, 0.364258, -9.7168, 1.28.2022 18:10:42.601
134, 2.20291, 0.178425, 188.897, 0, -0.000976562, -0.000976562, -0.0917969, 0.378906, -9.72168, 1.28.2022 18:10:42.609
135, 2.20291, 0.178425, 188.897, 0, -0.000976562, -0.000976562, -0.0126953, 0.389648, -9.6875, 1.28.2022 18:10:42.617
136, 2.20291, 0.178425, 188.897, -0.000976562, -0.000976562, -0.000976562, 0, 0.364258, -9.74023, 1.28.2022 18:10:42.625
137, 2.20291, 0.178425, 188.897, 0, 0, -0.000976562, -0.078125, 0.37207, -9.72656, 1.28.2022 18:10:42.633
138, 2.20291, 0.178425, 188.897, -0.000976562, 0, -0.000976562, -0.0136719, 0.37207, -9.73926, 1.28.2022 18:10:42.641
139, 2.20291, 0.178425, 188.897, -0.000976562, 0, 0, -0.0253906, 0.374023, -9.72266, 1.28.2022 18:10:42.649
140, 2.20345, 0.171453, 188.897, -0.000976562, 0.000976562, -0.000976562, -0.0615234, 0.368164, -9.70801, 1.28.2022 18:10:42.657
141, 2.20345, 0.171453, 188.897, -0.000976562, 0, -0.000976562, 0.0224609, 0.364258, -9.72656, 1.28.2022 18:10:42.665
142, 2.20345, 0.171453, 188.897, 0, -0.000976562, -0.000976562, -0.0546875, 0.398438, -9.74805, 1.28.2022 18:10:42.673
143, 2.20345, 0.171453, 188.897, -0.000976562, -0.000976562, -0.000976562, 0.00585938, 0.381836, -9.68555, 1.28.2022 18:10:42.681
144, 2.20345, 0.171453, 188.897, -0.000976562, 0.000976562, -0.00195312, -0.015625, 0.382812, -9.69629, 1.28.2022 18:10:42.689
145, 2.20345, 0.171453, 188.897, -0.000976562, 0, -0.000976562, -0.0898438, 0.37793, -9.69141, 1.28.2022 18:10:42.697
146, 2.20345, 0.171453, 188.897, 0, 0, -0.000976562, 0.0126953, 0.357422, -9.72852, 1.28.2022 18:10:42.705
147, 2.20345, 0.171453, 188.897, 0, 0, -0.000976562, -0.015625, 0.364258, -9.72363, 1.28.2022 18:10:42.713
148, 2.20345, 0.171453, 188.897, 0, 0, -0.000976562, -0.046875, 0.37793, -9.70605, 1.28.2022 18:10:42.721
149, 2.20345, 0.171453, 188.897, 0, 0.000976562, -0.000976562, 0.0126953, 0.352539, -9.73145, 1.28.2022 18:10:42.729
150, 2.20345, 0.171453, 188.897, -0.000976562, 0.000976562, 0.000976562, -0.0732422, 0.367188, -9.72461, 1.28.2022 18:10:42.737
151, 2.20345, 0.171453, 188.897, 0, 0, -0.000976562, -0.0449219, 0.402344, -9.72168, 1.28.2022 18:10:42.745
152, 2.20345, 0.171453, 188.897, -0.000976562, 0, -0.000976562, -0.0136719, 0.371094, -9.7207, 1.28.2022 18:10:42.753
153, 2.20345, 0.171453, 188.897, -0.00195312, -0.000976562, -0.000976562, -0.0761719, 0.37207, -9.72656, 1.28.2022 18:10:42.761
154, 2.20345, 0.171453, 188.897, -0.000976562, 0, -0.000976562, 0.0224609, 0.359375, -9.70996, 1.28.2022 18:10:42.769
155, 2.20345, 0.171453, 188.897, 0, 0, -0.000976562, -0.0253906, 0.344727, -9.71191, 1.28.2022 18:10:42.777
156, 2.20345, 0.171453, 188.897, -0.000976562, 0, -0.000976562, -0.0351562, 0.385742, -9.71289, 1.28.2022 18:10:42.785
157, 2.20345, 0.171453, 188.897, -0.000976562, 0, -0.000976562, 0.0292969, 0.366211, -9.70508, 1.28.2022 18:10:42.793
158, 2.20399, 0.164481, 188.897, -0.000976562, 0.000976562, -0.000976562, -0.0830078, 0.361328, -9.71777, 1.28.2022 18:10:42.801
159, 2.20399, 0.164481, 188.897, -0.000976562, 0, -0.000976562, -0.0341797, 0.375, -9.68945, 1.28.2022 18:10:42.809
160, 2.20399, 0.164481, 188.897, -0.000976562, 0, -0.00195312, -0.0224609, 0.373047, -9.69238, 1.28.2022 18:10:42.817
161, 2.20399, 0.164481, 188.897, 0, -0.00195312, 0, -0.078125, 0.388672, -9.73828, 1.28.2022 18:10:42.825
162, 2.20399, 0.164481, 188.897, -0.000976562, 0, -0.00195312, 0.00683594, 0.388672, -9.75586, 1.28.2022 18:10:42.833
163, 2.20399, 0.164481, 188.897, -0.000976562, 0, -0.000976562, -0.0253906, 0.389648, -9.69434, 1.28.2022 18:10:42.841
164, 2.20399, 0.164481, 188.897, -0.000976562, 0, -0.000976562, -0.0410156, 0.413086, -9.66211, 1.28.2022 18:10:42.849
165, 2.20399, 0.164481, 188.897, -0.000976562, 0.000976562, -0.000976562, 0.00683594, 0.338867, -9.75488, 1.28.2022 18:10:42.857
166, 2.20399, 0.164481, 188.897, 0, 0, -0.00195312, -0.0537109, 0.382812, -9.69336, 1.28.2022 18:10:42.865
167, 2.20399, 0.164481, 188.897, 0, -0.000976562, -0.000976562, -0.0400391, 0.382812, -9.71484, 1.28.2022 18:10:42.873
168, 2.20399, 0.164481, 188.897, 0, 0, -0.000976562, 0.0126953, 0.352539, -9.72363, 1.28.2022 18:10:42.881
169, 2.20399, 0.164481, 188.897, -0.000976562, 0, -0.000976562, -0.0439453, 0.397461, -9.7002, 1.28.2022 18:10:42.889
170, 2.20399, 0.164481, 188.897, -0.000976562, 0, -0.00195312, 0.00390625, 0.384766, -9.69922, 1.28.2022 18:10:42.897
171, 2.20399, 0.164481, 188.897, 0, 0, -0.000976562, -0.0429688, 0.368164, -9.7793, 1.28.2022 18:10:42.905
172, 2.20399, 0.164481, 188.897, -0.000976562, 0, -0.000976562, -0.0488281, 0.396484, -9.68164, 1.28.2022 18:10:42.913
173, 2.20399, 0.164481, 188.897, -0.000976562, 0, -0.000976562, 0.0195312, 0.34668, -9.71484, 1.28.2022 18:10:42.921
174, 2.20399, 0.164481, 188.897, -0.000976562, 0, -0.000976562, -0.0615234, 0.385742, -9.72168, 1.28.2022 18:10:42.929
175, 2.20399, 0.164481, 188.897, -0.000976562, 0, -0.000976562, -0.0283203, 0.418945, -9.72656, 1.28.2022 18:10:42.937
176, 2.20399, 0.164481, 188.897, -0.000976562, 0, -0.00195312, 0.00976562, 0.364258, -9.72852, 1.28.2022 18:10:42.945
177, 2.21096, 0.165024, 188.897, 0, 0, -0.000976562, -0.0654297, 0.385742, -9.70508, 1.28.2022 18:10:42.953
178, 2.21096, 0.165024, 188.897, -0.000976562, 0, -0.000976562, -0.00390625, 0.351562, -9.70996, 1.28.2022 18:10:42.961
179, 2.21096, 0.165024, 188.897, -0.000976562, 0, -0.00195312, -0.0380859, 0.347656, -9.74414, 1.28.2022 18:10:42.969
180, 2.21096, 0.165024, 188.897, 0, 0, -0.000976562, -0.0566406, 0.375977, -9.71094, 1.28.2022 18:10:42.977
181, 2.21096, 0.165024, 188.897, 0, 0, -0.000976562, 0.0126953, 0.354492, -9.70703, 1.28.2022 18:10:42.985
182, 2.21096, 0.165024, 188.897, -0.000976562, 0, -0.000976562, -0.0693359, 0.365234, -9.75586, 1.28.2022 18:10:42.993
183, 2.21096, 0.165024, 188.897, -0.000976562, 0, -0.000976562, -0.0195312, 0.375, -9.7627, 1.28.2022 18:10:43.001
184, 2.21096, 0.165024, 188.897, -0.000976562, -0.000976562, -0.000976562, 0.0214844, 0.333008, -9.73438, 1.28.2022 18:10:43.009
185, 2.21096, 0.165024, 188.897, 0, 0, 0, -0.0615234, 0.386719, -9.75488, 1.28.2022 18:10:43.017
186, 2.21091, 0.165159, 188.904, 0, 0.000976562, -0.000976562, 0.00488281, 0.371094, -9.72852, 1.28.2022 18:10:43.025
187, 2.21091, 0.165159, 188.904, -0.000976562, 0.000976562, 0, -0.0449219, 0.366211, -9.72266, 1.28.2022 18:10:43.033
188, 2.20395, 0.164616, 188.904, 0, 0, 0, -0.0322266, 0.356445, -9.71387, 1.28.2022 18:10:43.041
189, 2.20395, 0.164616, 188.904, -0.000976562, 0, -0.000976562, 0.0244141, 0.364258, -9.74023, 1.28.2022 18:10:43.049
190, 2.20395, 0.164616, 188.904, -0.000976562, 0, 0, -0.078125, 0.380859, -9.70508, 1.28.2022 18:10:43.057
191, 2.20395, 0.164616, 188.904, 0, 0.000976562, 0, -0.0517578, 0.382812, -9.71484, 1.28.2022 18:10:43.065
192, 2.20449, 0.157644, 188.904, -0.000976562, 0.000976562, -0.000976562, 0.000976562, 0.363281, -9.70898, 1.28.2022 18:10:43.073
193, 2.20449, 0.157644, 188.904, -0.000976562, -0.00195312, -0.000976562, -0.0966797, 0.369141, -9.70801, 1.28.2022 18:10:43.081
194, 2.20449, 0.157644, 188.904, 0.000976562, 0.000976562, 0, 0.000976562, 0.373047, -9.70215, 1.28.2022 18:10:43.089
195, 2.20449, 0.157644, 188.904, 0, 0, -0.000976562, -0.0253906, 0.374023, -9.71777, 1.28.2022 18:10:43.097
196, 2.20395, 0.164616, 188.904, -0.000976562, -0.00195312, 0, -0.0615234, 0.392578, -9.70996, 1.28.2022 18:10:43.105
197, 2.19698, 0.164073, 188.904, 0, -0.00195312, 0, 0.0175781, 0.362305, -9.72852, 1.28.2022 18:10:43.113
198, 2.19698, 0.164073, 188.904, -0.00195312, 0, 0.000976562, -0.0400391, 0.362305, -9.73242, 1.28.2022 18:10:43.121
199, 2.19698, 0.164073, 188.904, -0.000976562, 0, -0.000976562, -0.0371094, 0.397461, -9.69824, 1.28.2022 18:10:43.129
200, 2.19698, 0.164073, 188.904, 0, 0, 0, 0.0195312, 0.354492, -9.71191, 1.28.2022 18:10:43.137
201, 2.19698, 0.164073, 188.904, -0.000976562, 0, 0, -0.0683594, 0.418945, -9.7207, 1.28.2022 18:10:43.145
202, 2.19698, 0.164073, 188.904, -0.000976562, 0, 0, -0.0205078, 0.373047, -9.70898, 1.28.2022 18:10:43.153
203, 2.19698, 0.164073, 188.904, -0.000976562, 0, -0.000976562, -0.0283203, 0.365234, -9.75391, 1.28.2022 18:10:43.161
204, 2.19698, 0.164073, 188.904, -0.000976562, 0, 0, -0.0761719, 0.376953, -9.73145, 1.28.2022 18:10:43.169
205, 2.19698, 0.164073, 188.904, -0.000976562, 0, 0, 0.0205078, 0.341797, -9.69336, 1.28.2022 18:10:43.177
206, 2.19698, 0.164073, 188.904, -0.00195312, -0.00195312, 0, -0.0654297, 0.341797, -9.68555, 1.28.2022 18:10:43.185
207, 2.19698, 0.164073, 188.904, -0.00195312, 0, 0, -0.0488281, 0.386719, -9.67676, 1.28.2022 18:10:43.193
208, 2.19698, 0.164073, 188.904, -0.00195312, 0, 0, -0.0166016, 0.365234, -9.75391, 1.28.2022 18:10:43.201
209, 2.19698, 0.164073, 188.904, -0.000976562, 0, 0, -0.0878906, 0.392578, -9.72168, 1.28.2022 18:10:43.209
210, 2.19698, 0.164073, 188.904, -0.000976562, 0, 0, -0.0302734, 0.361328, -9.69922, 1.28.2022 18:10:43.217
211, 2.19698, 0.164073, 188.904, -0.000976562, 0, -0.000976562, 0.000976562, 0.342773, -9.72852, 1.28.2022 18:10:43.225
212, 2.19698, 0.164073, 188.904, -0.000976562, 0, 0, -0.0732422, 0.373047, -9.70312, 1.28.2022 18:10:43.233
213, 2.19644, 0.171045, 188.904, -0.000976562, -0.00195312, 0, -0.00585938, 0.379883, -9.68945, 1.28.2022 18:10:43.241
214, 2.19644, 0.171045, 188.904, -0.000976562, -0.00195312, 0.000976562, -0.0302734, 0.371094, -9.72266, 1.28.2022 18:10:43.249
215, 2.19644, 0.171045, 188.904, -0.000976562, 0, 0.000976562, -0.0449219, 0.348633, -9.75586, 1.28.2022 18:10:43.257
216, 2.19644, 0.171045, 188.904, -0.000976562, 0.000976562, 0, 0.0107422, 0.354492, -9.71484, 1.28.2022 18:10:43.265
217, 2.19644, 0.171045, 188.904, -0.000976562, -0.000976562, 0, -0.0800781, 0.399414, -9.70215, 1.28.2022 18:10:43.273
218, 2.19644, 0.171045, 188.904, -0.000976562, -0.000976562, 0, 0.0078125, 0.344727, -9.71973, 1.28.2022 18:10:43.281
219, 2.19648, 0.170911, 188.897, 0, -0.000976562, 0, -0.0107422, 0.363281, -9.6875, 1.28.2022 18:10:43.289
220, 2.19648, 0.170911, 188.897, -0.000976562, -0.000976562, 0, -0.0634766, 0.395508, -9.72168, 1.28.2022 18:10:43.297
221, 2.19594, 0.177883, 188.897, -0.000976562, 0.000976562, 0, 0.0234375, 0.357422, -9.66699, 1.28.2022 18:10:43.305
222, 2.1959, 0.178017, 188.904, -0.000976562, 0.000976562, -0.000976562, -0.0332031, 0.385742, -9.73145, 1.28.2022 18:10:43.313
223, 2.1959, 0.178017, 188.904, -0.000976562, -0.00195312, -0.000976562, -0.0517578, 0.408203, -9.74707, 1.28.2022 18:10:43.321
224, 2.1959, 0.178017, 188.904, -0.000976562, -0.00195312, 0, 0.00683594, 0.362305, -9.75684, 1.28.2022 18:10:43.329
225, 2.18893, 0.177474, 188.904, 0, -0.00195312, 0, -0.0878906, 0.385742, -9.73535, 1.28.2022 18:10:43.337
226, 2.18893, 0.177474, 188.904, -0.000976562, -0.000976562, 0, -0.0253906, 0.404297, -9.7168, 1.28.2022 18:10:43.345
227, 2.18893, 0.177474, 188.904, -0.00195312, 0, 0, -0.0273438, 0.358398, -9.6875, 1.28.2022 18:10:43.351
228, 2.1959, 0.178017, 188.904, -0.00195312, 0.000976562, 0, -0.0585938, 0.361328, -9.71094, 1.28.2022 18:10:43.359
229, 2.1959, 0.178017, 188.904, -0.00195312, 0, -0.000976562, 0.0107422, 0.365234, -9.69531, 1.28.2022 18:10:43.367
230, 2.1959, 0.178017, 188.904, 0, -0.00195312, 0, -0.0517578, 0.368164, -9.69629, 1.28.2022 18:10:43.375
231, 2.1959, 0.178017, 188.904, 0, -0.000976562, 0, -0.0273438, 0.382812, -9.70605, 1.28.2022 18:10:43.383
232, 2.1959, 0.178017, 188.904, -0.000976562, 0.000976562, -0.000976562, 0.0341797, 0.357422, -9.74121, 1.28.2022 18:10:43.391
233, 2.1959, 0.178017, 188.904, 0, 0, -0.000976562, -0.0732422, 0.381836, -9.7334, 1.28.2022 18:10:43.399
234, 2.18893, 0.177474, 188.904, 0, 0.000976562, 0, -0.00390625, 0.363281, -9.7041, 1.28.2022 18:10:43.407
235, 2.18893, 0.177474, 188.904, 0, 0.000976562, 0.000976562, -0.0234375, 0.364258, -9.73242, 1.28.2022 18:10:43.415
236, 2.18893, 0.177474, 188.904, 0.00195312, -0.000976562, 0.000976562, -0.0615234, 0.361328, -9.71582, 1.28.2022 18:10:43.423
237, 2.18893, 0.177474, 188.904, -0.000976562, -0.00195312, 0, 0.0273438, 0.349609, -9.71289, 1.28.2022 18:10:43.431
238, 2.18893, 0.177474, 188.904, 0, 0, -0.000976562, -0.0371094, 0.352539, -9.7207, 1.28.2022 18:10:43.439
239, 2.18893, 0.177474, 188.904, -0.000976562, -0.000976562, 0, -0.0400391, 0.371094, -9.70605, 1.28.2022 18:10:43.447
240, 2.18893, 0.177474, 188.904, -0.00195312, 0, 0, 0.0507812, 0.37793, -9.71484, 1.28.2022 18:10:43.455
241, 2.18893, 0.177474, 188.904, -0.000976562, 0.000976562, 0.000976562, -0.0966797, 0.382812, -9.70703, 1.28.2022 18:10:43.463
242, 2.18897, 0.17734, 188.897, -0.000976562, 0.000976562, 0, -0.00488281, 0.37207, -9.74902, 1.28.2022 18:10:43.471
243, 2.18952, 0.170368, 188.897, -0.000976562, -0.00195312, 0, -0.0214844, 0.365234, -9.76758, 1.28.2022 18:10:43.479
244, 2.18952, 0.170368, 188.897, 0, -0.00195312, 0, -0.0683594, 0.371094, -9.69824, 1.28.2022 18:10:43.487
245, 2.18952, 0.170368, 188.897, 0, 0.000976562, -0.000976562, 0.0175781, 0.373047, -9.70703, 1.28.2022 18:10:43.495
246, 2.18947, 0.170502, 188.904, 0, 0.000976562, -0.000976562, -0.0517578, 0.374023, -9.73926, 1.28.2022 18:10:43.503
247, 2.18947, 0.170502, 188.904, -0.000976562, 0.000976562, 0, -0.0351562, 0.382812, -9.71289, 1.28.2022 18:10:43.511
248, 2.18947, 0.170502, 188.904, -0.000976562, -0.000976562, 0.000976562, -0.000976562, 0.368164, -9.70215, 1.28.2022 18:10:43.519
249, 2.18952, 0.170368, 188.897, -0.000976562, -0.000976562, 0, -0.0732422, 0.397461, -9.72168, 1.28.2022 18:10:43.527
250, 2.18952, 0.170368, 188.897, -0.000976562, -0.000976562, -0.000976562, -0.0146484, 0.376953, -9.6709, 1.28.2022 18:10:43.535
251, 2.18947, 0.170502, 188.904, -0.000976562, -0.000976562, 0, -0.0136719, 0.362305, -9.74023, 1.28.2022 18:10:43.543
252, 2.18952, 0.170368, 188.897, -0.000976562, -0.000976562, 0, -0.0683594, 0.387695, -9.72168, 1.28.2022 18:10:43.551
253, 2.18952, 0.170368, 188.897, 0, -0.000976562, 0, 0.0371094, 0.363281, -9.70312, 1.28.2022 18:10:43.559
254, 2.18947, 0.170502, 188.904, 0, -0.000976562, -0.000976562, -0.0224609, 0.368164, -9.69922, 1.28.2022 18:10:43.567
255, 2.18947, 0.170502, 188.904, -0.000976562, 0, -0.000976562, -0.0419922, 0.375, -9.68262, 1.28.2022 18:10:43.575
256, 2.18947, 0.170502, 188.904, 0, -0.000976562, 0.000976562, 0.03125, 0.353516, -9.75488, 1.28.2022 18:10:43.583
257, 2.18305, 0.162987, 188.904, 0, -0.000976562, 0, -0.0566406, 0.371094, -9.70312, 1.28.2022 18:10:43.591
258, 2.18305, 0.162987, 188.904, -0.000976562, -0.000976562, 0, -0.0341797, 0.373047, -9.69629, 1.28.2022 18:10:43.599
259, 2.19002, 0.16353, 188.904, -0.000976562, -0.000976562, -0.000976562, -0.015625, 0.354492, -9.72559, 1.28.2022 18:10:43.607
260, 2.19002, 0.16353, 188.904, -0.000976562, -0.000976562, 0, -0.0703125, 0.390625, -9.70996, 1.28.2022 18:10:43.615
261, 2.19002, 0.16353, 188.904, -0.000976562, -0.000976562, 0, 0.0341797, 0.390625, -9.74414, 1.28.2022 18:10:43.623
262, 2.19002, 0.16353, 188.904, -0.000976562, -0.000976562, -0.000976562, -0.0400391, 0.357422, -9.72754, 1.28.2022 18:10:43.631
263, 2.19002, 0.16353, 188.904, -0.000976562, -0.000976562, 0, -0.0517578, 0.374023, -9.72949, 1.28.2022 18:10:43.639
264, 2.19002, 0.16353, 188.904, -0.000976562, -0.000976562, 0, 0.0224609, 0.359375, -9.72656, 1.28.2022 18:10:43.647
265, 2.19002, 0.16353, 188.904, -0.000976562, -0.00195312, 0, -0.0537109, 0.382812, -9.70312, 1.28.2022 18:10:43.655
266, 2.19002, 0.16353, 188.904, -0.000976562, -0.000976562, -0.000976562, -0.0126953, 0.367188, -9.67871, 1.28.2022 18:10:43.663
267, 2.19002, 0.16353, 188.904, 0, -0.000976562, 0, -0.0136719, 0.375977, -9.70898, 1.28.2022 18:10:43.671
268, 2.19002, 0.16353, 188.904, -0.000976562, -0.00195312, -0.00195312, -0.0703125, 0.394531, -9.68652, 1.28.2022 18:10:43.679
269, 2.19002, 0.16353, 188.904, -0.000976562, -0.00195312, -0.000976562, 0.00878906, 0.350586, -9.66992, 1.28.2022 18:10:43.687
270, 2.19002, 0.16353, 188.904, 0, 0, -0.000976562, -0.0400391, 0.359375, -9.72266, 1.28.2022 18:10:43.695
271, 2.19002, 0.16353, 188.904, 0, 0, 0, -0.0732422, 0.387695, -9.71484, 1.28.2022 18:10:43.703
272, 2.19056, 0.156558, 188.904, -0.000976562, -0.000976562, 0, 0.0458984, 0.367188, -9.74805, 1.28.2022 18:10:43.711
273, 2.19056, 0.156558, 188.904, 0, -0.000976562, 0.000976562, -0.0615234, 0.380859, -9.72168, 1.28.2022 18:10:43.719
274, 2.19056, 0.156558, 188.904, 0, 0, 0, -0.0126953, 0.394531, -9.68262, 1.28.2022 18:10:43.727
275, 2.19056, 0.156558, 188.904, 0, -0.000976562, 0.000976562, -0.0224609, 0.365234, -9.69238, 1.28.2022 18:10:43.735
276, 2.19056, 0.156558, 188.904, 0, -0.000976562, 0, -0.0917969, 0.400391, -9.71387, 1.28.2022 18:10:43.743
277, 2.19056, 0.156558, 188.904, 0, -0.000976562, 0, 0.0078125, 0.356445, -9.69824, 1.28.2022 18:10:43.751
278, 2.19056, 0.156558, 188.904, -0.000976562, -0.00195312, 0, -0.0273438, 0.349609, -9.70898, 1.28.2022 18:10:43.759
279, 2.19056, 0.156558, 188.904, -0.000976562, -0.000976562, 0, -0.0771484, 0.389648, -9.69336, 1.28.2022 18:10:43.767
280, 2.19056, 0.156558, 188.904, -0.000976562, -0.000976562, 0, 0.0146484, 0.350586, -9.75293, 1.28.2022 18:10:43.775
281, 2.19056, 0.156558, 188.904, -0.000976562, -0.000976562, 0, -0.0869141, 0.382812, -9.70312, 1.28.2022 18:10:43.783
282, 2.19056, 0.156558, 188.904, -0.000976562, -0.000976562, 0, -0.00195312, 0.369141, -9.7373, 1.28.2022 18:10:43.791
283, 2.19056, 0.156558, 188.904, 0, -0.000976562, 0, -0.00390625, 0.371094, -9.72754, 1.28.2022 18:10:43.799
284, 2.19056, 0.156558, 188.904, -0.000976562, -0.000976562, 0, -0.0517578, 0.380859, -9.73438, 1.28.2022 18:10:43.807
285, 2.19056, 0.156558, 188.904, -0.000976562, 0.000976562, 0, -0.00195312, 0.360352, -9.75195, 1.28.2022 18:10:43.815
286, 2.19056, 0.156558, 188.904, -0.000976562, -0.000976562, 0, -0.0273438, 0.373047, -9.69434, 1.28.2022 18:10:43.823
287, 2.1906, 0.156424, 188.897, 0, 0.000976562, 0, -0.0419922, 0.392578, -9.71973, 1.28.2022 18:10:43.831
288, 2.19056, 0.156558, 188.904, -0.000976562, -0.00195312, -0.000976562, -0.0234375, 0.359375, -9.73535, 1.28.2022 18:10:43.839
289, 2.19002, 0.16353, 188.904, -0.000976562, 0, -0.000976562, -0.0917969, 0.395508, -9.7168, 1.28.2022 18:10:43.847
290, 2.19002, 0.16353, 188.904, -0.00195312, 0.000976562, 0, -0.0166016, 0.383789, -9.73242, 1.28.2022 18:10:43.855
291, 2.19002, 0.16353, 188.904, -0.000976562, 0.000976562, 0, 0.0244141, 0.378906, -9.72559, 1.28.2022 18:10:43.863
292, 2.19698, 0.164073, 188.904, -0.000976562, -0.000976562, 0, -0.0654297, 0.402344, -9.70215, 1.28.2022 18:10:43.871
293, 2.19698, 0.164073, 188.904, -0.000976562, -0.000976562, 0, 0.0078125, 0.367188, -9.74707, 1.28.2022 18:10:43.879
294, 2.19698, 0.164073, 188.904, -0.000976562, -0.00195312, 0, -0.0322266, 0.369141, -9.7207, 1.28.2022 18:10:43.887
295, 2.19698, 0.164073, 188.904, -0.000976562, -0.00195312, 0, -0.0703125, 0.385742, -9.71191, 1.28.2022 18:10:43.895
296, 2.19698, 0.164073, 188.904, -0.00195312, -0.00195312, 0, 0.0429688, 0.352539, -9.72949, 1.28.2022 18:10:43.903
297, 2.19698, 0.164073, 188.904, 0, -0.00195312, -0.000976562, -0.0566406, 0.366211, -9.72266, 1.28.2022 18:10:43.911
298, 2.19698, 0.164073, 188.904, -0.000976562, 0.000976562, -0.000976562, -0.046875, 0.390625, -9.72168, 1.28.2022 18:10:43.919
299, 2.19698, 0.164073, 188.904, -0.000976562, -0.000976562, 0, -0.0166016, 0.362305, -9.74414, 1.28.2022 18:10:43.927
300, 2.19698, 0.164073, 188.904, -0.000976562, 0.000976562, 0, -0.0732422, 0.392578, -9.72168, 1.28.2022 18:10:43.935
301, 2.19698, 0.164073, 188.904, -0.000976562, -0.000976562, 0.000976562, 0.000976562, 0.358398, -9.69531, 1.28.2022 18:10:43.943
302, 2.20395, 0.164616, 188.904, -0.000976562, -0.000976562, 0, -0.0400391, 0.366211, -9.72559, 1.28.2022 18:10:43.951
303, 2.20395, 0.164616, 188.904, 0, 0, -0.000976562, -0.0634766, 0.385742, -9.7334, 1.28.2022 18:10:43.959
304, 2.20395, 0.164616, 188.904, -0.000976562, -0.000976562, 0, 0.0390625, 0.344727, -9.72949, 1.28.2022 18:10:43.967
305, 2.20395, 0.164616, 188.904, -0.000976562, 0, -0.000976562, -0.0712891, 0.393555, -9.73145, 1.28.2022 18:10:43.975
306, 2.20395, 0.164616, 188.904, -0.000976562, -0.00195312, 0.000976562, -0.0322266, 0.389648, -9.70117, 1.28.2022 18:10:43.983
307, 2.20399, 0.164481, 188.897, -0.000976562, -0.00195312, 0.000976562, 0.015625, 0.382812, -9.70215, 1.28.2022 18:10:43.991
308, 2.20345, 0.171453, 188.897, 0, -0.000976562, 0.000976562, -0.0751953, 0.37793, -9.7002, 1.28.2022 18:10:43.999
309, 2.20345, 0.171453, 188.897, -0.000976562, -0.000976562, 0.000976562, 0.00585938, 0.364258, -9.72168, 1.28.2022 18:10:44.007
310, 2.20345, 0.171453, 188.897, -0.000976562, -0.000976562, 0, -0.0117188, 0.376953, -9.74219, 1.28.2022 18:10:44.015
311, 2.20345, 0.171453, 188.897, -0.00195312, -0.000976562, 0.000976562, -0.0664062, 0.378906, -9.72949, 1.28.2022 18:10:44.023
312, 2.20345, 0.171453, 188.897, -0.00195312, -0.000976562, 0, 0.0166016, 0.355469, -9.75977, 1.28.2022 18:10:44.031
313, 2.20345, 0.171453, 188.897, -0.000976562, 0, 0, -0.0537109, 0.389648, -9.7002, 1.28.2022 18:10:44.039
314, 2.20345, 0.171453, 188.897, -0.000976562, 0, 0, -0.046875, 0.397461, -9.70312, 1.28.2022 18:10:44.047
315, 2.20345, 0.171453, 188.897, -0.000976562, 0.000976562, 0, 0.0195312, 0.351562, -9.70996, 1.28.2022 18:10:44.055
316, 2.20345, 0.171453, 188.897, 0.000976562, 0, -0.000976562, -0.101562, 0.37793, -9.69824, 1.28.2022 18:10:44.063
317, 2.20345, 0.171453, 188.897, 0.000976562, 0, -0.00195312, 0.00390625, 0.353516, -9.69043, 1.28.2022 18:10:44.071
318, 2.20345, 0.171453, 188.897, -0.000976562, -0.00195312, -0.00195312, -0.0419922, 0.375, -9.69434, 1.28.2022 18:10:44.079
319, 2.20345, 0.171453, 188.897, -0.000976562, 0, -0.00195312, -0.0634766, 0.402344, -9.70215, 1.28.2022 18:10:44.087
320, 2.20345, 0.171453, 188.897, -0.000976562, 0, 0, 0.03125, 0.345703, -9.73438, 1.28.2022 18:10:44.095
321, 2.20345, 0.171453, 188.897, -0.000976562, 0, 0, -0.0800781, 0.354492, -9.70801, 1.28.2022 18:10:44.103
322, 2.20345, 0.171453, 188.897, -0.000976562, 0, 0, -0.015625, 0.358398, -9.68066, 1.28.2022 18:10:44.111
323, 2.20345, 0.171453, 188.897, 0.000976562, 0, -0.000976562, 0.000976562, 0.348633, -9.67676, 1.28.2022 18:10:44.119
324, 2.20345, 0.171453, 188.897, -0.000976562, 0, 0, -0.0986328, 0.387695, -9.69531, 1.28.2022 18:10:44.127
325, 2.20345, 0.171453, 188.897, 0.000976562, 0, -0.000976562, -0.00878906, 0.349609, -9.72168, 1.28.2022 18:10:44.135
326, 2.20345, 0.171453, 188.897, 0.000976562, 0, -0.000976562, -0.0126953, 0.357422, -9.66406, 1.28.2022 18:10:44.143
327, 2.20345, 0.171453, 188.897, -0.000976562, 0, 0, -0.0439453, 0.408203, -9.68164, 1.28.2022 18:10:44.151
328, 2.20345, 0.171453, 188.897, 0.000976562, -0.00195312, -0.000976562, 0.0410156, 0.347656, -9.71973, 1.28.2022 18:10:44.159
329, 2.20345, 0.171453, 188.897, 0.000976562, -0.00195312, -0.000976562, -0.0683594, 0.390625, -9.70996, 1.28.2022 18:10:44.167
330, 2.20345, 0.171453, 188.897, -0.000976562, 0, 0.000976562, -0.0302734, 0.345703, -9.7334, 1.28.2022 18:10:44.175
331, 2.20345, 0.171453, 188.897, -0.000976562, 0, 0, -0.0302734, 0.342773, -9.7334, 1.28.2022 18:10:44.183
332, 2.19648, 0.170911, 188.897, -0.000976562, -0.00195312, -0.000976562, -0.0683594, 0.37793, -9.70117, 1.28.2022 18:10:44.191
333, 2.19648, 0.170911, 188.897, 0.000976562, 0, -0.000976562, 0.0195312, 0.37207, -9.74023, 1.28.2022 18:10:44.199
334, 2.19648, 0.170911, 188.897, -0.000976562, 0, 0, -0.0302734, 0.344727, -9.72363, 1.28.2022 18:10:44.207
335, 2.19648, 0.170911, 188.897, -0.00195312, 0, 0, -0.0498047, 0.385742, -9.73828, 1.28.2022 18:10:44.215
336, 2.19648, 0.170911, 188.897, -0.00195312, 0, 0, 0.0244141, 0.357422, -9.72363, 1.28.2022 18:10:44.223
337, 2.19648, 0.170911, 188.897, 0.000976562, 0.000976562, 0, -0.0615234, 0.356445, -9.70605, 1.28.2022 18:10:44.231
338, 2.19648, 0.170911, 188.897, 0.000976562, -0.00195312, -0.000976562, -0.0605469, 0.392578, -9.69531, 1.28.2022 18:10:44.239
339, 2.19648, 0.170911, 188.897, -0.000976562, 0, 0.000976562, 0.0107422, 0.351562, -9.70996, 1.28.2022 18:10:44.247
340, 2.18952, 0.170368, 188.897, -0.000976562, 0, 0, -0.0820312, 0.379883, -9.66699, 1.28.2022 18:10:44.255
341, 2.18952, 0.170368, 188.897, -0.000976562, 0, 0, 0.00390625, 0.362305, -9.67188, 1.28.2022 18:10:44.263
342, 2.18952, 0.170368, 188.897, 0.000976562, 0, -0.000976562, -0.0136719, 0.378906, -9.7373, 1.28.2022 18:10:44.271
343, 2.18897, 0.17734, 188.897, -0.000976562, 0, 0, -0.0537109, 0.375977, -9.70312, 1.28.2022 18:10:44.279
344, 2.18897, 0.17734, 188.897, -0.000976562, 0, 0.000976562, 0.0224609, 0.357422, -9.72363, 1.28.2022 18:10:44.287
345, 2.18952, 0.170368, 188.897, -0.00195312, 0, 0, -0.0351562, 0.347656, -9.7168, 1.28.2022 18:10:44.295
346, 2.18952, 0.170368, 188.897, -0.000976562, 0, 0, -0.0322266, 0.375, -9.69238, 1.28.2022 18:10:44.303
347, 2.18952, 0.170368, 188.897, 0, 0, -0.00195312, 0.0126953, 0.339844, -9.71973, 1.28.2022 18:10:44.311
348, 2.18255, 0.169826, 188.897, -0.000976562, 0, 0, -0.0830078, 0.371094, -9.72168, 1.28.2022 18:10:44.317
349, 2.18255, 0.169826, 188.897, -0.000976562, 0, 0, -0.00683594, 0.369141, -9.74414, 1.28.2022 18:10:44.325
350, 2.18255, 0.169826, 188.897, 0, 0.000976562, -0.00195312, -0.00878906, 0.347656, -9.73047, 1.28.2022 18:10:44.333
351, 2.18255, 0.169826, 188.897, 0.000976562, 0, -0.000976562, -0.0751953, 0.382812, -9.68848, 1.28.2022 18:10:44.341
352, 2.18255, 0.169826, 188.897, 0, 0, -0.000976562, 0.0126953, 0.360352, -9.69336, 1.28.2022 18:10:44.349
353, 2.17558, 0.169283, 188.897, -0.000976562, 0, 0, -0.0351562, 0.359375, -9.72266, 1.28.2022 18:10:44.357
354, 2.17558, 0.169283, 188.897, -0.00195312, -0.000976562, -0.000976562, -0.0654297, 0.371094, -9.70996, 1.28.2022 18:10:44.365
355, 2.17558, 0.169283, 188.897, 0, 0.000976562, -0.00195312, -0.00878906, 0.356445, -9.69043, 1.28.2022 18:10:44.373
356, 2.17558, 0.169283, 188.897, 0, 0, -0.000976562, -0.078125, 0.364258, -9.72461, 1.28.2022 18:10:44.381
357, 2.17558, 0.169283, 188.897, -0.000976562, 0, 0, -0.0234375, 0.378906, -9.72266, 1.28.2022 18:10:44.389
358, 2.17558, 0.169283, 188.897, -0.000976562, -0.000976562, -0.00195312, -0.0351562, 0.371094, -9.72754, 1.28.2022 18:10:44.397
359, 2.17558, 0.169283, 188.897, -0.000976562, -0.000976562, -0.000976562, -0.0673828, 0.40332, -9.68164, 1.28.2022 18:10:44.405
360, 2.17554, 0.169416, 188.904, -0.000976562, 0, -0.00195312, 0.0214844, 0.367188, -9.75, 1.28.2022 18:10:44.413
361, 2.17554, 0.169416, 188.904, -0.000976562, 0, 0, -0.0283203, 0.380859, -9.71777, 1.28.2022 18:10:44.421
362, 2.17554, 0.169416, 188.904, -0.000976562, 0, 0, -0.0546875, 0.369141, -9.72949, 1.28.2022 18:10:44.429
363, 2.17554, 0.169416, 188.904, -0.000976562, 0, -0.00195312, 0.00292969, 0.354492, -9.72168, 1.28.2022 18:10:44.437
364, 2.16858, 0.168873, 188.904, 0, 0, -0.000976562, -0.0751953, 0.402344, -9.71191, 1.28.2022 18:10:44.445
365, 2.16858, 0.168873, 188.904, 0, -0.000976562, -0.00195312, 0.00292969, 0.380859, -9.7207, 1.28.2022 18:10:44.453
366, 2.16858, 0.168873, 188.904, 0, 0, -0.00292969, -0.0224609, 0.375, -9.69434, 1.28.2022 18:10:44.461
367, 2.16803, 0.175845, 188.904, -0.000976562, 0, -0.00195312, -0.0703125, 0.378906, -9.71973, 1.28.2022 18:10:44.469
368, 2.16858, 0.168873, 188.904, -0.000976562, 0.000976562, 0, 0.0390625, 0.387695, -9.7207, 1.28.2022 18:10:44.477
369, 2.16858, 0.168873, 188.904, -0.000976562, 0, 0, -0.0400391, 0.375977, -9.71582, 1.28.2022 18:10:44.485
370, 2.175, 0.176388, 188.904, -0.000976562, -0.000976562, -0.000976562, -0.0302734, 0.390625, -9.71094, 1.28.2022 18:10:44.493
371, 2.175, 0.176388, 188.904, 0, -0.00195312, 0.000976562, 0.0205078, 0.360352, -9.67871, 1.28.2022 18:10:44.501
372, 2.175, 0.176388, 188.904, -0.000976562, 0, 0, -0.0517578, 0.375977, -9.70312, 1.28.2022 18:10:44.509
373, 2.175, 0.176388, 188.904, 0, 0, -0.000976562, -0.0283203, 0.369141, -9.73242, 1.28.2022 18:10:44.517
374, 2.17554, 0.169416, 188.904, 0, 0.000976562, 0, -0.0400391, 0.37207, -9.73438, 1.28.2022 18:10:44.525
375, 2.17554, 0.169416, 188.904, -0.000976562, 0, 0, -0.104492, 0.398438, -9.72754, 1.28.2022 18:10:44.533
376, 2.17554, 0.169416, 188.904, -0.000976562, 0, 0, 0.0253906, 0.358398, -9.68652, 1.28.2022 18:10:44.541
377, 2.17554, 0.169416, 188.904, -0.000976562, 0, 0, -0.0439453, 0.379883, -9.67773, 1.28.2022 18:10:44.549
378, 2.17554, 0.169416, 188.904, -0.000976562, 0, 0, -0.0439453, 0.384766, -9.68945, 1.28.2022 18:10:44.557
379, 2.18251, 0.169959, 188.904, -0.000976562, 0, -0.000976562, 0.0341797, 0.380859, -9.71191, 1.28.2022 18:10:44.565
380, 2.18251, 0.169959, 188.904, -0.00195312, 0, 0, -0.0722656, 0.375, -9.6748, 1.28.2022 18:10:44.573
381, 2.18251, 0.169959, 188.904, -0.000976562, 0, 0, -0.0117188, 0.369141, -9.72363, 1.28.2022 18:10:44.581
382, 2.18251, 0.169959, 188.904, 0, 0, -0.000976562, -0.00585938, 0.353516, -9.70215, 1.28.2022 18:10:44.589
383, 2.18251, 0.169959, 188.904, -0.000976562, 0, 0, -0.0751953, 0.385742, -9.71973, 1.28.2022 18:10:44.597
384, 2.18251, 0.169959, 188.904, -0.000976562, 0, 0, 0.0078125, 0.349609, -9.73145, 1.28.2022 18:10:44.605
385, 2.18947, 0.170502, 188.904, -0.000976562, 0, -0.000976562, -0.046875, 0.382812, -9.70312, 1.28.2022 18:10:44.613
386, 2.18947, 0.170502, 188.904, -0.000976562, 0, 0, -0.0351562, 0.390625, -9.72461, 1.28.2022 18:10:44.621
387, 2.18947, 0.170502, 188.904, 0, 0.000976562, 0, 0.0244141, 0.375977, -9.71875, 1.28.2022 18:10:44.629
388, 2.18947, 0.170502, 188.904, -0.000976562, 0.000976562, 0, -0.078125, 0.382812, -9.7168, 1.28.2022 18:10:44.637
389, 2.18947, 0.170502, 188.904, -0.000976562, -0.00195312, 0, -0.0126953, 0.350586, -9.67676, 1.28.2022 18:10:44.645
390, 2.18947, 0.170502, 188.904, -0.000976562, 0, 0, -0.0332031, 0.359375, -9.73047, 1.28.2022 18:10:44.653
391, 2.18947, 0.170502, 188.904, -0.00195312, -0.00195312, 0, -0.0888672, 0.381836, -9.67676, 1.28.2022 18:10:44.661
392, 2.18947, 0.170502, 188.904, -0.000976562, 0, 0, -0.00195312, 0.367188, -9.74023, 1.28.2022 18:10:44.669
393, 2.19644, 0.171045, 188.904, 0, 0, 0, -0.0556641, 0.364258, -9.79102, 1.28.2022 18:10:44.677
394, 2.19644, 0.171045, 188.904, -0.000976562, 0, 0, -0.046875, 0.411133, -9.70703, 1.28.2022 18:10:44.685
395, 2.19644, 0.171045, 188.904, -0.000976562, -0.00195312, 0, 0.0390625, 0.354492, -9.71973, 1.28.2022 18:10:44.693
396, 2.19644, 0.171045, 188.904, 0, -0.00195312, 0, -0.0800781, 0.390625, -9.72656, 1.28.2022 18:10:44.701
397, 2.19644, 0.171045, 188.904, 0, 0, 0, -0.0136719, 0.387695, -9.7041, 1.28.2022 18:10:44.709
398, 2.19644, 0.171045, 188.904, 0, 0.000976562, 0.000976562, -0.0224609, 0.359375, -9.70703, 1.28.2022 18:10:44.717
399, 2.19644, 0.171045, 188.904, -0.000976562, -0.00195312, 0, -0.0927734, 0.400391, -9.73047, 1.28.2022 18:10:44.725
400, 2.19644, 0.171045, 188.904, -0.000976562, 0, 0, 0.0078125, 0.363281, -9.7002, 1.28.2022 18:10:44.733
401, 2.19644, 0.171045, 188.904, 0, 0.000976562, 0, -0.0351562, 0.399414, -9.70801, 1.28.2022 18:10:44.741
402, 2.19644, 0.171045, 188.904, 0, 0, -0.000976562, -0.0585938, 0.385742, -9.72168, 1.28.2022 18:10:44.749
403, 2.19644, 0.171045, 188.904, -0.000976562, 0.000976562, -0.000976562, 0.00585938, 0.371094, -9.70898, 1.28.2022 18:10:44.757
404, 2.19644, 0.171045, 188.904, 0, -0.00195312, 0, -0.0869141, 0.392578, -9.71387, 1.28.2022 18:10:44.765
405, 2.1959, 0.178017, 188.904, 0, 0, 0.000976562, -0.0283203, 0.384766, -9.76953, 1.28.2022 18:10:44.773
406, 2.20291, 0.178425, 188.897, -0.000976562, 0, 0, 0.0078125, 0.337891, -9.71973, 1.28.2022 18:10:44.781
407, 2.20286, 0.17856, 188.904, -0.000976562, 0, -0.000976562, -0.0771484, 0.370117, -9.69141, 1.28.2022 18:10:44.789
408, 2.20286, 0.17856, 188.904, -0.00195312, 0, -0.000976562, 0.00976562, 0.367188, -9.7373, 1.28.2022 18:10:44.797
409, 2.20286, 0.17856, 188.904, -0.000976562, 0, 0, -0.0605469, 0.361328, -9.69434, 1.28.2022 18:10:44.805
410, 2.20286, 0.17856, 188.904, -0.00195312, 0, 0.000976562, -0.0771484, 0.373047, -9.70117, 1.28.2022 18:10:44.813
411, 2.20291, 0.178425, 188.897, -0.00195312, -0.00195312, 0, 0.00976562, 0.363281, -9.76855, 1.28.2022 18:10:44.821
412, 2.20291, 0.178425, 188.897, -0.000976562, 0, 0, -0.0732422, 0.387695, -9.70703, 1.28.2022 18:10:44.829
413, 2.20291, 0.178425, 188.897, -0.000976562, 0.000976562, 0, -0.0302734, 0.365234, -9.74219, 1.28.2022 18:10:44.837
414, 2.20291, 0.178425, 188.897, 0, 0, 0, -0.0283203, 0.355469, -9.74219, 1.28.2022 18:10:44.845
415, 2.20236, 0.185397, 188.897, -0.000976562, 0, -0.000976562, -0.0683594, 0.395508, -9.71191, 1.28.2022 18:10:44.853
416, 2.20929, 0.186075, 188.904, -0.000976562, 0, -0.000976562, 0.0175781, 0.382812, -9.72363, 1.28.2022 18:10:44.861
417, 2.20929, 0.186075, 188.904, 0, -0.00195312, 0, -0.00683594, 0.365234, -9.74707, 1.28.2022 18:10:44.869
418, 2.20929, 0.186075, 188.904, -0.000976562, 0, 0, -0.046875, 0.371094, -9.71973, 1.28.2022 18:10:44.877
419, 2.20929, 0.186075, 188.904, -0.000976562, 0, -0.000976562, 0.00976562, 0.369141, -9.7207, 1.28.2022 18:10:44.885
420, 2.20929, 0.186075, 188.904, -0.000976562, 0, 0, -0.0615234, 0.390625, -9.73828, 1.28.2022 18:10:44.893
421, 2.20929, 0.186075, 188.904, -0.000976562, 0, 0.000976562, -0.00878906, 0.361328, -9.71191, 1.28.2022 18:10:44.901
422, 2.20929, 0.186075, 188.904, -0.00195312, -0.00195312, 0, -0.00683594, 0.360352, -9.74023, 1.28.2022 18:10:44.909
423, 2.20929, 0.186075, 188.904, -0.000976562, -0.00195312, 0, -0.0498047, 0.402344, -9.72168, 1.28.2022 18:10:44.917
424, 2.20929, 0.186075, 188.904, 0, 0, 0, 0.0371094, 0.364258, -9.66504, 1.28.2022 18:10:44.925
425, 2.20929, 0.186075, 188.904, -0.000976562, 0, -0.000976562, -0.0273438, 0.348633, -9.67383, 1.28.2022 18:10:44.933
426, 2.20929, 0.186075, 188.904, -0.000976562, 0, 0, -0.0488281, 0.390625, -9.71973, 1.28.2022 18:10:44.941
427, 2.20929, 0.186075, 188.904, -0.000976562, 0, 0, 0.0175781, 0.367188, -9.73535, 1.28.2022 18:10:44.949
428, 2.20929, 0.186075, 188.904, -0.000976562, 0, 0, -0.0517578, 0.380859, -9.72656, 1.28.2022 18:10:44.957
429, 2.20929, 0.186075, 188.904, -0.000976562, 0.000976562, 0, -0.0371094, 0.380859, -9.71973, 1.28.2022 18:10:44.965
430, 2.20929, 0.186075, 188.904, -0.000976562, 0, -0.000976562, 0.00292969, 0.380859, -9.72754, 1.28.2022 18:10:44.973
431, 2.20929, 0.186075, 188.904, -0.00195312, -0.00195312, 0, -0.0595703, 0.385742, -9.7334, 1.28.2022 18:10:44.981
432, 2.20929, 0.186075, 188.904, -0.000976562, -0.00195312, 0, 0.0146484, 0.414062, -9.72754, 1.28.2022 18:10:44.989
433, 2.20929, 0.186075, 188.904, -0.000976562, 0, 0, -0.0341797, 0.360352, -9.68555, 1.28.2022 18:10:44.997
434, 2.20987, 0.178968, 188.897, 0, -0.000976562, 0.00195312, -0.0458984, 0.396484, -9.68848, 1.28.2022 18:10:45.005
435, 2.20987, 0.178968, 188.897, -0.000976562, -0.00195312, 0.000976562, 0.0175781, 0.366211, -9.7002, 1.28.2022 18:10:45.013
436, 2.20987, 0.178968, 188.897, 0, 0, 0, -0.0732422, 0.374023, -9.74316, 1.28.2022 18:10:45.021
437, 2.20987, 0.178968, 188.897, 0, 0, 0, -0.0253906, 0.389648, -9.70801, 1.28.2022 18:10:45.029
438, 2.20987, 0.178968, 188.897, -0.000976562, 0, 0, -0.0117188, 0.360352, -9.75195, 1.28.2022 18:10:45.037
439, 2.20987, 0.178968, 188.897, 0, -0.00195312, 0, -0.0849609, 0.374023, -9.71973, 1.28.2022 18:10:45.045
440, 2.20987, 0.178968, 188.897, -0.000976562, 0, 0, 0.0195312, 0.34668, -9.71484, 1.28.2022 18:10:45.053
441, 2.20987, 0.178968, 188.897, -0.000976562, 0.000976562, -0.00195312, -0.0224609, 0.348633, -9.68359, 1.28.2022 18:10:45.061
442, 2.21041, 0.171996, 188.897, 0, 0.000976562, 0, -0.0654297, 0.371094, -9.70996, 1.28.2022 18:10:45.069
443, 2.21041, 0.171996, 188.897, 0, 0, 0, 0.00878906, 0.351562, -9.69043, 1.28.2022 18:10:45.077
444, 2.21041, 0.171996, 188.897, -0.000976562, 0, -0.00195312, -0.0751953, 0.370117, -9.69141, 1.28.2022 18:10:45.085
445, 2.21041, 0.171996, 188.897, -0.00195312, 0, 0, -0.015625, 0.37793, -9.69922, 1.28.2022 18:10:45.093
446, 2.21041, 0.171996, 188.897, -0.000976562, -0.000976562, 0, 0.0107422, 0.341797, -9.70508, 1.28.2022 18:10:45.101
447, 2.21041, 0.171996, 188.897, 0, 0, 0, -0.0634766, 0.380859, -9.72949, 1.28.2022 18:10:45.109
448, 2.20345, 0.171453, 188.897, -0.000976562, -0.000976562, 0, 0.0146484, 0.369141, -9.74512, 1.28.2022 18:10:45.117
449, 2.20345, 0.171453, 188.897, 0, -0.000976562, -0.000976562, -0.0107422, 0.361328, -9.69727, 1.28.2022 18:10:45.125
450, 2.20345, 0.171453, 188.897, 0, -0.000976562, -0.00195312, -0.0722656, 0.383789, -9.65137, 1.28.2022 18:10:45.133
451, 2.20345, 0.171453, 188.897, -0.000976562, -0.000976562, -0.00195312, 0.0322266, 0.360352, -9.66992, 1.28.2022 18:10:45.141
452, 2.20345, 0.171453, 188.897, -0.000976562, 0, 0, -0.0800781, 0.378906, -9.7168, 1.28.2022 18:10:45.149
453, 2.20345, 0.171453, 188.897, -0.000976562, 0, 0, -0.0419922, 0.380859, -9.70312, 1.28.2022 18:10:45.157
454, 2.20345, 0.171453, 188.897, -0.00195312, 0, 0, -0.0224609, 0.399414, -9.69336, 1.28.2022 18:10:45.165
455, 2.20345, 0.171453, 188.897, -0.000976562, 0.000976562, 0.000976562, -0.0966797, 0.400391, -9.71582, 1.28.2022 18:10:45.173
456, 2.20345, 0.171453, 188.897, -0.000976562, 0.000976562, 0, -0.00195312, 0.375, -9.75879, 1.28.2022 18:10:45.181
457, 2.20345, 0.171453, 188.897, -0.000976562, -0.000976562, 0, -0.00683594, 0.374023, -9.72266, 1.28.2022 18:10:45.189
458, 2.20345, 0.171453, 188.897, 0, 0, -0.00195312, -0.0488281, 0.380859, -9.70605, 1.28.2022 18:10:45.197
459, 2.20345, 0.171453, 188.897, 0.00195312, -0.000976562, -0.000976562, 0.0458984, 0.375977, -9.73145, 1.28.2022 18:10:45.205
460, 2.20345, 0.171453, 188.897, -0.000976562, -0.000976562, -0.00195312, -0.0683594, 0.369141, -9.72266, 1.28.2022 18:10:45.213
461, 2.19644, 0.171045, 188.904, 0, 0, 0, -0.0400391, 0.37793, -9.71289, 1.28.2022 18:10:45.221
462, 2.19644, 0.171045, 188.904, -0.000976562, 0, 0, -0.00195312, 0.367188, -9.73535, 1.28.2022 18:10:45.229
463, 2.19644, 0.171045, 188.904, -0.000976562, 0, 0, -0.0830078, 0.376953, -9.73145, 1.28.2022 18:10:45.237
464, 2.20341, 0.171588, 188.904, -0.000976562, 0, 0, 0.0195312, 0.355469, -9.75, 1.28.2022 18:10:45.245
465, 2.20341, 0.171588, 188.904, -0.000976562, 0.000976562, 0, -0.0263672, 0.34082, -9.74707, 1.28.2022 18:10:45.253
466, 2.20395, 0.164616, 188.904, -0.000976562, 0, 0, -0.0683594, 0.375977, -9.69824, 1.28.2022 18:10:45.261
467, 2.19698, 0.164073, 188.904, -0.000976562, 0, 0, 0.0175781, 0.364258, -9.71387, 1.28.2022 18:10:45.269
468, 2.19698, 0.164073, 188.904, -0.000976562, 0, -0.00195312, -0.0410156, 0.398438, -9.6748, 1.28.2022 18:10:45.277
469, 2.19698, 0.164073, 188.904, -0.000976562, 0, -0.00195312, -0.0185547, 0.392578, -9.71289, 1.28.2022 18:10:45.285
470, 2.19698, 0.164073, 188.904, -0.000976562, 0, 0, 0.015625, 0.366211, -9.71191, 1.28.2022 18:10:45.291
471, 2.19698, 0.164073, 188.904, -0.000976562, 0, 0, -0.0722656, 0.411133, -9.69531, 1.28.2022 18:10:45.299
472, 2.19698, 0.164073, 188.904, 0, 0, 0, 0.0107422, 0.373047, -9.7002, 1.28.2022 18:10:45.307
473, 2.19698, 0.164073, 188.904, 0, -0.000976562, -0.000976562, -0.0419922, 0.366211, -9.70605, 1.28.2022 18:10:45.317
474, 2.19698, 0.164073, 188.904, -0.000976562, -0.000976562, 0, -0.0488281, 0.391602, -9.67969, 1.28.2022 18:10:45.323
475, 2.19698, 0.164073, 188.904, -0.000976562, 0, 0, 0.0478516, 0.357422, -9.73145, 1.28.2022 18:10:45.331
476, 2.19698, 0.164073, 188.904, 0, -0.000976562, 0, -0.0429688, 0.378906, -9.65137, 1.28.2022 18:10:45.339
477, 2.20395, 0.164616, 188.904, -0.000976562, -0.000976562, -0.000976562, -0.0126953, 0.376953, -9.67285, 1.28.2022 18:10:45.347
478, 2.20395, 0.164616, 188.904, -0.000976562, -0.000976562, 0, -0.00878906, 0.359375, -9.7168, 1.28.2022 18:10:45.355
479, 2.20395, 0.164616, 188.904, -0.000976562, 0, 0, -0.106445, 0.419922, -9.73438, 1.28.2022 18:10:45.363
480, 2.20395, 0.164616, 188.904, 0, 0, 0, -0.00585938, 0.40625, -9.70117, 1.28.2022 18:10:45.371
481, 2.20395, 0.164616, 188.904, -0.000976562, -0.000976562, 0, -0.0175781, 0.356445, -9.69531, 1.28.2022 18:10:45.379
482, 2.20395, 0.164616, 188.904, -0.000976562, 0, 0.000976562, -0.0517578, 0.370117, -9.69434, 1.28.2022 18:10:45.387
483, 2.20395, 0.164616, 188.904, 0, 0, 0, 0.0185547, 0.338867, -9.6748, 1.28.2022 18:10:45.395
484, 2.20395, 0.164616, 188.904, -0.000976562, 0, 0, -0.0556641, 0.376953, -9.67773, 1.28.2022 18:10:45.403
485, 2.20395, 0.164616, 188.904, -0.000976562, 0, 0, -0.0273438, 0.382812, -9.70801, 1.28.2022 18:10:45.411
486, 2.20395, 0.164616, 188.904, -0.000976562, 0.000976562, -0.000976562, 0.0175781, 0.375, -9.69043, 1.28.2022 18:10:45.419
487, 2.20449, 0.157644, 188.904, -0.000976562, 0, 0, -0.0585938, 0.382812, -9.70117, 1.28.2022 18:10:45.427
488, 2.20449, 0.157644, 188.904, -0.000976562, -0.000976562, 0, 0.0146484, 0.364258, -9.71875, 1.28.2022 18:10:45.435
489, 2.20449, 0.157644, 188.904, -0.000976562, 0, 0, -0.0185547, 0.375977, -9.71094, 1.28.2022 18:10:45.443
490, 2.2115, 0.158052, 188.897, -0.00195312, 0.000976562, 0.000976562, -0.0556641, 0.399414, -9.7002, 1.28.2022 18:10:45.451
491, 2.2115, 0.158052, 188.897, 0, 0.000976562, 0, 0.015625, 0.366211, -9.70508, 1.28.2022 18:10:45.459
492, 2.2115, 0.158052, 188.897, -0.000976562, 0.000976562, 0, -0.0615234, 0.355469, -9.75391, 1.28.2022 18:10:45.467
493, 2.2115, 0.158052, 188.897, -0.000976562, 0, 0, -0.0117188, 0.362305, -9.73535, 1.28.2022 18:10:45.475
494, 2.2115, 0.158052, 188.897, -0.000976562, 0, 0, -0.0107422, 0.34668, -9.70703, 1.28.2022 18:10:45.483
495, 2.2115, 0.158052, 188.897, -0.000976562, 0, -0.000976562, -0.0917969, 0.375, -9.69336, 1.28.2022 18:10:45.491
496, 2.2115, 0.158052, 188.897, 0, 0, 0, 0.0175781, 0.37793, -9.71387, 1.28.2022 18:10:45.499
497, 2.21204, 0.15108, 188.897, 0, 0, 0, -0.0341797, 0.350586, -9.6709, 1.28.2022 18:10:45.507
498, 2.21204, 0.15108, 188.897, 0, 0, 0, -0.0732422, 0.375977, -9.72168, 1.28.2022 18:10:45.515
499, 2.20507, 0.150538, 188.897, -0.000976562, -0.000976562, -0.000976562, 0.0185547, 0.367188, -9.66895, 1.28.2022 18:10:45.523
500, 2.20507, 0.150538, 188.897, -0.000976562, 0, 0, -0.0732422, 0.368164, -9.69629, 1.28.2022 18:10:45.531
501, 2.20507, 0.150538, 188.897, -0.000976562, 0, 0, -0.0439453, 0.381836, -9.68457, 1.28.2022 18:10:45.539
502, 2.20507, 0.150538, 188.897, -0.000976562, 0, -0.000976562, 0.0195312, 0.356445, -9.7168, 1.28.2022 18:10:45.547
503, 2.20507, 0.150538, 188.897, -0.000976562, 0, 0, -0.0615234, 0.371094, -9.72461, 1.28.2022 18:10:45.555
504, 2.20507, 0.150538, 188.897, 0, 0, 0, 0.00976562, 0.383789, -9.74219, 1.28.2022 18:10:45.563
505, 2.20507, 0.150538, 188.897, -0.000976562, 0, 0, -0.00878906, 0.375977, -9.73047, 1.28.2022 18:10:45.571
506, 2.20507, 0.150538, 188.897, 0, -0.00195312, 0.000976562, -0.0517578, 0.375977, -9.70605, 1.28.2022 18:10:45.579
507, 2.20453, 0.157509, 188.897, -0.000976562, 0, 0, 0.0322266, 0.356445, -9.70996, 1.28.2022 18:10:45.587
508, 2.20507, 0.150538, 188.897, 0, 0.000976562, 0, -0.0556641, 0.389648, -9.7002, 1.28.2022 18:10:45.595
509, 2.20507, 0.150538, 188.897, -0.00195312, -0.000976562, -0.00195312, -0.0537109, 0.366211, -9.72266, 1.28.2022 18:10:45.603
510, 2.20507, 0.150538, 188.897, -0.000976562, 0, 0, -0.00683594, 0.344727, -9.7168, 1.28.2022 18:10:45.611
511, 2.20453, 0.157509, 188.897, -0.000976562, -0.000976562, -0.00195312, -0.0898438, 0.373047, -9.70312, 1.28.2022 18:10:45.619
512, 2.20453, 0.157509, 188.897, -0.000976562, 0, 0, -0.00390625, 0.356445, -9.71387, 1.28.2022 18:10:45.627
513, 2.20453, 0.157509, 188.897, -0.00195312, 0, -0.000976562, 0.000976562, 0.349609, -9.71875, 1.28.2022 18:10:45.635
514, 2.20453, 0.157509, 188.897, 0, -0.000976562, 0, -0.0566406, 0.390625, -9.72461, 1.28.2022 18:10:45.643
515, 2.19757, 0.156967, 188.897, -0.000976562, -0.00195312, 0.000976562, 0.00976562, 0.37207, -9.74512, 1.28.2022 18:10:45.651
516, 2.19757, 0.156967, 188.897, -0.000976562, 0, 0, -0.0371094, 0.358398, -9.69043, 1.28.2022 18:10:45.659
517, 2.19757, 0.156967, 188.897, -0.00195312, 0.000976562, -0.000976562, -0.0419922, 0.386719, -9.68652, 1.28.2022 18:10:45.667
518, 2.19757, 0.156967, 188.897, -0.000976562, 0.000976562, 0, 0.00292969, 0.382812, -9.70898, 1.28.2022 18:10:45.675
519, 2.19757, 0.156967, 188.897, -0.000976562, 0.000976562, 0, -0.0800781, 0.392578, -9.70508, 1.28.2022 18:10:45.683
520, 2.19757, 0.156967, 188.897, 0, 0.000976562, 0, 0.00878906, 0.389648, -9.68945, 1.28.2022 18:10:45.691
521, 2.19757, 0.156967, 188.897, -0.000976562, 0, -0.000976562, -0.000976562, 0.37793, -9.70703, 1.28.2022 18:10:45.699
522, 2.19757, 0.156967, 188.897, -0.000976562, 0, 0, -0.0566406, 0.388672, -9.74512, 1.28.2022 18:10:45.707
523, 2.19757, 0.156967, 188.897, -0.000976562, -0.000976562, 0, 0.0244141, 0.364258, -9.73145, 1.28.2022 18:10:45.715
524, 2.19757, 0.156967, 188.897, -0.000976562, 0.000976562, 0, -0.0566406, 0.37793, -9.70117, 1.28.2022 18:10:45.723
525, 2.19757, 0.156967, 188.897, -0.00195312, 0, 0.000976562, -0.0751953, 0.356445, -9.70605, 1.28.2022 18:10:45.731
526, 2.19757, 0.156967, 188.897, -0.000976562, 0, 0, 0.00585938, 0.371094, -9.71875, 1.28.2022 18:10:45.739
527, 2.19757, 0.156967, 188.897, -0.000976562, 0, 0, -0.09375, 0.389648, -9.68066, 1.28.2022 18:10:45.747
528, 2.19757, 0.156967, 188.897, 0, 0, 0, -0.0400391, 0.367188, -9.74121, 1.28.2022 18:10:45.755
529, 2.19757, 0.156967, 188.897, -0.000976562, 0, 0, -0.00683594, 0.364258, -9.71875, 1.28.2022 18:10:45.763
530, 2.19757, 0.156967, 188.897, -0.000976562, -0.00195312, 0.000976562, -0.0654297, 0.37793, -9.69336, 1.28.2022 18:10:45.771
531, 2.19757, 0.156967, 188.897, -0.000976562, 0, 0, 0.0390625, 0.370117, -9.7002, 1.28.2022 18:10:45.779
532, 2.19757, 0.156967, 188.897, 0, 0, 0, -0.0322266, 0.387695, -9.70605, 1.28.2022 18:10:45.787
533, 2.19757, 0.156967, 188.897, -0.000976562, -0.000976562, 0, -0.0322266, 0.385742, -9.71484, 1.28.2022 18:10:45.795
534, 2.19757, 0.156967, 188.897, 0, 0, 0, 0.0078125, 0.363281, -9.70508, 1.28.2022 18:10:45.803
535, 2.19757, 0.156967, 188.897, 0.000976562, -0.000976562, 0, -0.0683594, 0.383789, -9.72461, 1.28.2022 18:10:45.811
536, 2.19757, 0.156967, 188.897, 0, 0, -0.00195312, 0.000976562, 0.375, -9.70215, 1.28.2022 18:10:45.819
537, 2.19757, 0.156967, 188.897, 0, 0, -0.00195312, -0.0175781, 0.371094, -9.70215, 1.28.2022 18:10:45.827
538, 2.19757, 0.156967, 188.897, -0.000976562, 0, 0, -0.0996094, 0.378906, -9.7168, 1.28.2022 18:10:45.835
539, 2.19757, 0.156967, 188.897, 0, 0, -0.00195312, 0.0244141, 0.359375, -9.70996, 1.28.2022 18:10:45.843
540, 2.19757, 0.156967, 188.897, -0.000976562, 0, 0, -0.0634766, 0.380859, -9.70996, 1.28.2022 18:10:45.851
541, 2.19702, 0.163939, 188.897, -0.000976562, 0, 0, -0.0537109, 0.384766, -9.68164, 1.28.2022 18:10:45.859
542, 2.19702, 0.163939, 188.897, 0, 0, 0, 0.0244141, 0.376953, -9.74219, 1.28.2022 18:10:45.867
543, 2.19702, 0.163939, 188.897, -0.000976562, -0.000976562, 0, -0.0830078, 0.380859, -9.72363, 1.28.2022 18:10:45.875
544, 2.19702, 0.163939, 188.897, -0.00195312, -0.000976562, 0, -0.0253906, 0.362305, -9.73926, 1.28.2022 18:10:45.883
545, 2.19702, 0.163939, 188.897, 0, 0.000976562, 0, -0.0351562, 0.367188, -9.73242, 1.28.2022 18:10:45.891
546, 2.19702, 0.163939, 188.897, 0, 0.000976562, 0, -0.0830078, 0.387695, -9.71875, 1.28.2022 18:10:45.899
547, 2.19702, 0.163939, 188.897, -0.000976562, 0.000976562, 0, 0.0126953, 0.380859, -9.73535, 1.28.2022 18:10:45.907
548, 2.20399, 0.164481, 188.897, -0.000976562, 0.00195312, 0, -0.0439453, 0.382812, -9.71289, 1.28.2022 18:10:45.915
549, 2.20399, 0.164481, 188.897, -0.000976562, 0, 0, -0.0488281, 0.401367, -9.69824, 1.28.2022 18:10:45.923
550, 2.20399, 0.164481, 188.897, -0.000976562, 0, 0, 0.0224609, 0.330078, -9.71777, 1.28.2022 18:10:45.931
551, 2.20399, 0.164481, 188.897, 0.000976562, 0, 0, -0.0869141, 0.387695, -9.69336, 1.28.2022 18:10:45.939
552, 2.20399, 0.164481, 188.897, 0, 0.000976562, -0.000976562, -0.0224609, 0.413086, -9.67969, 1.28.2022 18:10:45.947
553, 2.20399, 0.164481, 188.897, 0, 0, 0, -0.0351562, 0.390625, -9.72656, 1.28.2022 18:10:45.955
554, 2.20399, 0.164481, 188.897, -0.000976562, 0, 0, -0.0800781, 0.388672, -9.72168, 1.28.2022 18:10:45.963
555, 2.20345, 0.171453, 188.897, -0.000976562, -0.000976562, 0, -0.00390625, 0.380859, -9.72266, 1.28.2022 18:10:45.971
556, 2.20345, 0.171453, 188.897, -0.000976562, 0, 0, -0.0166016, 0.362305, -9.73047, 1.28.2022 18:10:45.979
557, 2.20345, 0.171453, 188.897, -0.000976562, -0.000976562, 0, -0.0488281, 0.373047, -9.70605, 1.28.2022 18:10:45.987
558, 2.20345, 0.171453, 188.897, -0.000976562, 0, 0, -0.00585938, 0.375977, -9.70898, 1.28.2022 18:10:45.995
559, 2.21041, 0.171996, 188.897, -0.000976562, -0.000976562, 0, -0.0605469, 0.386719, -9.66992, 1.28.2022 18:10:46.003
560, 2.21041, 0.171996, 188.897, -0.00195312, -0.000976562, 0, -0.0185547, 0.375977, -9.72266, 1.28.2022 18:10:46.011
561, 2.20987, 0.178968, 188.897, -0.000976562, -0.000976562, 0, 0.00976562, 0.359375, -9.73047, 1.28.2022 18:10:46.019
562, 2.20987, 0.178968, 188.897, -0.000976562, 0, 0, -0.0732422, 0.354492, -9.72949, 1.28.2022 18:10:46.027
563, 2.20987, 0.178968, 188.897, 0, 0.000976562, 0, 0.0224609, 0.358398, -9.70703, 1.28.2022 18:10:46.035
564, 2.20987, 0.178968, 188.897, -0.000976562, -0.000976562, 0, -0.015625, 0.365234, -9.67871, 1.28.2022 18:10:46.043
565, 2.20987, 0.178968, 188.897, 0, 0, 0, -0.0517578, 0.371094, -9.70605, 1.28.2022 18:10:46.051
566, 2.20987, 0.178968, 188.897, -0.000976562, -0.000976562, 0, 0.00292969, 0.364258, -9.71387, 1.28.2022 18:10:46.059
567, 2.20987, 0.178968, 188.897, -0.000976562, 0.00195312, 0, -0.107422, 0.384766, -9.75684, 1.28.2022 18:10:46.067
568, 2.20987, 0.178968, 188.897, -0.000976562, 0, 0, -0.0371094, 0.371094, -9.72266, 1.28.2022 18:10:46.075
569, 2.20987, 0.178968, 188.897, -0.000976562, -0.000976562, 0, -0.0253906, 0.34668, -9.68848, 1.28.2022 18:10:46.083
570, 2.20987, 0.178968, 188.897, -0.000976562, -0.000976562, 0, -0.0751953, 0.371094, -9.70312, 1.28.2022 18:10:46.091
571, 2.20987, 0.178968, 188.897, -0.000976562, -0.000976562, 0, 0.0146484, 0.34668, -9.71191, 1.28.2022 18:10:46.099
572, 2.20987, 0.178968, 188.897, -0.000976562, -0.000976562, 0.000976562, -0.0400391, 0.374023, -9.74121, 1.28.2022 18:10:46.107
573, 2.20987, 0.178968, 188.897, 0.000976562, 0.000976562, 0.000976562, -0.0488281, 0.360352, -9.68262, 1.28.2022 18:10:46.115
574, 2.20987, 0.178968, 188.897, 0, -0.000976562, 0, 0.0078125, 0.369141, -9.7168, 1.28.2022 18:10:46.123
575, 2.20987, 0.178968, 188.897, -0.000976562, -0.00195312, 0, -0.0488281, 0.382812, -9.70801, 1.28.2022 18:10:46.131
576, 2.20933, 0.18594, 188.897, -0.000976562, 0, -0.00195312, -0.0322266, 0.395508, -9.71973, 1.28.2022 18:10:46.139
577, 2.20933, 0.18594, 188.897, -0.000976562, -0.000976562, 0, 0.000976562, 0.341797, -9.69531, 1.28.2022 18:10:46.147
578, 2.20236, 0.185397, 188.897, -0.000976562, -0.000976562, 0, -0.078125, 0.393555, -9.73828, 1.28.2022 18:10:46.155
579, 2.20236, 0.185397, 188.897, -0.000976562, 0.000976562, 0.000976562, 0.0175781, 0.371094, -9.71191, 1.28.2022 18:10:46.163
580, 2.20236, 0.185397, 188.897, -0.000976562, -0.000976562, 0, -0.0302734, 0.344727, -9.71875, 1.28.2022 18:10:46.171
581, 2.20236, 0.185397, 188.897, -0.000976562, 0, 0, -0.0556641, 0.360352, -9.68262, 1.28.2022 18:10:46.179
582, 2.20236, 0.185397, 188.897, -0.000976562, 0.000976562, -0.000976562, 0.0224609, 0.341797, -9.70996, 1.28.2022 18:10:46.187
583, 2.20236, 0.185397, 188.897, 0, -0.000976562, 0, -0.0683594, 0.383789, -9.73145, 1.28.2022 18:10:46.195
584, 2.20236, 0.185397, 188.897, 0, -0.00195312, -0.00195312, -0.0371094, 0.365234, -9.68555, 1.28.2022 18:10:46.203
585, 2.20236, 0.185397, 188.897, -0.000976562, 0.000976562, 0, 0.00292969, 0.342773, -9.72461, 1.28.2022 18:10:46.211
586, 2.1954, 0.184855, 188.897, -0.000976562, -0.000976562, 0, -0.0712891, 0.374023, -9.72461, 1.28.2022 18:10:46.219
587, 2.1954, 0.184855, 188.897, -0.000976562, 0.000976562, 0, 0.0146484, 0.385742, -9.73047, 1.28.2022 18:10:46.227
588, 2.1954, 0.184855, 188.897, -0.000976562, 0, -0.00195312, -0.0263672, 0.376953, -9.75586, 1.28.2022 18:10:46.235
589, 2.1954, 0.184855, 188.897, -0.000976562, -0.00195312, 0, -0.0537109, 0.382812, -9.69336, 1.28.2022 18:10:46.243
590, 2.1954, 0.184855, 188.897, -0.000976562, -0.000976562, 0, 0.0166016, 0.375, -9.77051, 1.28.2022 18:10:46.251
591, 2.1954, 0.184855, 188.897, -0.000976562, 0.000976562, 0, -0.0615234, 0.376953, -9.73633, 1.28.2022 18:10:46.259
592, 2.19594, 0.177883, 188.897, 0, -0.000976562, 0, -0.0419922, 0.366211, -9.72559, 1.28.2022 18:10:46.265
593, 2.19594, 0.177883, 188.897, 0, -0.000976562, 0, -0.00585938, 0.373047, -9.70703, 1.28.2022 18:10:46.273
594, 2.18897, 0.17734, 188.897, -0.000976562, -0.000976562, 0, -0.0800781, 0.374023, -9.7168, 1.28.2022 18:10:46.281
595, 2.18897, 0.17734, 188.897, -0.000976562, -0.00195312, 0, 0.0273438, 0.354492, -9.71191, 1.28.2022 18:10:46.289
596, 2.18897, 0.17734, 188.897, 0, -0.00195312, -0.00195312, -0.0341797, 0.367188, -9.67578, 1.28.2022 18:10:46.297
597, 2.18897, 0.17734, 188.897, 0, -0.00195312, 0, -0.0537109, 0.423828, -9.71875, 1.28.2022 18:10:46.305
598, 2.18897, 0.17734, 188.897, -0.000976562, -0.00195312, 0.000976562, 0.0273438, 0.352539, -9.72168, 1.28.2022 18:10:46.313
599, 2.18897, 0.17734, 188.897, -0.000976562, -0.000976562, 0, -0.0439453, 0.385742, -9.70996, 1.28.2022 18:10:46.321
600, 2.18897, 0.17734, 188.897, -0.000976562, -0.000976562, 0, -0.0537109, 0.392578, -9.71484, 1.28.2022 18:10:46.329
601, 2.18897, 0.17734, 188.897, 0, -0.00195312, 0.000976562, 0.0146484, 0.369141, -9.7168, 1.28.2022 18:10:46.337
602, 2.18897, 0.17734, 188.897, 0, 0, -0.000976562, -0.0800781, 0.390625, -9.72168, 1.28.2022 18:10:46.345
603, 2.18897, 0.17734, 188.897, 0, 0, -0.000976562, -0.00585938, 0.394531, -9.69434, 1.28.2022 18:10:46.353
604, 2.18897, 0.17734, 188.897, -0.000976562, 0, 0, -0.0205078, 0.357422, -9.7207, 1.28.2022 18:10:46.361
605, 2.18897, 0.17734, 188.897, -0.00195312, 0.000976562, 0.000976562, -0.0751953, 0.392578, -9.7168, 1.28.2022 18:10:46.369
606, 2.18897, 0.17734, 188.897, -0.000976562, 0, 0.000976562, 0.0224609, 0.359375, -9.72168, 1.28.2022 18:10:46.377
607, 2.18897, 0.17734, 188.897, -0.000976562, 0, 0, -0.0283203, 0.395508, -9.71973, 1.28.2022 18:10:46.385
608, 2.18897, 0.17734, 188.897, -0.000976562, 0, -0.00195312, -0.0136719, 0.390625, -9.72461, 1.28.2022 18:10:46.393
609, 2.18897, 0.17734, 188.897, 0, 0, -0.000976562, 0.00585938, 0.349609, -9.70703, 1.28.2022 18:10:46.401
610, 2.18897, 0.17734, 188.897, -0.000976562, 0, 0, -0.0751953, 0.359375, -9.71289, 1.28.2022 18:10:46.409
611, 2.19594, 0.177883, 188.897, -0.000976562, 0.000976562, 0, 0.0078125, 0.359375, -9.70996, 1.28.2022 18:10:46.417
612, 2.19648, 0.170911, 188.897, -0.000976562, 0.000976562, -0.00195312, -0.0185547, 0.380859, -9.71094, 1.28.2022 18:10:46.425
613, 2.19648, 0.170911, 188.897, -0.000976562, 0, -0.00195312, -0.0644531, 0.386719, -9.74121, 1.28.2022 18:10:46.433
614, 2.19648, 0.170911, 188.897, 0, 0, -0.00195312, 0.0224609, 0.354492, -9.71484, 1.28.2022 18:10:46.441
615, 2.19648, 0.170911, 188.897, -0.000976562, 0, 0, -0.0537109, 0.390625, -9.72168, 1.28.2022 18:10:46.449
616, 2.19648, 0.170911, 188.897, -0.000976562, 0, 0.000976562, -0.0175781, 0.373047, -9.69922, 1.28.2022 18:10:46.457
617, 2.19648, 0.170911, 188.897, -0.000976562, 0, 0, 0.015625, 0.371094, -9.70215, 1.28.2022 18:10:46.465
618, 2.19648, 0.170911, 188.897, -0.000976562, 0, 0, -0.0771484, 0.394531, -9.70215, 1.28.2022 18:10:46.473
619, 2.19648, 0.170911, 188.897, -0.000976562, 0, 0, -0.0117188, 0.345703, -9.75879, 1.28.2022 18:10:46.481
620, 2.19702, 0.163939, 188.897, -0.000976562, 0.000976562, 0, -0.00683594, 0.366211, -9.72852, 1.28.2022 18:10:46.489
621, 2.19702, 0.163939, 188.897, -0.000976562, 0.000976562, 0, -0.0751953, 0.389648, -9.7002, 1.28.2022 18:10:46.497
622, 2.19702, 0.163939, 188.897, -0.000976562, 0.000976562, 0, 0.0205078, 0.378906, -9.67383, 1.28.2022 18:10:46.505
623, 2.19702, 0.163939, 188.897, 0, 0.000976562, 0, -0.0537109, 0.380859, -9.71484, 1.28.2022 18:10:46.513
624, 2.19702, 0.163939, 188.897, 0, 0, -0.000976562, -0.0419922, 0.382812, -9.70605, 1.28.2022 18:10:46.521
625, 2.19702, 0.163939, 188.897, -0.000976562, -0.000976562, -0.00195312, 0.0273438, 0.367188, -9.67188, 1.28.2022 18:10:46.529
626, 2.19702, 0.163939, 188.897, 0, 0, 0.000976562, -0.0556641, 0.391602, -9.68848, 1.28.2022 18:10:46.537
627, 2.19702, 0.163939, 188.897, 0, 0, -0.000976562, -0.00878906, 0.383789, -9.73926, 1.28.2022 18:10:46.545
628, 2.19757, 0.156967, 188.897, -0.000976562, 0, -0.00195312, -0.00683594, 0.339844, -9.72656, 1.28.2022 18:10:46.553
629, 2.20453, 0.157509, 188.897, -0.00195312, 0.000976562, 0, -0.0644531, 0.383789, -9.75, 1.28.2022 18:10:46.561
630, 2.20453, 0.157509, 188.897, -0.000976562, 0.000976562, 0, 0.0224609, 0.358398, -9.7002, 1.28.2022 18:10:46.569
631, 2.20453, 0.157509, 188.897, -0.000976562, 0.000976562, 0, -0.0566406, 0.364258, -9.73633, 1.28.2022 18:10:46.577
632, 2.20453, 0.157509, 188.897, -0.000976562, 0.000976562, 0, -0.0585938, 0.394531, -9.70508, 1.28.2022 18:10:46.585
633, 2.20453, 0.157509, 188.897, -0.000976562, -0.00195312, 0, 0.00488281, 0.349609, -9.7334, 1.28.2022 18:10:46.593
634, 2.20453, 0.157509, 188.897, -0.000976562, -0.000976562, 0, -0.0732422, 0.383789, -9.71973, 1.28.2022 18:10:46.601
635, 2.20453, 0.157509, 188.897, -0.000976562, -0.000976562, 0, -0.0322266, 0.379883, -9.69434, 1.28.2022 18:10:46.609
636, 2.20453, 0.157509, 188.897, -0.000976562, -0.00195312, 0, -0.00683594, 0.369141, -9.7207, 1.28.2022 18:10:46.617
637, 2.20453, 0.157509, 188.897, -0.000976562, -0.000976562, 0, -0.0712891, 0.388672, -9.72363, 1.28.2022 18:10:46.625
638, 2.20453, 0.157509, 188.897, -0.000976562, 0, 0, 0.00390625, 0.365234, -9.69238, 1.28.2022 18:10:46.633
639, 2.20453, 0.157509, 188.897, -0.000976562, 0, 0, -0.0585938, 0.373047, -9.69824, 1.28.2022 18:10:46.641
640, 2.20453, 0.157509, 188.897, -0.000976562, -0.000976562, 0, -0.0351562, 0.357422, -9.74414, 1.28.2022 18:10:46.649
641, 2.20453, 0.157509, 188.897, -0.000976562, -0.000976562, -0.00195312, 0.00585938, 0.361328, -9.71875, 1.28.2022 18:10:46.657
642, 2.20453, 0.157509, 188.897, -0.000976562, -0.00195312, 0, -0.0546875, 0.400391, -9.73535, 1.28.2022 18:10:46.665
643, 2.20453, 0.157509, 188.897, -0.000976562, -0.000976562, 0, -0.0107422, 0.382812, -9.71582, 1.28.2022 18:10:46.673
644, 2.20453, 0.157509, 188.897, -0.000976562, 0, 0, -0.0107422, 0.339844, -9.71484, 1.28.2022 18:10:46.681
645, 2.20453, 0.157509, 188.897, -0.000976562, -0.000976562, 0, -0.0488281, 0.375977, -9.70605, 1.28.2022 18:10:46.689
646, 2.20453, 0.157509, 188.897, -0.000976562, -0.000976562, 0, 0.00683594, 0.348633, -9.75, 1.28.2022 18:10:46.697
647, 2.20453, 0.157509, 188.897, -0.000976562, -0.000976562, 0, -0.0205078, 0.387695, -9.71094, 1.28.2022 18:10:46.705
648, 2.20453, 0.157509, 188.897, 0, -0.000976562, 0, -0.0498047, 0.412109, -9.73535, 1.28.2022 18:10:46.713
649, 2.20453, 0.157509, 188.897, -0.000976562, -0.000976562, 0, 0.0263672, 0.367188, -9.73828, 1.28.2022 18:10:46.721
650, 2.20453, 0.157509, 188.897, -0.000976562, -0.000976562, 0, -0.0800781, 0.357422, -9.71777, 1.28.2022 18:10:46.729
651, 2.20453, 0.157509, 188.897, 0, -0.00195312, -0.00195312, -0.0185547, 0.366211, -9.71094, 1.28.2022 18:10:46.737
652, 2.20453, 0.157509, 188.897, 0, -0.000976562, 0, -0.0224609, 0.345703, -9.67676, 1.28.2022 18:10:46.745
653, 2.20453, 0.157509, 188.897, -0.000976562, 0, 0, -0.0830078, 0.369141, -9.70996, 1.28.2022 18:10:46.753
654, 2.20453, 0.157509, 188.897, -0.000976562, 0, 0, 0.0205078, 0.365234, -9.69531, 1.28.2022 18:10:46.761
655, 2.20453, 0.157509, 188.897, -0.000976562, 0, -0.00292969, -0.0517578, 0.361328, -9.71094, 1.28.2022 18:10:46.769
656, 2.20449, 0.157644, 188.904, 0, -0.000976562, 0, -0.0136719, 0.364258, -9.73047, 1.28.2022 18:10:46.777
657, 2.19753, 0.157101, 188.904, 0, -0.000976562, 0, 0.0292969, 0.337891, -9.72949, 1.28.2022 18:10:46.785
658, 2.19698, 0.164073, 188.904, 0, -0.000976562, 0, -0.0898438, 0.359375, -9.71973, 1.28.2022 18:10:46.793
659, 2.19698, 0.164073, 188.904, 0, 0, 0, -0.0322266, 0.373047, -9.69629, 1.28.2022 18:10:46.801
660, 2.19698, 0.164073, 188.904, -0.000976562, 0, 0, 0.000976562, 0.352539, -9.72852, 1.28.2022 18:10:46.809
661, 2.19698, 0.164073, 188.904, -0.000976562, -0.000976562, 0, -0.0800781, 0.395508, -9.72852, 1.28.2022 18:10:46.817
662, 2.19698, 0.164073, 188.904, -0.000976562, 0, -0.000976562, 0.0410156, 0.397461, -9.71875, 1.28.2022 18:10:46.825
663, 2.19753, 0.157101, 188.904, -0.000976562, 0, 0, -0.0273438, 0.397461, -9.71289, 1.28.2022 18:10:46.833
664, 2.19056, 0.156558, 188.904, -0.000976562, -0.000976562, 0, -0.0439453, 0.389648, -9.70312, 1.28.2022 18:10:46.841
665, 2.19056, 0.156558, 188.904, -0.000976562, 0, 0, 0.00976562, 0.359375, -9.72852, 1.28.2022 18:10:46.849
666, 2.19056, 0.156558, 188.904, -0.000976562, -0.000976562, 0, -0.0732422, 0.40918, -9.71875, 1.28.2022 18:10:46.857
667, 2.19056, 0.156558, 188.904, -0.000976562, -0.000976562, 0, -0.000976562, 0.375, -9.69434, 1.28.2022 18:10:46.865
668, 2.19056, 0.156558, 188.904, -0.000976562, -0.000976562, 0, -0.0253906, 0.370117, -9.69727, 1.28.2022 18:10:46.873
669, 2.19056, 0.156558, 188.904, -0.000976562, -0.00195312, 0, -0.0595703, 0.421875, -9.74219, 1.28.2022 18:10:46.881
670, 2.19056, 0.156558, 188.904, -0.000976562, 0, 0, 0.0224609, 0.387695, -9.71094, 1.28.2022 18:10:46.889
671, 2.19056, 0.156558, 188.904, -0.000976562, 0, 0, -0.0498047, 0.398438, -9.74512, 1.28.2022 18:10:46.897
672, 2.19753, 0.157101, 188.904, -0.000976562, -0.000976562, -0.000976562, -0.0537109, 0.385742, -9.71777, 1.28.2022 18:10:46.905
673, 2.19753, 0.157101, 188.904, 0, -0.000976562, -0.000976562, 0.0292969, 0.364258, -9.71973, 1.28.2022 18:10:46.913
674, 2.19753, 0.157101, 188.904, -0.000976562, 0, -0.000976562, -0.0654297, 0.379883, -9.69629, 1.28.2022 18:10:46.921
675, 2.19753, 0.157101, 188.904, -0.000976562, -0.000976562, -0.000976562, 0.0078125, 0.399414, -9.69922, 1.28.2022 18:10:46.929
676, 2.19753, 0.157101, 188.904, -0.000976562, -0.000976562, -0.000976562, 0.0078125, 0.369141, -9.7168, 1.28.2022 18:10:46.937
677, 2.19753, 0.157101, 188.904, -0.000976562, -0.000976562, 0, -0.0654297, 0.404297, -9.69336, 1.28.2022 18:10:46.945
678, 2.19753, 0.157101, 188.904, -0.000976562, -0.000976562, 0, 0.0341797, 0.337891, -9.71484, 1.28.2022 18:10:46.953
679, 2.20449, 0.157644, 188.904, -0.000976562, -0.00195312, 0, -0.0683594, 0.369141, -9.73438, 1.28.2022 18:10:46.961
680, 2.20449, 0.157644, 188.904, -0.000976562, 0, 0, -0.0615234, 0.398438, -9.74512, 1.28.2022 18:10:46.969
681, 2.20449, 0.157644, 188.904, -0.000976562, -0.00195312, 0, 0.00488281, 0.367188, -9.74707, 1.28.2022 18:10:46.977
682, 2.20449, 0.157644, 188.904, -0.000976562, -0.000976562, -0.000976562, -0.0683594, 0.384766, -9.7002, 1.28.2022 18:10:46.985
683, 2.20449, 0.157644, 188.904, -0.000976562, -0.00195312, -0.000976562, -0.0449219, 0.371094, -9.72461, 1.28.2022 18:10:46.993
684, 2.20449, 0.157644, 188.904, 0, -0.000976562, 0, -0.0117188, 0.367188, -9.74023, 1.28.2022 18:10:47.001
685, 2.21146, 0.158187, 188.904, 0, -0.000976562, -0.000976562, -0.0654297, 0.399414, -9.70996, 1.28.2022 18:10:47.009
686, 2.21146, 0.158187, 188.904, 0, -0.000976562, 0, 0.0078125, 0.375977, -9.7207, 1.28.2022 18:10:47.017
687, 2.21146, 0.158187, 188.904, -0.000976562, -0.000976562, 0, -0.0205078, 0.369141, -9.72754, 1.28.2022 18:10:47.025
688, 2.21146, 0.158187, 188.904, 0, -0.00195312, 0, -0.0566406, 0.371094, -9.71777, 1.28.2022 18:10:47.033
689, 2.21146, 0.158187, 188.904, 0, 0, 0.000976562, 0.0292969, 0.356445, -9.70801, 1.28.2022 18:10:47.041
690, 2.21146, 0.158187, 188.904, 0.000976562, -0.000976562, 0.000976562, -0.0751953, 0.379883, -9.67676, 1.28.2022 18:10:47.049
691, 2.21146, 0.158187, 188.904, 0, -0.00195312, -0.000976562, 0.0205078, 0.384766, -9.70703, 1.28.2022 18:10:47.057
692, 2.21146, 0.158187, 188.904, -0.000976562, -0.000976562, 0, -0.0185547, 0.371094, -9.71875, 1.28.2022 18:10:47.065
693, 2.21146, 0.158187, 188.904, -0.000976562, -0.000976562, 0, -0.0917969, 0.400391, -9.71387, 1.28.2022 18:10:47.073
694, 2.21146, 0.158187, 188.904, -0.000976562, -0.000976562, 0, -0.00683594, 0.395508, -9.73438, 1.28.2022 18:10:47.081
695, 2.21146, 0.158187, 188.904, 0, -0.000976562, 0, -0.0205078, 0.366211, -9.71387, 1.28.2022 18:10:47.089
696, 2.21146, 0.158187, 188.904, 0, -0.00195312, 0, -0.0224609, 0.382812, -9.69434, 1.28.2022 18:10:47.097
697, 2.21146, 0.158187, 188.904, -0.00195312, 0, 0.000976562, 0.0361328, 0.37207, -9.74707, 1.28.2022 18:10:47.105
698, 2.21842, 0.15873, 188.904, -0.000976562, 0, 0, -0.0615234, 0.364258, -9.72949, 1.28.2022 18:10:47.113
699, 2.21842, 0.15873, 188.904, -0.000976562, 0, -0.000976562, -0.0371094, 0.375977, -9.72461, 1.28.2022 18:10:47.121
700, 2.21842, 0.15873, 188.904, -0.000976562, 0.00195312, -0.000976562, -0.015625, 0.339844, -9.70508, 1.28.2022 18:10:47.129
701, 2.21842, 0.15873, 188.904, 0, 0.000976562, 0, -0.0957031, 0.393555, -9.75684, 1.28.2022 18:10:47.137
702, 2.21842, 0.15873, 188.904, -0.000976562, 0, -0.000976562, 0.0322266, 0.379883, -9.69043, 1.28.2022 18:10:47.145
703, 2.21842, 0.15873, 188.904, -0.000976562, 0, 0, -0.0341797, 0.350586, -9.67871, 1.28.2022 18:10:47.153
704, 2.21842, 0.15873, 188.904, -0.00195312, 0, 0, -0.0371094, 0.344727, -9.71387, 1.28.2022 18:10:47.161
705, 2.21842, 0.15873, 188.904, -0.00195312, 0.000976562, 0, 0.0146484, 0.359375, -9.7168, 1.28.2022 18:10:47.169
706, 2.21842, 0.15873, 188.904, -0.00195312, 0, 0, -0.0517578, 0.374023, -9.71777, 1.28.2022 18:10:47.177
707, 2.21842, 0.15873, 188.904, -0.000976562, -0.00195312, 0, -0.0117188, 0.388672, -9.73242, 1.28.2022 18:10:47.185
708, 2.21842, 0.15873, 188.904, -0.00195312, 0.000976562, -0.000976562, 0.000976562, 0.349609, -9.70508, 1.28.2022 18:10:47.193
709, 2.21842, 0.15873, 188.904, -0.000976562, 0, 0, -0.0605469, 0.40625, -9.68359, 1.28.2022 18:10:47.201
710, 2.21842, 0.15873, 188.904, -0.000976562, 0, 0, 0.000976562, 0.380859, -9.72754, 1.28.2022 18:10:47.209
711, 2.21842, 0.15873, 188.904, -0.000976562, 0, 0, -0.0449219, 0.364258, -9.71777, 1.28.2022 18:10:47.217
712, 2.21842, 0.15873, 188.904, -0.000976562, 0, -0.000976562, -0.0507812, 0.396484, -9.68652, 1.28.2022 18:10:47.223
713, 2.21842, 0.15873, 188.904, -0.000976562, 0, 0, 0.0244141, 0.380859, -9.71875, 1.28.2022 18:10:47.231
714, 2.21842, 0.15873, 188.904, 0, 0, 0, -0.0898438, 0.379883, -9.69336, 1.28.2022 18:10:47.239
715, 2.21842, 0.15873, 188.904, -0.000976562, 0, 0, -0.0419922, 0.369141, -9.72949, 1.28.2022 18:10:47.247
716, 2.21842, 0.15873, 188.904, -0.000976562, -0.00195312, 0, 0.0078125, 0.334961, -9.69629, 1.28.2022 18:10:47.255
717, 2.21842, 0.15873, 188.904, -0.000976562, -0.00195312, 0, -0.0878906, 0.352539, -9.71582, 1.28.2022 18:10:47.263
718, 2.21842, 0.15873, 188.904, 0, -0.00195312, 0, 0.0224609, 0.379883, -9.69727, 1.28.2022 18:10:47.271
719, 2.21146, 0.158187, 188.904, 0, -0.00195312, 0, -0.0449219, 0.380859, -9.73145, 1.28.2022 18:10:47.279
720, 2.21146, 0.158187, 188.904, -0.000976562, 0, -0.000976562, -0.0498047, 0.391602, -9.75, 1.28.2022 18:10:47.287
721, 2.21146, 0.158187, 188.904, -0.000976562, 0, 0, 0.0107422, 0.353516, -9.69824, 1.28.2022 18:10:47.295
722, 2.21146, 0.158187, 188.904, -0.000976562, -0.00195312, 0, -0.0605469, 0.373047, -9.68262, 1.28.2022 18:10:47.303
723, 2.21146, 0.158187, 188.904, -0.000976562, 0, -0.000976562, 0.00585938, 0.373047, -9.70703, 1.28.2022 18:10:47.311
724, 2.21146, 0.158187, 188.904, 0, 0, 0, 0.000976562, 0.359375, -9.72852, 1.28.2022 18:10:47.319
725, 2.21146, 0.158187, 188.904, 0, 0, 0.000976562, -0.0830078, 0.375, -9.75684, 1.28.2022 18:10:47.327
726, 2.21146, 0.158187, 188.904, -0.000976562, 0, 0, 0.00976562, 0.371094, -9.73047, 1.28.2022 18:10:47.335
727, 2.21146, 0.158187, 188.904, -0.000976562, 0, -0.000976562, -0.0166016, 0.342773, -9.72656, 1.28.2022 18:10:47.343
728, 2.21146, 0.158187, 188.904, -0.000976562, 0, 0, -0.0546875, 0.376953, -9.73633, 1.28.2022 18:10:47.351
729, 2.21146, 0.158187, 188.904, -0.00195312, 0, -0.000976562, 0.00390625, 0.363281, -9.7002, 1.28.2022 18:10:47.359
730, 2.21146, 0.158187, 188.904, -0.000976562, 0, 0, -0.0517578, 0.366211, -9.70117, 1.28.2022 18:10:47.367
731, 2.20449, 0.157644, 188.904, -0.000976562, 0, 0, -0.0322266, 0.382812, -9.71094, 1.28.2022 18:10:47.375
732, 2.20449, 0.157644, 188.904, -0.000976562, 0.000976562, 0, 0.0361328, 0.338867, -9.75293, 1.28.2022 18:10:47.383
733, 2.20449, 0.157644, 188.904, 0.000976562, 0, 0.000976562, -0.0664062, 0.374023, -9.73145, 1.28.2022 18:10:47.391
734, 2.20449, 0.157644, 188.904, 0.000976562, 0, 0, 0.00292969, 0.361328, -9.7168, 1.28.2022 18:10:47.399
735, 2.20449, 0.157644, 188.904, 0.000976562, -0.00195312, 0, -0.0146484, 0.37207, -9.75391, 1.28.2022 18:10:47.407
736, 2.19753, 0.157101, 188.904, -0.000976562, -0.00195312, 0, -0.0341797, 0.382812, -9.69629, 1.28.2022 18:10:47.415
737, 2.19753, 0.157101, 188.904, -0.000976562, -0.00195312, 0, 0.0390625, 0.353516, -9.69336, 1.28.2022 18:10:47.423
738, 2.19753, 0.157101, 188.904, -0.000976562, 0.000976562, 0, -0.046875, 0.373047, -9.69629, 1.28.2022 18:10:47.431
739, 2.19753, 0.157101, 188.904, -0.000976562, 0.000976562, 0.000976562, -0.0351562, 0.382812, -9.71094, 1.28.2022 18:10:47.439
740, 2.19757, 0.156967, 188.897, -0.000976562, 0, 0.000976562, 0.0146484, 0.351562, -9.71973, 1.28.2022 18:10:47.447
741, 2.19757, 0.156967, 188.897, -0.000976562, 0, 0.000976562, -0.0751953, 0.394531, -9.70703, 1.28.2022 18:10:47.455
742, 2.19757, 0.156967, 188.897, 0.000976562, 0, 0, 0.00585938, 0.374023, -9.72363, 1.28.2022 18:10:47.463
743, 2.1906, 0.156424, 188.897, -0.000976562, 0.000976562, 0.000976562, -0.00878906, 0.349609, -9.70703, 1.28.2022 18:10:47.471
744, 2.1906, 0.156424, 188.897, 0.000976562, 0, 0, -0.0615234, 0.359375, -9.72461, 1.28.2022 18:10:47.479
745, 2.19114, 0.149452, 188.897, -0.000976562, 0, -0.000976562, 0.0341797, 0.369141, -9.7334, 1.28.2022 18:10:47.487
746, 2.19114, 0.149452, 188.897, 0.000976562, 0, 0, -0.0390625, 0.371094, -9.70117, 1.28.2022 18:10:47.495
747, 2.19114, 0.149452, 188.897, -0.000976562, 0, 0, -0.0371094, 0.392578, -9.72461, 1.28.2022 18:10:47.503
748, 2.19114, 0.149452, 188.897, 0.000976562, 0, 0, -0.0273438, 0.355469, -9.6709, 1.28.2022 18:10:47.511
749, 2.18418, 0.14891, 188.897, 0.000976562, 0.000976562, 0, -0.0800781, 0.37793, -9.69141, 1.28.2022 18:10:47.519
750, 2.18418, 0.14891, 188.897, 0.000976562, 0.000976562, -0.000976562, 0.00292969, 0.375977, -9.7207, 1.28.2022 18:10:47.527
751, 2.18418, 0.14891, 188.897, -0.000976562, 0, -0.000976562, -0.0253906, 0.364258, -9.72754, 1.28.2022 18:10:47.535
752, 2.18418, 0.14891, 188.897, -0.000976562, 0, -0.000976562, -0.0625, 0.393555, -9.67676, 1.28.2022 18:10:47.543
753, 2.18418, 0.14891, 188.897, -0.00195312, 0.000976562, -0.000976562, 0.0263672, 0.369141, -9.72852, 1.28.2022 18:10:47.551
754, 2.18472, 0.141938, 188.898, -0.000976562, 0, -0.000976562, -0.0732422, 0.368164, -9.70117, 1.28.2022 18:10:47.559
755, 2.18472, 0.141938, 188.898, 0.000976562, 0, 0, -0.0185547, 0.378906, -9.72559, 1.28.2022 18:10:47.567
756, 2.18472, 0.141938, 188.898, -0.000976562, 0, 0, 0.00976562, 0.369141, -9.7207, 1.28.2022 18:10:47.575
757, 2.18472, 0.141938, 188.898, -0.00195312, 0.00195312, 0, -0.0898438, 0.375977, -9.72363, 1.28.2022 18:10:47.583
758, 2.18472, 0.141938, 188.898, 0.000976562, 0, -0.000976562, -0.00976562, 0.37207, -9.76074, 1.28.2022 18:10:47.591
759, 2.18472, 0.141938, 188.898, -0.000976562, 0, 0, -0.0214844, 0.345703, -9.74512, 1.28.2022 18:10:47.599
760, 2.18472, 0.141938, 188.898, -0.000976562, 0, 0, -0.0322266, 0.375977, -9.72266, 1.28.2022 18:10:47.607
761, 2.18472, 0.141938, 188.898, -0.000976562, -0.000976562, 0, 0.03125, 0.374023, -9.72852, 1.28.2022 18:10:47.615
762, 2.18472, 0.141938, 188.898, -0.000976562, -0.000976562, 0, -0.0400391, 0.373047, -9.71289, 1.28.2022 18:10:47.623
763, 2.18472, 0.141938, 188.898, -0.000976562, -0.000976562, 0, -0.0332031, 0.375977, -9.72754, 1.28.2022 18:10:47.631
764, 2.18472, 0.141938, 188.898, -0.000976562, -0.00195312, 0, -0.015625, 0.374023, -9.7207, 1.28.2022 18:10:47.639
765, 2.18418, 0.14891, 188.897, -0.000976562, -0.000976562, 0, -0.0849609, 0.379883, -9.69336, 1.28.2022 18:10:47.647
766, 2.18418, 0.14891, 188.897, -0.00195312, -0.000976562, -0.00195312, -0.00878906, 0.390625, -9.73438, 1.28.2022 18:10:47.655
767, 2.18418, 0.14891, 188.897, 0, -0.000976562, 0, -0.0166016, 0.37207, -9.73242, 1.28.2022 18:10:47.663
768, 2.18418, 0.14891, 188.897, -0.000976562, 0, 0, -0.0673828, 0.40625, -9.68555, 1.28.2022 18:10:47.671
769, 2.18418, 0.14891, 188.897, -0.000976562, -0.000976562, 0, 0.0136719, 0.383789, -9.6709, 1.28.2022 18:10:47.679
770, 2.18418, 0.14891, 188.897, 0, -0.000976562, 0, -0.0595703, 0.394531, -9.76465, 1.28.2022 18:10:47.687
771, 2.18418, 0.14891, 188.897, -0.000976562, 0, 0, -0.00390625, 0.380859, -9.73242, 1.28.2022 18:10:47.695
772, 2.18418, 0.14891, 188.897, -0.000976562, -0.000976562, 0.000976562, -0.00585938, 0.359375, -9.71191, 1.28.2022 18:10:47.703
773, 2.19114, 0.149452, 188.897, -0.000976562, -0.000976562, 0.000976562, -0.0878906, 0.390625, -9.72852, 1.28.2022 18:10:47.711
774, 2.19114, 0.149452, 188.897, -0.000976562, -0.000976562, 0.000976562, 0.0078125, 0.358398, -9.70703, 1.28.2022 18:10:47.719
775, 2.19114, 0.149452, 188.897, -0.000976562, -0.000976562, 0, -0.0117188, 0.357422, -9.72363, 1.28.2022 18:10:47.727
776, 2.19114, 0.149452, 188.897, -0.000976562, -0.000976562, -0.00195312, -0.0703125, 0.373047, -9.70996, 1.28.2022 18:10:47.735
777, 2.19114, 0.149452, 188.897, -0.000976562, -0.000976562, 0, 0.0146484, 0.322266, -9.7627, 1.28.2022 18:10:47.743
778, 2.19114, 0.149452, 188.897, -0.000976562, -0.000976562, 0, -0.0351562, 0.368164, -9.69922, 1.28.2022 18:10:47.751
779, 2.19114, 0.149452, 188.897, -0.000976562, -0.000976562, 0, -0.0498047, 0.369141, -9.73926, 1.28.2022 18:10:47.759
780, 2.19114, 0.149452, 188.897, -0.000976562, -0.000976562, 0, 0.0390625, 0.34668, -9.70801, 1.28.2022 18:10:47.767
781, 2.19114, 0.149452, 188.897, -0.000976562, -0.00195312, 0, -0.0849609, 0.387695, -9.70508, 1.28.2022 18:10:47.775
782, 2.19114, 0.149452, 188.897, 0, -0.000976562, 0, -0.0136719, 0.373047, -9.71582, 1.28.2022 18:10:47.783
783, 2.19114, 0.149452, 188.897, -0.000976562, 0, 0, -0.0234375, 0.385742, -9.73242, 1.28.2022 18:10:47.791
784, 2.19114, 0.149452, 188.897, -0.000976562, 0, -0.000976562, -0.0703125, 0.396484, -9.67871, 1.28.2022 18:10:47.799
785, 2.19114, 0.149452, 188.897, -0.000976562, -0.000976562, -0.00195312, 0.0302734, 0.386719, -9.68555, 1.28.2022 18:10:47.807
786, 2.1906, 0.156424, 188.897, -0.000976562, -0.000976562, 0, -0.0380859, 0.335938, -9.73828, 1.28.2022 18:10:47.815
787, 2.19757, 0.156967, 188.897, -0.000976562, -0.000976562, 0, -0.0439453, 0.365234, -9.67578, 1.28.2022 18:10:47.823
788, 2.1906, 0.156424, 188.897, 0, -0.00195312, 0, 0.0195312, 0.357422, -9.73535, 1.28.2022 18:10:47.831
789, 2.1906, 0.156424, 188.897, -0.000976562, -0.000976562, 0, -0.0654297, 0.384766, -9.69336, 1.28.2022 18:10:47.839
790, 2.1906, 0.156424, 188.897, -0.000976562, 0, 0, 0.000976562, 0.373047, -9.71582, 1.28.2022 18:10:47.847
791, 2.1906, 0.156424, 188.897, -0.000976562, 0, 0, -0.0185547, 0.364258, -9.71094, 1.28.2022 18:10:47.855
792, 2.19757, 0.156967, 188.897, -0.00195312, -0.000976562, 0, -0.0830078, 0.380859, -9.71191, 1.28.2022 18:10:47.863
793, 2.19757, 0.156967, 188.897, -0.00195312, -0.00195312, 0, 0.0527344, 0.354492, -9.71777, 1.28.2022 18:10:47.871
794, 2.19757, 0.156967, 188.897, 0.000976562, 0.000976562, 0, -0.0507812, 0.37793, -9.68652, 1.28.2022 18:10:47.879
795, 2.1906, 0.156424, 188.897, 0.000976562, -0.000976562, 0, -0.0410156, 0.396484, -9.68164, 1.28.2022 18:10:47.887
796, 2.1906, 0.156424, 188.897, -0.000976562, -0.00195312, -0.000976562, 0.00585938, 0.361328, -9.70508, 1.28.2022 18:10:47.895
797, 2.1906, 0.156424, 188.897, 0.000976562, -0.000976562, -0.00195312, -0.0566406, 0.387695, -9.71973, 1.28.2022 18:10:47.903
798, 2.1906, 0.156424, 188.897, 0.000976562, -0.000976562, 0, -0.00878906, 0.37207, -9.74219, 1.28.2022 18:10:47.911
799, 2.1906, 0.156424, 188.897, -0.000976562, -0.000976562, 0, -0.0263672, 0.335938, -9.75488, 1.28.2022 18:10:47.919
800, 2.1906, 0.156424, 188.897, -0.000976562, -0.00195312, -0.000976562, -0.078125, 0.388672, -9.73145, 1.28.2022 18:10:47.927
801, 2.1906, 0.156424, 188.897, -0.000976562, -0.000976562, 0, 0.0214844, 0.342773, -9.74609, 1.28.2022 18:10:47.935
802, 2.1906, 0.156424, 188.897, -0.000976562, -0.000976562, -0.00195312, -0.03125, 0.37207, -9.7627, 1.28.2022 18:10:47.943
803, 2.1906, 0.156424, 188.897, -0.000976562, 0.000976562, 0, -0.0683594, 0.383789, -9.74316, 1.28.2022 18:10:47.951
804, 2.1906, 0.156424, 188.897, 0.000976562, -0.000976562, -0.00195312, 0.0214844, 0.34082, -9.75781, 1.28.2022 18:10:47.959
805, 2.19056, 0.156558, 188.904, 0.000976562, -0.00195312, -0.00195312, -0.0751953, 0.380859, -9.72168, 1.28.2022 18:10:47.967
806, 2.19056, 0.156558, 188.904, -0.000976562, -0.000976562, 0, 0.000976562, 0.364258, -9.7207, 1.28.2022 18:10:47.975
807, 2.19056, 0.156558, 188.904, -0.000976562, -0.000976562, 0, -0.0205078, 0.367188, -9.73047, 1.28.2022 18:10:47.983
808, 2.19056, 0.156558, 188.904, -0.000976562, -0.000976562, 0, -0.0898438, 0.373047, -9.69629, 1.28.2022 18:10:47.991
809, 2.19056, 0.156558, 188.904, -0.000976562, -0.000976562, 0, 0.00683594, 0.37207, -9.66699, 1.28.2022 18:10:47.999
810, 2.19056, 0.156558, 188.904, 0.000976562, 0.000976562, 0, -0.0683594, 0.34082, -9.72266, 1.28.2022 18:10:48.007
811, 2.18359, 0.156015, 188.904, 0.000976562, -0.000976562, 0, -0.0419922, 0.374023, -9.72754, 1.28.2022 18:10:48.015
812, 2.18359, 0.156015, 188.904, 0.000976562, 0.000976562, 0, 0.0117188, 0.365234, -9.77539, 1.28.2022 18:10:48.023
813, 2.18359, 0.156015, 188.904, -0.000976562, -0.00195312, -0.000976562, -0.0751953, 0.402344, -9.72559, 1.28.2022 18:10:48.031
814, 2.18359, 0.156015, 188.904, 0.000976562, -0.00195312, -0.000976562, -0.0351562, 0.368164, -9.70898, 1.28.2022 18:10:48.039
815, 2.18305, 0.162987, 188.904, -0.000976562, -0.000976562, -0.00195312, 0.0126953, 0.34668, -9.69141, 1.28.2022 18:10:48.047
816, 2.18305, 0.162987, 188.904, -0.000976562, -0.000976562, 0, -0.0585938, 0.395508, -9.71191, 1.28.2022 18:10:48.055
817, 2.18305, 0.162987, 188.904, -0.000976562, 0.000976562, 0, 0.00683594, 0.381836, -9.75391, 1.28.2022 18:10:48.063
818, 2.18305, 0.162987, 188.904, -0.000976562, -0.000976562, 0, -0.0546875, 0.370117, -9.75293, 1.28.2022 18:10:48.071
819, 2.18305, 0.162987, 188.904, -0.000976562, -0.000976562, 0, -0.0253906, 0.399414, -9.70312, 1.28.2022 18:10:48.079
820, 2.18305, 0.162987, 188.904, -0.00195312, -0.000976562, 0, 0.0107422, 0.361328, -9.71387, 1.28.2022 18:10:48.087
821, 2.18305, 0.162987, 188.904, -0.000976562, 0.000976562, 0, -0.0683594, 0.367188, -9.72461, 1.28.2022 18:10:48.095
822, 2.18305, 0.162987, 188.904, -0.000976562, 0.000976562, 0, -0.015625, 0.351562, -9.70508, 1.28.2022 18:10:48.103
823, 2.18305, 0.162987, 188.904, -0.000976562, 0.000976562, 0, -0.0185547, 0.357422, -9.73535, 1.28.2022 18:10:48.111
824, 2.18305, 0.162987, 188.904, -0.000976562, 0.000976562, 0, -0.0986328, 0.37793, -9.68164, 1.28.2022 18:10:48.119
825, 2.18305, 0.162987, 188.904, -0.000976562, 0, 0, -0.00488281, 0.34375, -9.74512, 1.28.2022 18:10:48.127
826, 2.18305, 0.162987, 188.904, -0.000976562, -0.000976562, 0, -0.0419922, 0.371094, -9.72266, 1.28.2022 18:10:48.135
827, 2.18305, 0.162987, 188.904, -0.000976562, -0.000976562, 0, -0.0302734, 0.383789, -9.73145, 1.28.2022 18:10:48.143
828, 2.18305, 0.162987, 188.904, -0.000976562, -0.000976562, -0.000976562, 0.00976562, 0.354492, -9.73535, 1.28.2022 18:10:48.149
829, 2.18305, 0.162987, 188.904, 0, -0.000976562, 0, -0.078125, 0.390625, -9.71484, 1.28.2022 18:10:48.157
830, 2.18305, 0.162987, 188.904, -0.000976562, -0.000976562, 0, -0.0302734, 0.370117, -9.69434, 1.28.2022 18:10:48.165
831, 2.18251, 0.169959, 188.904, -0.000976562, -0.000976562, 0, -0.00390625, 0.359375, -9.72363, 1.28.2022 18:10:48.175
832, 2.18251, 0.169959, 188.904, -0.000976562, -0.00195312, 0, -0.0849609, 0.394531, -9.69531, 1.28.2022 18:10:48.183
833, 2.18251, 0.169959, 188.904, 0, -0.00195312, 0, 0.00585938, 0.380859, -9.7207, 1.28.2022 18:10:48.189
834, 2.18251, 0.169959, 188.904, 0, -0.000976562, 0.000976562, -0.0439453, 0.375977, -9.70605, 1.28.2022 18:10:48.197
835, 2.18251, 0.169959, 188.904, 0, -0.00195312, 0, -0.0351562, 0.385742, -9.71777, 1.28.2022 18:10:48.205
836, 2.18251, 0.169959, 188.904, 0, -0.00195312, 0, 0.0341797, 0.333008, -9.71973, 1.28.2022 18:10:48.213
837, 2.18197, 0.176931, 188.904, 0, -0.00195312, 0, -0.0615234, 0.375, -9.74805, 1.28.2022 18:10:48.221
838, 2.18197, 0.176931, 188.904, -0.000976562, -0.000976562, 0, -0.0185547, 0.359375, -9.71387, 1.28.2022 18:10:48.229
839, 2.18201, 0.176798, 188.897, -0.000976562, -0.000976562, 0.000976562, 0.000976562, 0.354492, -9.72656, 1.28.2022 18:10:48.237
840, 2.18201, 0.176798, 188.897, -0.000976562, 0, 0, -0.0751953, 0.395508, -9.72168, 1.28.2022 18:10:48.245
841, 2.18201, 0.176798, 188.897, -0.000976562, -0.00195312, 0, 0.00683594, 0.365234, -9.75879, 1.28.2022 18:10:48.253
842, 2.18201, 0.176798, 188.897, -0.00195312, -0.00195312, 0, -0.046875, 0.380859, -9.72656, 1.28.2022 18:10:48.261
843, 2.18201, 0.176798, 188.897, -0.000976562, -0.000976562, 0, -0.0722656, 0.389648, -9.67676, 1.28.2022 18:10:48.269
844, 2.18201, 0.176798, 188.897, -0.000976562, -0.000976562, 0, 0.0126953, 0.337891, -9.71484, 1.28.2022 18:10:48.277
845, 2.18201, 0.176798, 188.897, -0.00195312, -0.000976562, 0, -0.0664062, 0.405273, -9.72168, 1.28.2022 18:10:48.285
846, 2.18201, 0.176798, 188.897, -0.00195312, -0.000976562, 0, -0.0224609, 0.387695, -9.70605, 1.28.2022 18:10:48.293
847, 2.18201, 0.176798, 188.897, -0.00195312, -0.000976562, 0, -0.00390625, 0.359375, -9.73535, 1.28.2022 18:10:48.301
848, 2.18201, 0.176798, 188.897, 0, -0.000976562, 0, -0.0849609, 0.363281, -9.69629, 1.28.2022 18:10:48.309
849, 2.18201, 0.176798, 188.897, 0, -0.000976562, 0, 0.0175781, 0.363281, -9.70996, 1.28.2022 18:10:48.317
850, 2.18201, 0.176798, 188.897, -0.000976562, -0.000976562, 0, -0.0361328, 0.375, -9.76074, 1.28.2022 18:10:48.325
851, 2.18201, 0.176798, 188.897, 0, -0.00195312, 0, -0.0390625, 0.366211, -9.69922, 1.28.2022 18:10:48.333
852, 2.18201, 0.176798, 188.897, 0, -0.000976562, 0.000976562, 0.00585938, 0.353516, -9.68848, 1.28.2022 18:10:48.341
853, 2.18201, 0.176798, 188.897, 0, 0, 0, -0.0732422, 0.407227, -9.7334, 1.28.2022 18:10:48.349
854, 2.18201, 0.176798, 188.897, 0, -0.000976562, -0.000976562, -0.0332031, 0.390625, -9.73145, 1.28.2022 18:10:48.357
855, 2.18201, 0.176798, 188.897, -0.000976562, -0.000976562, 0, 0.015625, 0.356445, -9.70996, 1.28.2022 18:10:48.365
856, 2.18201, 0.176798, 188.897, -0.000976562, 0, -0.000976562, -0.0683594, 0.397461, -9.71191, 1.28.2022 18:10:48.373
857, 2.18201, 0.176798, 188.897, -0.000976562, 0.000976562, -0.00195312, 0.0126953, 0.387695, -9.71094, 1.28.2022 18:10:48.381
858, 2.18201, 0.176798, 188.897, -0.000976562, 0, -0.00195312, -0.0107422, 0.339844, -9.69531, 1.28.2022 18:10:48.389
859, 2.18201, 0.176798, 188.897, 0, -0.000976562, -0.000976562, -0.0664062, 0.375977, -9.72949, 1.28.2022 18:10:48.397
860, 2.18201, 0.176798, 188.897, -0.000976562, 0, 0, 0.0078125, 0.362305, -9.74219, 1.28.2022 18:10:48.405
861, 2.18897, 0.17734, 188.897, -0.00195312, 0, 0.000976562, -0.0849609, 0.352539, -9.71289, 1.28.2022 18:10:48.413
862, 2.18897, 0.17734, 188.897, -0.000976562, -0.000976562, 0, -0.0273438, 0.380859, -9.71582, 1.28.2022 18:10:48.421
863, 2.18897, 0.17734, 188.897, -0.000976562, 0, 0.000976562, 0.0244141, 0.374023, -9.72559, 1.28.2022 18:10:48.429
864, 2.18897, 0.17734, 188.897, -0.000976562, 0, 0, -0.0849609, 0.386719, -9.68652, 1.28.2022 18:10:48.437
865, 2.18897, 0.17734, 188.897, -0.000976562, 0, 0.000976562, -0.00878906, 0.391602, -9.69434, 1.28.2022 18:10:48.445
866, 2.18897, 0.17734, 188.897, -0.000976562, 0.000976562, 0, -0.0488281, 0.37793, -9.70605, 1.28.2022 18:10:48.453
867, 2.18897, 0.17734, 188.897, -0.000976562, 0.000976562, 0, -0.0605469, 0.382812, -9.70312, 1.28.2022 18:10:48.461
868, 2.18897, 0.17734, 188.897, -0.000976562, 0.000976562, 0, 0.0253906, 0.37793, -9.69531, 1.28.2022 18:10:48.469
869, 2.18897, 0.17734, 188.897, 0, 0, 0, -0.0566406, 0.366211, -9.71289, 1.28.2022 18:10:48.477
870, 2.18897, 0.17734, 188.897, -0.000976562, 0, 0.000976562, -0.0419922, 0.394531, -9.69141, 1.28.2022 18:10:48.485
871, 2.18897, 0.17734, 188.897, -0.000976562, -0.000976562, 0, 0.0078125, 0.351562, -9.71484, 1.28.2022 18:10:48.493
872, 2.18897, 0.17734, 188.897, -0.000976562, -0.000976562, -0.00195312, -0.0947266, 0.392578, -9.71875, 1.28.2022 18:10:48.501
873, 2.19594, 0.177883, 188.897, 0, 0, 0, -0.0107422, 0.375977, -9.71777, 1.28.2022 18:10:48.509
874, 2.19594, 0.177883, 188.897, -0.000976562, 0, -0.00195312, -0.0371094, 0.358398, -9.67578, 1.28.2022 18:10:48.517
875, 2.19594, 0.177883, 188.897, -0.000976562, 0, 0, -0.0585938, 0.374023, -9.71777, 1.28.2022 18:10:48.525
876, 2.19594, 0.177883, 188.897, -0.000976562, 0, 0, 0.00292969, 0.366211, -9.71191, 1.28.2022 18:10:48.533
877, 2.19594, 0.177883, 188.897, -0.000976562, 0, 0.000976562, -0.0478516, 0.378906, -9.74805, 1.28.2022 18:10:48.541
878, 2.19594, 0.177883, 188.897, -0.000976562, 0.000976562, 0, -0.0605469, 0.37793, -9.70117, 1.28.2022 18:10:48.549
879, 2.19594, 0.177883, 188.897, 0, 0, 0, 0.00585938, 0.387695, -9.72754, 1.28.2022 18:10:48.557
880, 2.19594, 0.177883, 188.897, -0.000976562, 0, -0.00195312, -0.0859375, 0.384766, -9.75977, 1.28.2022 18:10:48.565
881, 2.19594, 0.177883, 188.897, -0.000976562, 0.000976562, -0.00195312, -0.0166016, 0.376953, -9.7373, 1.28.2022 18:10:48.573
882, 2.19594, 0.177883, 188.897, -0.000976562, 0.000976562, 0, -0.0253906, 0.348633, -9.69531, 1.28.2022 18:10:48.581
883, 2.19594, 0.177883, 188.897, 0, 0, 0, -0.0556641, 0.356445, -9.6875, 1.28.2022 18:10:48.589
884, 2.19594, 0.177883, 188.897, 0, -0.000976562, -0.000976562, 0.0419922, 0.373047, -9.7002, 1.28.2022 18:10:48.597
885, 2.19594, 0.177883, 188.897, 0, 0, 0, -0.0498047, 0.383789, -9.74609, 1.28.2022 18:10:48.605
886, 2.19594, 0.177883, 188.897, 0, 0.00195312, 0, -0.0566406, 0.365234, -9.74609, 1.28.2022 18:10:48.613
887, 2.19594, 0.177883, 188.897, -0.000976562, 0, 0.000976562, -0.000976562, 0.37793, -9.69434, 1.28.2022 18:10:48.621
888, 2.19594, 0.177883, 188.897, 0, 0, 0, -0.0888672, 0.368164, -9.68652, 1.28.2022 18:10:48.629
889, 2.19594, 0.177883, 188.897, -0.000976562, 0, 0, 0.00488281, 0.341797, -9.7666, 1.28.2022 18:10:48.637
890, 2.19594, 0.177883, 188.897, -0.00195312, -0.000976562, -0.000976562, -0.015625, 0.347656, -9.72559, 1.28.2022 18:10:48.645
891, 2.19594, 0.177883, 188.897, -0.000976562, -0.000976562, -0.000976562, -0.0732422, 0.375977, -9.70312, 1.28.2022 18:10:48.653
892, 2.1954, 0.184855, 188.897, -0.000976562, -0.00195312, -0.000976562, -0.0234375, 0.37207, -9.74414, 1.28.2022 18:10:48.661
893, 2.1954, 0.184855, 188.897, -0.000976562, -0.000976562, -0.000976562, -0.0498047, 0.369141, -9.72461, 1.28.2022 18:10:48.669
894, 2.1954, 0.184855, 188.897, -0.000976562, -0.000976562, -0.000976562, -0.046875, 0.387695, -9.71289, 1.28.2022 18:10:48.677
895, 2.1954, 0.184855, 188.897, -0.00195312, 0, -0.00195312, -0.0107422, 0.361328, -9.7002, 1.28.2022 18:10:48.685
896, 2.1954, 0.184855, 188.897, -0.00195312, -0.00195312, -0.000976562, -0.0751953, 0.400391, -9.71387, 1.28.2022 18:10:48.693
897, 2.1954, 0.184855, 188.897, -0.000976562, 0, 0, -0.00878906, 0.370117, -9.69727, 1.28.2022 18:10:48.701
898, 2.1954, 0.184855, 188.897, 0, 0, -0.000976562, -0.00585938, 0.356445, -9.70898, 1.28.2022 18:10:48.709
899, 2.1954, 0.184855, 188.897, -0.000976562, 0, 0.000976562, -0.0556641, 0.373047, -9.68457, 1.28.2022 18:10:48.717
900, 2.1954, 0.184855, 188.897, -0.000976562, -0.000976562, -0.000976562, 0.03125, 0.333984, -9.75781, 1.28.2022 18:10:48.725
901, 2.1954, 0.184855, 188.897, 0, -0.000976562, 0.000976562, -0.03125, 0.381836, -9.75293, 1.28.2022 18:10:48.733
902, 2.1954, 0.184855, 188.897, -0.00195312, -0.000976562, -0.000976562, -0.0419922, 0.379883, -9.69141, 1.28.2022 18:10:48.741
903, 2.1954, 0.184855, 188.897, -0.000976562, -0.000976562, -0.000976562, -0.0234375, 0.357422, -9.73047, 1.28.2022 18:10:48.749
904, 2.1954, 0.184855, 188.897, -0.000976562, -0.00195312, -0.000976562, -0.0917969, 0.37793, -9.7002, 1.28.2022 18:10:48.757
905, 2.1954, 0.184855, 188.897, -0.00195312, -0.00195312, -0.000976562, 0.0175781, 0.347656, -9.72168, 1.28.2022 18:10:48.765
906, 2.1954, 0.184855, 188.897, -0.000976562, -0.000976562, -0.000976562, 0.00488281, 0.371094, -9.72852, 1.28.2022 18:10:48.773
907, 2.1954, 0.184855, 188.897, -0.000976562, 0, 0, -0.0732422, 0.369141, -9.72461, 1.28.2022 18:10:48.781
908, 2.1954, 0.184855, 188.897, -0.000976562, 0, 0, 0.0371094, 0.361328, -9.70801, 1.28.2022 18:10:48.789
909, 2.1954, 0.184855, 188.897, 0, 0, -0.000976562, -0.0302734, 0.385742, -9.73145, 1.28.2022 18:10:48.797
910, 2.1954, 0.184855, 188.897, -0.000976562, -0.000976562, -0.000976562, -0.0234375, 0.375977, -9.71289, 1.28.2022 18:10:48.805
911, 2.1954, 0.184855, 188.897, -0.000976562, -0.000976562, -0.000976562, 0.0078125, 0.344727, -9.70996, 1.28.2022 18:10:48.813
912, 2.1954, 0.184855, 188.897, -0.000976562, 0, 0, -0.0869141, 0.375977, -9.71484, 1.28.2022 18:10:48.821
913, 2.18843, 0.184312, 188.897, -0.00195312, -0.000976562, -0.000976562, -0.000976562, 0.37793, -9.69922, 1.28.2022 18:10:48.829
914, 2.18843, 0.184312, 188.897, -0.00195312, -0.000976562, -0.000976562, -0.0107422, 0.361328, -9.71582, 1.28.2022 18:10:48.837
915, 2.18843, 0.184312, 188.897, -0.00195312, -0.00195312, 0.000976562, -0.0644531, 0.395508, -9.65527, 1.28.2022 18:10:48.845
916, 2.18843, 0.184312, 188.897, -0.000976562, -0.00195312, 0.000976562, 0.0390625, 0.369141, -9.72656, 1.28.2022 18:10:48.853
917, 2.18843, 0.184312, 188.897, -0.000976562, -0.000976562, -0.000976562, -0.0537109, 0.385742, -9.71777, 1.28.2022 18:10:48.861
918, 2.18897, 0.17734, 188.897, -0.00195312, -0.00195312, -0.000976562, -0.046875, 0.375977, -9.71094, 1.28.2022 18:10:48.869
919, 2.18897, 0.17734, 188.897, -0.000976562, -0.000976562, -0.000976562, -0.0136719, 0.374023, -9.73926, 1.28.2022 18:10:48.877
920, 2.18897, 0.17734, 188.897, -0.000976562, -0.000976562, 0.000976562, -0.0791016, 0.404297, -9.77051, 1.28.2022 18:10:48.885
921, 2.18897, 0.17734, 188.897, 0, -0.000976562, 0, 0.00585938, 0.34668, -9.70312, 1.28.2022 18:10:48.893
922, 2.18897, 0.17734, 188.897, 0, -0.00195312, 0, 0.00390625, 0.34668, -9.68848, 1.28.2022 18:10:48.901
923, 2.18897, 0.17734, 188.897, 0.000976562, -0.000976562, -0.00195312, -0.0507812, 0.373047, -9.69141, 1.28.2022 18:10:48.909
924, 2.18897, 0.17734, 188.897, 0, 0.000976562, -0.000976562, 0.0175781, 0.354492, -9.72656, 1.28.2022 18:10:48.917
925, 2.18897, 0.17734, 188.897, 0.000976562, -0.000976562, -0.00195312, -0.0205078, 0.356445, -9.7041, 1.28.2022 18:10:48.925
926, 2.18897, 0.17734, 188.897, 0.000976562, 0.000976562, -0.00195312, -0.0283203, 0.371094, -9.72559, 1.28.2022 18:10:48.933
927, 2.18952, 0.170368, 188.897, 0.000976562, -0.000976562, -0.000976562, 0.0371094, 0.365234, -9.68164, 1.28.2022 18:10:48.941
928, 2.18952, 0.170368, 188.897, 0, -0.000976562, -0.000976562, -0.0751953, 0.368164, -9.68945, 1.28.2022 18:10:48.949
929, 2.18952, 0.170368, 188.897, 0, -0.00195312, -0.000976562, -0.015625, 0.365234, -9.67871, 1.28.2022 18:10:48.957
930, 2.18255, 0.169826, 188.897, 0.000976562, 0.000976562, -0.000976562, 0.0078125, 0.37793, -9.70215, 1.28.2022 18:10:48.965
931, 2.18255, 0.169826, 188.897, 0.000976562, -0.000976562, -0.000976562, -0.0371094, 0.37793, -9.70801, 1.28.2022 18:10:48.973
932, 2.18255, 0.169826, 188.897, 0, -0.000976562, -0.00195312, 0.0166016, 0.369141, -9.74023, 1.28.2022 18:10:48.981
933, 2.18309, 0.162854, 188.897, 0.000976562, -0.000976562, -0.00195312, -0.0546875, 0.369141, -9.73926, 1.28.2022 18:10:48.989
934, 2.18309, 0.162854, 188.897, 0.000976562, -0.00195312, -0.00195312, -0.0332031, 0.380859, -9.72949, 1.28.2022 18:10:48.997
935, 2.18309, 0.162854, 188.897, 0, -0.000976562, -0.000976562, 0.0175781, 0.341797, -9.70312, 1.28.2022 18:10:49.005
936, 2.18305, 0.162987, 188.904, 0, -0.000976562, -0.00195312, -0.0800781, 0.37793, -9.71484, 1.28.2022 18:10:49.013
937, 2.18305, 0.162987, 188.904, 0, -0.000976562, -0.00195312, -0.0205078, 0.376953, -9.68262, 1.28.2022 18:10:49.021
938, 2.18305, 0.162987, 188.904, 0, -0.000976562, 0, -0.0234375, 0.374023, -9.72949, 1.28.2022 18:10:49.029
939, 2.18359, 0.156015, 188.904, 0.000976562, -0.000976562, -0.000976562, -0.0751953, 0.407227, -9.7207, 1.28.2022 18:10:49.037
940, 2.17663, 0.155472, 188.904, 0, -0.000976562, -0.00195312, -0.00390625, 0.383789, -9.72559, 1.28.2022 18:10:49.045
941, 2.17663, 0.155472, 188.904, 0, -0.000976562, -0.000976562, -0.0302734, 0.354492, -9.71875, 1.28.2022 18:10:49.053
942, 2.17663, 0.155472, 188.904, 0, -0.000976562, -0.000976562, -0.0351562, 0.390625, -9.73438, 1.28.2022 18:10:49.061
943, 2.17663, 0.155472, 188.904, 0, -0.00195312, -0.000976562, 0.0195312, 0.362305, -9.74023, 1.28.2022 18:10:49.069
944, 2.17663, 0.155472, 188.904, 0.000976562, -0.000976562, -0.000976562, -0.078125, 0.381836, -9.75293, 1.28.2022 18:10:49.077
945, 2.17663, 0.155472, 188.904, 0, -0.000976562, -0.00195312, -0.0136719, 0.376953, -9.73438, 1.28.2022 18:10:49.085
946, 2.18359, 0.156015, 188.904, -0.000976562, -0.000976562, -0.00195312, -0.00878906, 0.364258, -9.7373, 1.28.2022 18:10:49.093
947, 2.18359, 0.156015, 188.904, 0, -0.000976562, -0.000976562, -0.0537109, 0.404297, -9.69336, 1.28.2022 18:10:49.101
948, 2.18359, 0.156015, 188.904, 0, -0.000976562, -0.000976562, 0.00292969, 0.357422, -9.7334, 1.28.2022 18:10:49.109
949, 2.18359, 0.156015, 188.904, 0.000976562, -0.000976562, -0.000976562, -0.0517578, 0.375977, -9.71973, 1.28.2022 18:10:49.117
950, 2.18359, 0.156015, 188.904, 0, -0.000976562, -0.000976562, -0.0292969, 0.40918, -9.69336, 1.28.2022 18:10:49.125
951, 2.18359, 0.156015, 188.904, 0, -0.000976562, -0.00195312, 0.0175781, 0.375, -9.69727, 1.28.2022 18:10:49.133
952, 2.18359, 0.156015, 188.904, 0, -0.000976562, -0.000976562, -0.078125, 0.392578, -9.7168, 1.28.2022 18:10:49.141
953, 2.18359, 0.156015, 188.904, -0.000976562, 0, -0.000976562, -0.0253906, 0.367188, -9.73438, 1.28.2022 18:10:49.149
954, 2.18359, 0.156015, 188.904, -0.00195312, 0, -0.000976562, -0.0400391, 0.364258, -9.73926, 1.28.2022 18:10:49.157
955, 2.18359, 0.156015, 188.904, -0.000976562, 0, -0.000976562, -0.0664062, 0.40332, -9.73828, 1.28.2022 18:10:49.163
956, 2.19056, 0.156558, 188.904, -0.000976562, 0, 0, 0.0253906, 0.382812, -9.69531, 1.28.2022 18:10:49.171
957, 2.19056, 0.156558, 188.904, 0, 0, 0, -0.0302734, 0.369141, -9.7373, 1.28.2022 18:10:49.179
958, 2.19056, 0.156558, 188.904, -0.000976562, 0.000976562, 0, -0.0185547, 0.375977, -9.71094, 1.28.2022 18:10:49.187
959, 2.19056, 0.156558, 188.904, -0.000976562, -0.00195312, 0, 0.0195312, 0.351562, -9.71973, 1.28.2022 18:10:49.195
960, 2.19056, 0.156558, 188.904, 0, 0, 0, -0.0664062, 0.388672, -9.73828, 1.28.2022 18:10:49.203
961, 2.19056, 0.156558, 188.904, -0.000976562, 0, 0, -0.0419922, 0.362305, -9.72559, 1.28.2022 18:10:49.211
962, 2.19056, 0.156558, 188.904, -0.00195312, 0, 0, -0.0351562, 0.378906, -9.71973, 1.28.2022 18:10:49.219
963, 2.19753, 0.157101, 188.904, -0.000976562, 0, 0, -0.078125, 0.371094, -9.70996, 1.28.2022 18:10:49.227
964, 2.19753, 0.157101, 188.904, -0.00195312, 0, 0, 0.0341797, 0.363281, -9.69141, 1.28.2022 18:10:49.235
965, 2.19753, 0.157101, 188.904, -0.000976562, 0, 0, -0.0205078, 0.371094, -9.72266, 1.28.2022 18:10:49.243
966, 2.19753, 0.157101, 188.904, -0.000976562, 0.000976562, 0, -0.0566406, 0.37207, -9.73145, 1.28.2022 18:10:49.251
967, 2.19753, 0.157101, 188.904, -0.000976562, 0, 0, -0.015625, 0.357422, -9.7207, 1.28.2022 18:10:49.259
968, 2.19753, 0.157101, 188.904, -0.000976562, 0, 0, -0.0966797, 0.395508, -9.7168, 1.28.2022 18:10:49.267
969, 2.19753, 0.157101, 188.904, -0.000976562, 0, -0.000976562, -0.0332031, 0.383789, -9.73438, 1.28.2022 18:10:49.275
970, 2.20449, 0.157644, 188.904, -0.000976562, 0, 0, -0.0283203, 0.364258, -9.72754, 1.28.2022 18:10:49.283
971, 2.20449, 0.157644, 188.904, -0.000976562, 0, 0, -0.0703125, 0.378906, -9.71973, 1.28.2022 18:10:49.291
972, 2.20449, 0.157644, 188.904, -0.000976562, 0.000976562, 0, 0.0146484, 0.354492, -9.7334, 1.28.2022 18:10:49.299
973, 2.20449, 0.157644, 188.904, -0.000976562, -0.00195312, -0.000976562, -0.0273438, 0.358398, -9.69922, 1.28.2022 18:10:49.307
974, 2.20395, 0.164616, 188.904, -0.000976562, -0.00195312, 0, -0.0537109, 0.382812, -9.70801, 1.28.2022 18:10:49.315
975, 2.20395, 0.164616, 188.904, -0.000976562, -0.00195312, -0.000976562, 0.0292969, 0.357422, -9.72852, 1.28.2022 18:10:49.323
976, 2.20395, 0.164616, 188.904, -0.00195312, -0.00195312, -0.000976562, -0.0869141, 0.341797, -9.69922, 1.28.2022 18:10:49.331
977, 2.20395, 0.164616, 188.904, 0, 0, -0.000976562, -0.0185547, 0.364258, -9.72754, 1.28.2022 18:10:49.339
978, 2.20395, 0.164616, 188.904, -0.000976562, 0, 0, 0.0146484, 0.357422, -9.73828, 1.28.2022 18:10:49.347
979, 2.20395, 0.164616, 188.904, -0.000976562, -0.00195312, 0.000976562, -0.0654297, 0.385742, -9.70996, 1.28.2022 18:10:49.355
980, 2.20395, 0.164616, 188.904, -0.000976562, -0.00195312, 0.000976562, 0.0175781, 0.370117, -9.69727, 1.28.2022 18:10:49.363
981, 2.20341, 0.171588, 188.904, 0, 0, 0, -0.0419922, 0.366211, -9.72266, 1.28.2022 18:10:49.371
982, 2.20341, 0.171588, 188.904, -0.000976562, 0, 0, -0.0683594, 0.374023, -9.73438, 1.28.2022 18:10:49.379
983, 2.20341, 0.171588, 188.904, 0, 0, 0, 0.0107422, 0.363281, -9.70703, 1.28.2022 18:10:49.387
984, 2.19644, 0.171045, 188.904, -0.000976562, 0, 0, -0.0888672, 0.384766, -9.68652, 1.28.2022 18:10:49.395
985, 2.19644, 0.171045, 188.904, -0.000976562, 0.000976562, 0.000976562, -0.0556641, 0.375, -9.68457, 1.28.2022 18:10:49.403
986, 2.19644, 0.171045, 188.904, -0.000976562, -0.000976562, -0.000976562, -0.0273438, 0.365234, -9.68555, 1.28.2022 18:10:49.411
987, 2.19644, 0.171045, 188.904, 0.000976562, -0.00292969, 0, -0.0947266, 0.397461, -9.71387, 1.28.2022 18:10:49.419
988, 2.19644, 0.171045, 188.904, 0.000976562, 0, 0, 0.0107422, 0.371094, -9.71387, 1.28.2022 18:10:49.427
989, 2.1959, 0.178017, 188.904, -0.00195312, 0, -0.000976562, -0.0185547, 0.364258, -9.72363, 1.28.2022 18:10:49.435
990, 2.1959, 0.178017, 188.904, -0.000976562, 0, -0.000976562, -0.0390625, 0.37793, -9.69922, 1.28.2022 18:10:49.443
991, 2.1959, 0.178017, 188.904, 0.000976562, 0, -0.000976562, 0.0175781, 0.373047, -9.69238, 1.28.2022 18:10:49.451
992, 2.1959, 0.178017, 188.904, -0.000976562, 0, 0, -0.0654297, 0.386719, -9.67676, 1.28.2022 18:10:49.459
993, 2.1959, 0.178017, 188.904, -0.000976562, 0, 0, -0.0546875, 0.393555, -9.73633, 1.28.2022 18:10:49.467
994, 2.1959, 0.178017, 188.904, -0.000976562, 0, 0, -0.00683594, 0.364258, -9.7207, 1.28.2022 18:10:49.475
995, 2.1959, 0.178017, 188.904, 0.000976562, 0, 0, -0.0673828, 0.375, -9.67969, 1.28.2022 18:10:49.483
996, 2.1959, 0.178017, 188.904, 0.000976562, 0.000976562, 0, -0.00683594, 0.367188, -9.74023, 1.28.2022 18:10:49.491
997, 2.1959, 0.178017, 188.904, 0.000976562, 0, 0, -0.0234375, 0.361328, -9.72363, 1.28.2022 18:10:49.499
998, 2.1959, 0.178017, 188.904, 0.000976562, 0, 0, -0.0634766, 0.349609, -9.71777, 1.28.2022 18:10:49.507
999, 2.19535, 0.184989, 188.904, 0.000976562, 0.000976562, -0.000976562, -0.00878906, 0.359375, -9.7207, 1.28.2022 18:10:49.515
1000, 2.19535, 0.184989, 188.904, 0.000976562, 0, -0.000976562, -0.0517578, 0.385742, -9.72949, 1.28.2022 18:10:49.523
1001, 2.19535, 0.184989, 188.904, -0.000976562, -0.000976562, -0.000976562, -0.0488281, 0.370117, -9.67578, 1.28.2022 18:10:49.531
1002, 2.18839, 0.184446, 188.904, 0.00195312, -0.000976562, 0, 0.0244141, 0.362305, -9.72852, 1.28.2022 18:10:49.539
1003, 2.18839, 0.184446, 188.904, 0.000976562, -0.00292969, 0, -0.0605469, 0.363281, -9.67969, 1.28.2022 18:10:49.547
1004, 2.18839, 0.184446, 188.904, -0.000976562, 0, 0.000976562, 0.015625, 0.366211, -9.70215, 1.28.2022 18:10:49.555
1005, 2.18839, 0.184446, 188.904, -0.000976562, 0, 0, -0.0175781, 0.351562, -9.69531, 1.28.2022 18:10:49.563
1006, 2.18839, 0.184446, 188.904, -0.000976562, 0, 0, -0.0673828, 0.352539, -9.64453, 1.28.2022 18:10:49.571
1007, 2.18839, 0.184446, 188.904, -0.000976562, 0, 0, 0.0322266, 0.339844, -9.71484, 1.28.2022 18:10:49.579
1008, 2.18839, 0.184446, 188.904, -0.000976562, -0.000976562, 0, -0.046875, 0.387695, -9.70312, 1.28.2022 18:10:49.587
1009, 2.18839, 0.184446, 188.904, 0.000976562, 0, 0, -0.0400391, 0.373047, -9.71289, 1.28.2022 18:10:49.595
1010, 2.18839, 0.184446, 188.904, -0.000976562, 0, -0.000976562, 0.00390625, 0.355469, -9.68555, 1.28.2022 18:10:49.603
1011, 2.18839, 0.184446, 188.904, -0.000976562, -0.000976562, -0.000976562, -0.0859375, 0.393555, -9.74707, 1.28.2022 18:10:49.611
1012, 2.18839, 0.184446, 188.904, 0.000976562, 0, -0.000976562, 0.0175781, 0.362305, -9.73535, 1.28.2022 18:10:49.619
1013, 2.18142, 0.183903, 188.904, 0.000976562, 0, 0, -0.0292969, 0.376953, -9.67969, 1.28.2022 18:10:49.627
1014, 2.18142, 0.183903, 188.904, -0.000976562, 0, 0, -0.0449219, 0.405273, -9.74805, 1.28.2022 18:10:49.635
1015, 2.18142, 0.183903, 188.904, -0.000976562, 0, 0, 0.0341797, 0.374023, -9.73828, 1.28.2022 18:10:49.643
1016, 2.18142, 0.183903, 188.904, -0.000976562, 0, 0, -0.0478516, 0.383789, -9.74609, 1.28.2022 18:10:49.651
1017, 2.18142, 0.183903, 188.904, -0.000976562, 0, 0, -0.0302734, 0.379883, -9.70117, 1.28.2022 18:10:49.659
1018, 2.18142, 0.183903, 188.904, -0.000976562, 0, 0, 0.00390625, 0.353516, -9.67188, 1.28.2022 18:10:49.667
1019, 2.18142, 0.183903, 188.904, -0.000976562, 0, -0.000976562, -0.0800781, 0.412109, -9.73535, 1.28.2022 18:10:49.675
1020, 2.18142, 0.183903, 188.904, -0.00195312, 0, -0.000976562, -0.00683594, 0.370117, -9.76074, 1.28.2022 18:10:49.683
1021, 2.18197, 0.176931, 188.904, -0.000976562, 0, 0, -0.0449219, 0.352539, -9.74707, 1.28.2022 18:10:49.691
1022, 2.18197, 0.176931, 188.904, -0.000976562, 0.000976562, 0.000976562, -0.0615234, 0.385742, -9.71484, 1.28.2022 18:10:49.699
1023, 2.18197, 0.176931, 188.904, -0.000976562, -0.000976562, 0, 0.0107422, 0.319336, -9.67969, 1.28.2022 18:10:49.707
1024, 2.18197, 0.176931, 188.904, -0.000976562, 0, 0, -0.0615234, 0.374023, -9.72461, 1.28.2022 18:10:49.715
1025, 2.18197, 0.176931, 188.904, 0, 0, 0, -0.0488281, 0.370117, -9.68457, 1.28.2022 18:10:49.723
1026, 2.18197, 0.176931, 188.904, -0.000976562, -0.000976562, 0, 0.0078125, 0.364258, -9.72852, 1.28.2022 18:10:49.731
1027, 2.18197, 0.176931, 188.904, -0.000976562, 0, 0, -0.0683594, 0.412109, -9.71387, 1.28.2022 18:10:49.739
1028, 2.18893, 0.177474, 188.904, -0.000976562, 0, 0, 0.0107422, 0.376953, -9.6875, 1.28.2022 18:10:49.747
1029, 2.18893, 0.177474, 188.904, -0.000976562, 0, 0, -0.000976562, 0.365234, -9.68359, 1.28.2022 18:10:49.755
1030, 2.18893, 0.177474, 188.904, -0.000976562, 0, 0, -0.0585938, 0.382812, -9.70312, 1.28.2022 18:10:49.763
1031, 2.18893, 0.177474, 188.904, -0.000976562, 0, -0.000976562, -0.00488281, 0.345703, -9.73828, 1.28.2022 18:10:49.771
1032, 2.18893, 0.177474, 188.904, -0.000976562, 0, 0, -0.0419922, 0.391602, -9.69336, 1.28.2022 18:10:49.779
1033, 2.18947, 0.170502, 188.904, -0.00195312, 0.000976562, 0, -0.0507812, 0.384766, -9.67676, 1.28.2022 18:10:49.787
1034, 2.18947, 0.170502, 188.904, -0.00195312, 0, -0.000976562, 0.015625, 0.363281, -9.70703, 1.28.2022 18:10:49.795
1035, 2.18947, 0.170502, 188.904, -0.000976562, 0, 0, -0.0703125, 0.375977, -9.71484, 1.28.2022 18:10:49.803
1036, 2.18947, 0.170502, 188.904, -0.000976562, 0, 0, 0.015625, 0.396484, -9.69922, 1.28.2022 18:10:49.811
1037, 2.18947, 0.170502, 188.904, -0.00195312, 0, 0, -0.0175781, 0.34668, -9.69336, 1.28.2022 18:10:49.819
1038, 2.18947, 0.170502, 188.904, -0.000976562, -0.000976562, 0, -0.0498047, 0.381836, -9.73633, 1.28.2022 18:10:49.827
1039, 2.18947, 0.170502, 188.904, -0.000976562, 0.000976562, 0, 0.0224609, 0.366211, -9.70508, 1.28.2022 18:10:49.835
1040, 2.19644, 0.171045, 188.904, 0, 0, 0, -0.0634766, 0.384766, -9.7002, 1.28.2022 18:10:49.843
1041, 2.19644, 0.171045, 188.904, -0.000976562, 0, 0, -0.0517578, 0.352539, -9.74219, 1.28.2022 18:10:49.851
1042, 2.19644, 0.171045, 188.904, -0.00195312, 0, 0, 0.0205078, 0.365234, -9.68555, 1.28.2022 18:10:49.859
1043, 2.19644, 0.171045, 188.904, -0.000976562, 0, 0, -0.0917969, 0.378906, -9.71484, 1.28.2022 18:10:49.867
1044, 2.19644, 0.171045, 188.904, -0.000976562, 0, 0, 0.000976562, 0.380859, -9.72559, 1.28.2022 18:10:49.875
1045, 2.19698, 0.164073, 188.904, -0.00195312, 0, 0.000976562, -0.0234375, 0.354492, -9.73242, 1.28.2022 18:10:49.883
1046, 2.19698, 0.164073, 188.904, -0.000976562, -0.000976562, 0, -0.0537109, 0.395508, -9.7168, 1.28.2022 18:10:49.891
