Seq, Rot x, Rot y, Rot z, Vel x, Vel y, Vel z, Acc x, Acc y, Acc z, Time(m.d.y h:m:s.ms)
0, 1.84203, 359.365, 162.666, -0.00195312, 0.000976562, 0.000976562, 0.107422, 0.3125, -9.75, 1.25.2022 18:20:1.954
1, 1.84098, 359.359, 162.667, -0.00195312, 0.000976562, 0.000976562, 0.0332031, 0.307617, -9.74023, 1.25.2022 18:20:1.962
2, 1.84098, 359.359, 162.667, -0.00195312, 0.000976562, 0.000976562, 0.0820312, 0.34668, -9.71777, 1.25.2022 18:20:1.970
3, 1.84098, 359.359, 162.667, -0.00195312, 0.000976562, 0, 0.09375, 0.300781, -9.70312, 1.25.2022 18:20:1.978
4, 1.84098, 359.359, 162.667, -0.00195312, 0.000976562, 0, 0.0214844, 0.332031, -9.75781, 1.25.2022 18:20:1.986
5, 1.84098, 359.359, 162.667, -0.00292969, 0.000976562, 0, 0.110352, 0.298828, -9.71973, 1.25.2022 18:20:1.994
6, 1.84098, 359.359, 162.667, -0.00195312, 0.000976562, 0, 0.0693359, 0.334961, -9.72754, 1.25.2022 18:20:2.002
7, 1.84789, 359.357, 162.667, -0.00195312, 0.000976562, 0, 0.0429688, 0.352539, -9.73633, 1.25.2022 18:20:2.010
8, 1.84789, 359.357, 162.667, -0.00195312, 0.000976562, 0.000976562, 0.102539, 0.306641, -9.73828, 1.25.2022 18:20:2.018
9, 1.84789, 359.357, 162.667, -0.00292969, 0.00195312, 0.000976562, 0.0341797, 0.30957, -9.73047, 1.25.2022 18:20:2.026
10, 1.84683, 359.351, 162.667, -0.00292969, 0.000976562, 0, 0.0576172, 0.323242, -9.7207, 1.25.2022 18:20:2.034
11, 1.84683, 359.351, 162.667, -0.000976562, 0.000976562, 0, 0.0722656, 0.301758, -9.73535, 1.25.2022 18:20:2.042
12, 1.84683, 359.351, 162.667, -0.00195312, 0.000976562, 0, 0.0458984, 0.323242, -9.71582, 1.25.2022 18:20:2.050
13, 1.84683, 359.351, 162.667, -0.00195312, 0.000976562, 0, 0.09375, 0.328125, -9.73535, 1.25.2022 18:20:2.058
14, 1.84683, 359.351, 162.667, -0.00195312, 0.000976562, 0, 0.0576172, 0.326172, -9.74707, 1.25.2022 18:20:2.066
15, 1.85365, 359.349, 162.659, -0.00195312, 0.000976562, 0.000976562, 0.0537109, 0.319336, -9.66895, 1.25.2022 18:20:2.074
16, 1.85365, 359.349, 162.659, -0.00195312, 0.000976562, 0, 0.0839844, 0.313477, -9.71484, 1.25.2022 18:20:2.082
17, 1.85365, 359.349, 162.659, -0.00292969, 0.000976562, 0, 0.0253906, 0.31543, -9.6875, 1.25.2022 18:20:2.090
18, 1.85365, 359.349, 162.659, -0.00292969, 0.000976562, 0, 0.110352, 0.293945, -9.70605, 1.25.2022 18:20:2.098
19, 1.85365, 359.349, 162.659, -0.00195312, 0.000976562, 0, 0.0908203, 0.326172, -9.74219, 1.25.2022 18:20:2.106
20, 1.85365, 359.349, 162.659, -0.00292969, 0, 0, 0.0390625, 0.341797, -9.71094, 1.25.2022 18:20:2.114
21, 1.8526, 359.342, 162.66, -0.00195312, 0, 0, 0.129883, 0.318359, -9.70801, 1.25.2022 18:20:2.122
22, 1.85951, 359.341, 162.66, -0.00292969, 0.000976562, 0, 0.0371094, 0.348633, -9.70117, 1.25.2022 18:20:2.130
23, 1.85951, 359.341, 162.66, -0.00195312, 0.000976562, 0, 0.0585938, 0.341797, -9.68457, 1.25.2022 18:20:2.138
24, 1.85951, 359.341, 162.66, -0.00292969, 0, 0.000976562, 0.0957031, 0.304688, -9.74121, 1.25.2022 18:20:2.146
25, 1.85951, 359.341, 162.66, -0.00195312, 0.000976562, 0.000976562, 0.0205078, 0.358398, -9.67676, 1.25.2022 18:20:2.154
26, 1.85951, 359.341, 162.66, -0.00195312, 0.00195312, 0, 0.0859375, 0.330078, -9.72559, 1.25.2022 18:20:2.162
27, 1.85951, 359.341, 162.66, -0.00195312, 0.00195312, 0.000976562, 0.0615234, 0.30957, -9.75684, 1.25.2022 18:20:2.170
28, 1.85951, 359.341, 162.66, -0.00390625, 0.000976562, 0.000976562, 0.0380859, 0.335938, -9.74609, 1.25.2022 18:20:2.178
29, 1.86642, 359.34, 162.66, -0.00292969, 0.00195312, 0, 0.115234, 0.323242, -9.70801, 1.25.2022 18:20:2.186
30, 1.86642, 359.34, 162.66, -0.00195312, 0.00195312, 0, 0.0195312, 0.337891, -9.70996, 1.25.2022 18:20:2.194
31, 1.9039, 359.54, 162.657, 0, -0.00195312, 0, 0.0917969, 0.331055, -9.67871, 1.25.2022 18:20:2.202
32, 1.91023, 359.581, 162.656, 0, -0.000976562, 0, 0.0849609, 0.314453, -9.67676, 1.25.2022 18:20:2.210
33, 1.91128, 359.588, 162.656, 0, -0.000976562, -0.000976562, 0.0292969, 0.323242, -9.72949, 1.25.2022 18:20:2.218
34, 1.91128, 359.588, 162.656, 0, -0.000976562, -0.000976562, 0.0927734, 0.324219, -9.74219, 1.25.2022 18:20:2.226
35, 1.91128, 359.588, 162.656, 0, -0.000976562, -0.000976562, 0.0644531, 0.297852, -9.73535, 1.25.2022 18:20:2.234
36, 1.91128, 359.588, 162.656, 0, -0.000976562, -0.000976562, 0.0703125, 0.336914, -9.70215, 1.25.2022 18:20:2.242
37, 1.91128, 359.588, 162.656, 0, -0.00195312, -0.000976562, 0.110352, 0.298828, -9.69434, 1.25.2022 18:20:2.250
38, 1.91128, 359.588, 162.656, -0.000976562, -0.000976562, -0.000976562, 0.0263672, 0.347656, -9.7334, 1.25.2022 18:20:2.258
39, 1.91128, 359.588, 162.656, 0, -0.000976562, 0, 0.0722656, 0.334961, -9.72559, 1.25.2022 18:20:2.266
40, 1.91128, 359.588, 162.656, 0, -0.000976562, 0, 0.0839844, 0.314453, -9.74512, 1.25.2022 18:20:2.274
41, 1.91128, 359.588, 162.656, 0, -0.00195312, 0, 0.0341797, 0.348633, -9.69141, 1.25.2022 18:20:2.282
42, 1.91128, 359.588, 162.656, 0, 0.000976562, -0.000976562, 0.117188, 0.301758, -9.71484, 1.25.2022 18:20:2.290
43, 1.91128, 359.588, 162.656, 0, -0.000976562, -0.000976562, 0.0771484, 0.28418, -9.69141, 1.25.2022 18:20:2.298
44, 1.90437, 359.589, 162.656, 0, -0.000976562, 0, 0.0712891, 0.311523, -9.66016, 1.25.2022 18:20:2.306
45, 1.90437, 359.589, 162.656, -0.000976562, -0.000976562, -0.000976562, 0.12207, 0.308594, -9.70801, 1.25.2022 18:20:2.314
46, 1.90437, 359.589, 162.656, -0.000976562, -0.00195312, -0.000976562, 0.0195312, 0.323242, -9.70605, 1.25.2022 18:20:2.322
47, 1.90437, 359.589, 162.656, -0.000976562, -0.000976562, -0.000976562, 0.0673828, 0.328125, -9.70898, 1.25.2022 18:20:2.330
48, 1.90437, 359.589, 162.656, -0.000976562, -0.000976562, 0, 0.0585938, 0.300781, -9.68555, 1.25.2022 18:20:2.338
49, 1.90437, 359.589, 162.656, -0.000976562, -0.000976562, 0, 0.0195312, 0.31543, -9.71094, 1.25.2022 18:20:2.346
50, 1.90437, 359.589, 162.656, 0, -0.000976562, -0.000976562, 0.124023, 0.299805, -9.74414, 1.25.2022 18:20:2.354
51, 1.90437, 359.589, 162.656, 0, -0.000976562, -0.000976562, 0.0478516, 0.335938, -9.74609, 1.25.2022 18:20:2.362
52, 1.90437, 359.589, 162.656, -0.000976562, -0.000976562, 0, 0.0507812, 0.327148, -9.69238, 1.25.2022 18:20:2.370
53, 1.89746, 359.59, 162.656, -0.000976562, -0.000976562, 0, 0.105469, 0.306641, -9.72461, 1.25.2022 18:20:2.378
54, 1.89746, 359.59, 162.656, -0.000976562, -0.000976562, -0.000976562, 0.0410156, 0.326172, -9.74219, 1.25.2022 18:20:2.386
55, 1.89746, 359.59, 162.656, -0.000976562, -0.000976562, -0.000976562, 0.0761719, 0.307617, -9.74316, 1.25.2022 18:20:2.394
56, 1.89746, 359.59, 162.656, 0, -0.000976562, -0.000976562, 0.0644531, 0.302734, -9.74707, 1.25.2022 18:20:2.402
57, 1.89746, 359.59, 162.656, 0, -0.000976562, -0.000976562, 0.00488281, 0.34082, -9.73145, 1.25.2022 18:20:2.410
58, 1.89746, 359.59, 162.656, 0, -0.000976562, -0.00195312, 0.0957031, 0.311523, -9.72461, 1.25.2022 18:20:2.418
59, 1.89746, 359.59, 162.656, 0, -0.000976562, -0.000976562, 0.0585938, 0.329102, -9.67383, 1.25.2022 18:20:2.426
60, 1.89746, 359.59, 162.656, 0, 0.000976562, -0.000976562, 0.0576172, 0.328125, -9.70898, 1.25.2022 18:20:2.434
61, 1.89746, 359.59, 162.656, -0.000976562, 0.000976562, -0.000976562, 0.102539, 0.291992, -9.73145, 1.25.2022 18:20:2.442
62, 1.89055, 359.591, 162.656, -0.000976562, -0.000976562, 0, 0.00488281, 0.333984, -9.75293, 1.25.2022 18:20:2.450
63, 1.89055, 359.591, 162.656, -0.000976562, -0.000976562, 0, 0.0712891, 0.324219, -9.75879, 1.25.2022 18:20:2.458
64, 1.89055, 359.591, 162.656, -0.00195312, -0.000976562, 0, 0.0859375, 0.299805, -9.72656, 1.25.2022 18:20:2.466
65, 1.89161, 359.598, 162.656, 0, 0, -0.000976562, 0.0341797, 0.332031, -9.70605, 1.25.2022 18:20:2.474
66, 1.89161, 359.598, 162.656, -0.000976562, 0, -0.000976562, 0.110352, 0.299805, -9.74316, 1.25.2022 18:20:2.482
67, 1.89161, 359.598, 162.656, -0.000976562, -0.000976562, 0, 0.0478516, 0.321289, -9.72559, 1.25.2022 18:20:2.490
68, 1.89161, 359.598, 162.656, -0.000976562, 0.000976562, -0.000976562, 0.046875, 0.336914, -9.78906, 1.25.2022 18:20:2.498
69, 1.89161, 359.598, 162.656, -0.000976562, 0, -0.000976562, 0.110352, 0.328125, -9.72656, 1.25.2022 18:20:2.506
70, 1.89161, 359.598, 162.656, 0, -0.00195312, -0.000976562, 0.0390625, 0.334961, -9.72461, 1.25.2022 18:20:2.514
71, 1.89161, 359.598, 162.656, -0.000976562, 0.000976562, 0, 0.0986328, 0.339844, -9.71387, 1.25.2022 18:20:2.522
72, 1.89161, 359.598, 162.656, 0, -0.00195312, -0.000976562, 0.0703125, 0.3125, -9.69336, 1.25.2022 18:20:2.530
73, 1.89161, 359.598, 162.656, 0, -0.000976562, 0, 0.0419922, 0.338867, -9.69629, 1.25.2022 18:20:2.538
74, 1.89161, 359.598, 162.656, -0.000976562, 0, -0.000976562, 0.0966797, 0.327148, -9.69336, 1.25.2022 18:20:2.546
75, 1.89852, 359.597, 162.656, -0.000976562, -0.000976562, 0, 0.0439453, 0.296875, -9.7168, 1.25.2022 18:20:2.554
76, 1.89852, 359.597, 162.656, -0.000976562, 0, -0.000976562, 0.0888672, 0.311523, -9.7168, 1.25.2022 18:20:2.562
77, 1.89852, 359.597, 162.656, -0.00195312, 0, -0.000976562, 0.0742188, 0.308594, -9.71875, 1.25.2022 18:20:2.570
78, 1.89852, 359.597, 162.656, -0.000976562, 0, -0.000976562, 0.0244141, 0.321289, -9.72266, 1.25.2022 18:20:2.578
79, 1.89852, 359.597, 162.656, -0.000976562, -0.00195312, -0.000976562, 0.120117, 0.308594, -9.72461, 1.25.2022 18:20:2.586
80, 1.89852, 359.597, 162.656, 0, 0.000976562, -0.000976562, 0.0664062, 0.31543, -9.76855, 1.25.2022 18:20:2.594
81, 1.89852, 359.597, 162.656, 0, 0.000976562, 0, 0.0478516, 0.357422, -9.72949, 1.25.2022 18:20:2.602
82, 1.89852, 359.597, 162.656, 0, -0.00195312, -0.000976562, 0.0673828, 0.3125, -9.74707, 1.25.2022 18:20:2.610
83, 1.89852, 359.597, 162.656, 0, -0.00195312, 0, 0.0146484, 0.314453, -9.72754, 1.25.2022 18:20:2.618
84, 1.89161, 359.598, 162.656, 0, -0.000976562, 0, 0.0712891, 0.316406, -9.74707, 1.25.2022 18:20:2.626
85, 1.89161, 359.598, 162.656, 0, 0, -0.000976562, 0.0927734, 0.316406, -9.75, 1.25.2022 18:20:2.634
86, 1.89161, 359.598, 162.656, 0, -0.000976562, 0, -0.0117188, 0.324219, -9.74316, 1.25.2022 18:20:2.642
87, 1.89161, 359.598, 162.656, -0.000976562, 0, -0.000976562, 0.115234, 0.31543, -9.7168, 1.25.2022 18:20:2.650
88, 1.89161, 359.598, 162.656, -0.000976562, 0, -0.000976562, 0.0595703, 0.330078, -9.7793, 1.25.2022 18:20:2.658
89, 1.89161, 359.598, 162.656, 0, -0.000976562, 0, 0.0722656, 0.333008, -9.73242, 1.25.2022 18:20:2.666
90, 1.89161, 359.598, 162.656, -0.000976562, -0.00195312, 0, 0.117188, 0.304688, -9.73145, 1.25.2022 18:20:2.674
91, 1.89161, 359.598, 162.656, 0, -0.00195312, 0, 0.0078125, 0.321289, -9.73438, 1.25.2022 18:20:2.682
92, 1.89161, 359.598, 162.656, 0, -0.000976562, 0, 0.0869141, 0.342773, -9.72266, 1.25.2022 18:20:2.690
93, 1.89161, 359.598, 162.656, -0.000976562, -0.00195312, -0.000976562, 0.0673828, 0.333008, -9.7207, 1.25.2022 18:20:2.698
94, 1.89161, 359.598, 162.656, -0.000976562, -0.000976562, 0, 0.0166016, 0.321289, -9.73633, 1.25.2022 18:20:2.706
95, 1.89161, 359.598, 162.656, 0, -0.00195312, 0, 0.104492, 0.291992, -9.78613, 1.25.2022 18:20:2.714
96, 1.89161, 359.598, 162.656, 0, -0.000976562, 0.000976562, 0.0527344, 0.290039, -9.72656, 1.25.2022 18:20:2.722
97, 1.89161, 359.598, 162.656, -0.000976562, -0.000976562, 0, 0.0625, 0.321289, -9.72559, 1.25.2022 18:20:2.730
98, 1.89161, 359.598, 162.656, -0.000976562, 0, -0.000976562, 0.0673828, 0.310547, -9.70508, 1.25.2022 18:20:2.738
99, 1.89161, 359.598, 162.656, 0, 0, -0.000976562, 0.0175781, 0.320312, -9.6875, 1.25.2022 18:20:2.746
100, 1.89161, 359.598, 162.656, -0.000976562, 0, -0.000976562, 0.0605469, 0.285156, -9.72656, 1.25.2022 18:20:2.754
101, 1.89161, 359.598, 162.656, 0, 0, -0.000976562, 0.0859375, 0.285156, -9.74316, 1.25.2022 18:20:2.762
102, 1.89161, 359.598, 162.656, -0.000976562, 0, -0.000976562, 0.0498047, 0.314453, -9.74902, 1.25.2022 18:20:2.770
103, 1.89161, 359.598, 162.656, -0.000976562, 0, -0.000976562, 0.129883, 0.318359, -9.71484, 1.25.2022 18:20:2.778
104, 1.89161, 359.598, 162.656, -0.000976562, 0.000976562, -0.000976562, 0.0458984, 0.323242, -9.73242, 1.25.2022 18:20:2.786
105, 1.89161, 359.598, 162.656, -0.000976562, 0.000976562, -0.000976562, 0.0429688, 0.331055, -9.74414, 1.25.2022 18:20:2.794
106, 1.89852, 359.597, 162.656, -0.000976562, 0, -0.000976562, 0.108398, 0.305664, -9.70801, 1.25.2022 18:20:2.802
107, 1.89852, 359.597, 162.656, 0, 0, -0.000976562, 0.0117188, 0.345703, -9.75293, 1.25.2022 18:20:2.810
108, 1.89161, 359.598, 162.656, 0, 0, -0.000976562, 0.0976562, 0.321289, -9.75195, 1.25.2022 18:20:2.818
109, 1.89161, 359.598, 162.656, 0, -0.000976562, 0, 0.0654297, 0.291992, -9.70801, 1.25.2022 18:20:2.826
110, 1.89161, 359.598, 162.656, -0.000976562, -0.000976562, 0, 0.00585938, 0.330078, -9.71973, 1.25.2022 18:20:2.834
111, 1.89161, 359.598, 162.656, 0, -0.00195312, 0, 0.112305, 0.318359, -9.73633, 1.25.2022 18:20:2.840
112, 1.89161, 359.598, 162.656, 0, -0.00195312, 0, 0.0478516, 0.318359, -9.72363, 1.25.2022 18:20:2.848
113, 1.87299, 359.615, 162.655, 0, 0, -0.000976562, 0.0771484, 0.328125, -9.71875, 1.25.2022 18:20:2.858
114, 1.87404, 359.622, 162.655, 0, 0, 0, 0.0820312, 0.299805, -9.72461, 1.25.2022 18:20:2.864
115, 1.86713, 359.623, 162.655, 0, 0, -0.000976562, 0.0390625, 0.352539, -9.7334, 1.25.2022 18:20:2.872
116, 1.86713, 359.623, 162.655, 0.000976562, 0, -0.000976562, 0.0957031, 0.321289, -9.72168, 1.25.2022 18:20:2.880
117, 1.87404, 359.622, 162.655, 0, 0, -0.000976562, 0.0888672, 0.323242, -9.72168, 1.25.2022 18:20:2.888
118, 1.87299, 359.615, 162.655, -0.000976562, 0.000976562, -0.000976562, 0.0654297, 0.330078, -9.7041, 1.25.2022 18:20:2.896
119, 1.87299, 359.615, 162.655, -0.000976562, -0.000976562, -0.000976562, 0.123047, 0.332031, -9.68652, 1.25.2022 18:20:2.904
120, 1.87299, 359.615, 162.655, -0.000976562, 0, -0.000976562, 0.0527344, 0.357422, -9.74609, 1.25.2022 18:20:2.912
121, 1.87299, 359.615, 162.655, 0, 0, -0.000976562, 0.0771484, 0.316406, -9.72559, 1.25.2022 18:20:2.920
122, 1.87884, 359.607, 162.656, -0.000976562, -0.000976562, 0, 0.102539, 0.317383, -9.76172, 1.25.2022 18:20:2.928
123, 1.87884, 359.607, 162.656, -0.000976562, 0, 0, 0.0273438, 0.334961, -9.71289, 1.25.2022 18:20:2.936
124, 1.87884, 359.607, 162.656, 0, 0, -0.000976562, 0.103516, 0.310547, -9.70801, 1.25.2022 18:20:2.944
125, 1.87884, 359.607, 162.656, 0, 0, -0.000976562, 0.0771484, 0.303711, -9.70508, 1.25.2022 18:20:2.952
126, 1.87884, 359.607, 162.656, 0, 0, -0.000976562, 0.0507812, 0.336914, -9.71094, 1.25.2022 18:20:2.960
127, 1.8847, 359.599, 162.656, 0, 0, -0.000976562, 0.112305, 0.307617, -9.74805, 1.25.2022 18:20:2.968
128, 1.8847, 359.599, 162.656, -0.000976562, 0, -0.000976562, 0.00292969, 0.305664, -9.70117, 1.25.2022 18:20:2.976
129, 1.8847, 359.599, 162.656, 0, 0.000976562, 0, 0.0507812, 0.323242, -9.7041, 1.25.2022 18:20:2.984
130, 1.8847, 359.599, 162.656, -0.000976562, 0, -0.000976562, 0.0673828, 0.31543, -9.71387, 1.25.2022 18:20:2.992
131, 1.8847, 359.599, 162.656, -0.000976562, 0, -0.000976562, 0.0166016, 0.322266, -9.74902, 1.25.2022 18:20:3.000
132, 1.8847, 359.599, 162.656, 0, -0.000976562, 0, 0.09375, 0.331055, -9.74219, 1.25.2022 18:20:3.008
133, 1.8847, 359.599, 162.656, -0.000976562, -0.000976562, -0.000976562, 0.0546875, 0.314453, -9.74219, 1.25.2022 18:20:3.016
134, 1.88575, 359.606, 162.656, -0.000976562, -0.000976562, -0.000976562, 0.0439453, 0.330078, -9.7207, 1.25.2022 18:20:3.024
135, 1.88575, 359.606, 162.656, 0, 0, -0.000976562, 0.0771484, 0.320312, -9.71875, 1.25.2022 18:20:3.032
136, 1.88575, 359.606, 162.656, -0.000976562, 0, -0.000976562, -0.0117188, 0.328125, -9.73145, 1.25.2022 18:20:3.040
137, 1.88575, 359.606, 162.656, -0.000976562, 0, 0, 0.0771484, 0.333008, -9.71875, 1.25.2022 18:20:3.048
138, 1.88575, 359.606, 162.656, 0, 0.000976562, 0, 0.0986328, 0.323242, -9.70703, 1.25.2022 18:20:3.056
139, 1.89266, 359.605, 162.656, 0, 0, -0.000976562, 0.0556641, 0.327148, -9.69238, 1.25.2022 18:20:3.064
140, 1.89266, 359.605, 162.656, 0.000976562, 0, -0.000976562, 0.115234, 0.321289, -9.72461, 1.25.2022 18:20:3.072
141, 1.89266, 359.605, 162.656, 0, 0, 0, 0.0556641, 0.314453, -9.73047, 1.25.2022 18:20:3.080
142, 1.89266, 359.605, 162.656, 0, 0, 0, 0.0341797, 0.316406, -9.73438, 1.25.2022 18:20:3.088
143, 1.89266, 359.605, 162.656, 0, -0.000976562, 0, 0.0742188, 0.319336, -9.7373, 1.25.2022 18:20:3.096
144, 1.89372, 359.612, 162.656, -0.000976562, 0, 0, 0.0273438, 0.344727, -9.70801, 1.25.2022 18:20:3.104
145, 1.89372, 359.612, 162.656, -0.000976562, 0, -0.000976562, 0.0605469, 0.317383, -9.67578, 1.25.2022 18:20:3.112
146, 1.89372, 359.612, 162.656, 0, 0, 0, 0.0908203, 0.306641, -9.74023, 1.25.2022 18:20:3.120
147, 1.89372, 359.612, 162.656, 0, 0, 0, 0.0126953, 0.335938, -9.73145, 1.25.2022 18:20:3.128
148, 1.89372, 359.612, 162.656, -0.000976562, 0, -0.000976562, 0.103516, 0.308594, -9.71973, 1.25.2022 18:20:3.136
149, 1.89372, 359.612, 162.656, -0.000976562, 0, -0.000976562, 0.0556641, 0.325195, -9.69727, 1.25.2022 18:20:3.144
150, 1.89372, 359.612, 162.656, 0, 0, -0.000976562, 0.0654297, 0.313477, -9.71387, 1.25.2022 18:20:3.152
151, 1.89372, 359.612, 162.656, 0, 0, 0, 0.110352, 0.305664, -9.69141, 1.25.2022 18:20:3.160
152, 1.89372, 359.612, 162.656, 0, 0, 0, 0.0273438, 0.333008, -9.71094, 1.25.2022 18:20:3.168
153, 1.89372, 359.612, 162.656, -0.000976562, 0, 0, 0.0986328, 0.3125, -9.69531, 1.25.2022 18:20:3.176
154, 1.89372, 359.612, 162.656, -0.000976562, 0.000976562, 0.000976562, 0.0507812, 0.30957, -9.73535, 1.25.2022 18:20:3.184
155, 1.89372, 359.612, 162.656, 0, 0.000976562, 0, 0.0390625, 0.330078, -9.7207, 1.25.2022 18:20:3.192
156, 1.89372, 359.612, 162.656, 0, 0, 0, 0.110352, 0.304688, -9.73438, 1.25.2022 18:20:3.200
157, 1.89372, 359.612, 162.656, -0.000976562, 0, -0.000976562, 0.0693359, 0.313477, -9.72852, 1.25.2022 18:20:3.208
158, 1.89372, 359.612, 162.656, -0.000976562, 0, 0, 0.0791016, 0.333008, -9.74023, 1.25.2022 18:20:3.216
159, 1.89372, 359.612, 162.656, -0.00195312, 0, -0.000976562, 0.117188, 0.290039, -9.71777, 1.25.2022 18:20:3.224
160, 1.89372, 359.612, 162.656, -0.000976562, 0, 0, -0.00390625, 0.321289, -9.72461, 1.25.2022 18:20:3.232
161, 1.89266, 359.605, 162.656, -0.000976562, 0.000976562, -0.000976562, 0.0957031, 0.330078, -9.71387, 1.25.2022 18:20:3.240
162, 1.89266, 359.605, 162.656, 0, 0.000976562, 0, 0.0742188, 0.299805, -9.75195, 1.25.2022 18:20:3.248
163, 1.89266, 359.605, 162.656, 0, 0, -0.000976562, 0.0214844, 0.314453, -9.73926, 1.25.2022 18:20:3.256
164, 1.89266, 359.605, 162.656, 0, 0, -0.000976562, 0.126953, 0.294922, -9.72754, 1.25.2022 18:20:3.264
165, 1.89266, 359.605, 162.656, 0, 0, -0.000976562, 0.015625, 0.305664, -9.69727, 1.25.2022 18:20:3.272
166, 1.88575, 359.606, 162.656, 0, -0.000976562, -0.000976562, 0.0439453, 0.323242, -9.71582, 1.25.2022 18:20:3.280
167, 1.88575, 359.606, 162.656, 0, -0.000976562, -0.000976562, 0.0839844, 0.314453, -9.73535, 1.25.2022 18:20:3.288
168, 1.88575, 359.606, 162.656, 0, 0, -0.000976562, 0.0224609, 0.306641, -9.71387, 1.25.2022 18:20:3.296
169, 1.88575, 359.606, 162.656, 0, 0, 0, 0.09375, 0.322266, -9.68848, 1.25.2022 18:20:3.304
170, 1.88575, 359.606, 162.656, 0, 0, 0, 0.0507812, 0.339844, -9.71289, 1.25.2022 18:20:3.312
171, 1.88575, 359.606, 162.656, 0, 0.000976562, 0, 0.0458984, 0.330078, -9.7207, 1.25.2022 18:20:3.320
172, 1.88575, 359.606, 162.656, -0.000976562, 0.000976562, -0.000976562, 0.100586, 0.318359, -9.70703, 1.25.2022 18:20:3.328
173, 1.88575, 359.606, 162.656, -0.000976562, 0, 0, 0.0556641, 0.313477, -9.7041, 1.25.2022 18:20:3.336
174, 1.88575, 359.606, 162.656, 0, -0.000976562, -0.000976562, 0.0507812, 0.330078, -9.69434, 1.25.2022 18:20:3.344
175, 1.88575, 359.606, 162.656, 0, -0.00195312, 0, 0.0742188, 0.326172, -9.74023, 1.25.2022 18:20:3.352
176, 1.88681, 359.613, 162.656, 0, 0, -0.000976562, 0.00292969, 0.347656, -9.73535, 1.25.2022 18:20:3.360
177, 1.88681, 359.613, 162.656, -0.000976562, -0.000976562, -0.000976562, 0.0957031, 0.318359, -9.72852, 1.25.2022 18:20:3.368
178, 1.88681, 359.613, 162.656, -0.000976562, -0.000976562, -0.000976562, 0.0576172, 0.31543, -9.70703, 1.25.2022 18:20:3.376
179, 1.88681, 359.613, 162.656, -0.000976562, -0.00195312, -0.000976562, 0.0507812, 0.337891, -9.72266, 1.25.2022 18:20:3.384
180, 1.88681, 359.613, 162.656, 0, -0.000976562, -0.000976562, 0.110352, 0.303711, -9.71973, 1.25.2022 18:20:3.392
181, 1.88681, 359.613, 162.656, -0.000976562, -0.000976562, -0.000976562, 0.0078125, 0.321289, -9.72266, 1.25.2022 18:20:3.400
182, 1.88681, 359.613, 162.656, 0, -0.000976562, 0, 0.0869141, 0.327148, -9.70508, 1.25.2022 18:20:3.408
183, 1.88681, 359.613, 162.656, 0, -0.000976562, -0.000976562, 0.0771484, 0.304688, -9.7334, 1.25.2022 18:20:3.416
184, 1.88786, 359.62, 162.655, 0, -0.000976562, -0.000976562, 0.0263672, 0.335938, -9.74121, 1.25.2022 18:20:3.424
185, 1.88786, 359.62, 162.655, 0, -0.00195312, 0, 0.105469, 0.330078, -9.7002, 1.25.2022 18:20:3.432
186, 1.88786, 359.62, 162.655, -0.000976562, -0.00195312, -0.000976562, 0.0410156, 0.331055, -9.74902, 1.25.2022 18:20:3.440
187, 1.88786, 359.62, 162.655, -0.000976562, -0.00195312, 0, 0.0263672, 0.324219, -9.75098, 1.25.2022 18:20:3.448
188, 1.88786, 359.62, 162.655, 0, -0.000976562, -0.000976562, 0.100586, 0.326172, -9.74023, 1.25.2022 18:20:3.456
189, 1.89477, 359.619, 162.655, 0, -0.00195312, -0.000976562, 0.0224609, 0.368164, -9.70996, 1.25.2022 18:20:3.464
190, 1.89477, 359.619, 162.655, 0, -0.000976562, -0.000976562, 0.0859375, 0.316406, -9.72656, 1.25.2022 18:20:3.472
191, 1.89583, 359.626, 162.655, 0, -0.000976562, 0, 0.0791016, 0.288086, -9.74805, 1.25.2022 18:20:3.480
192, 1.89583, 359.626, 162.655, -0.000976562, -0.000976562, -0.000976562, 0.0380859, 0.34082, -9.74316, 1.25.2022 18:20:3.488
193, 1.89583, 359.626, 162.655, 0, 0.000976562, -0.000976562, 0.115234, 0.298828, -9.71289, 1.25.2022 18:20:3.496
194, 1.89583, 359.626, 162.655, 0, -0.000976562, -0.000976562, 0.0322266, 0.330078, -9.71289, 1.25.2022 18:20:3.504
195, 1.89583, 359.626, 162.655, -0.000976562, -0.000976562, 0, 0.03125, 0.328125, -9.73633, 1.25.2022 18:20:3.512
196, 1.89583, 359.626, 162.655, -0.000976562, -0.000976562, 0, 0.100586, 0.294922, -9.74805, 1.25.2022 18:20:3.520
197, 1.89583, 359.626, 162.655, 0, -0.000976562, 0, 0.0410156, 0.361328, -9.70801, 1.25.2022 18:20:3.528
198, 1.89583, 359.626, 162.655, -0.000976562, -0.000976562, 0, 0.0742188, 0.324219, -9.74707, 1.25.2022 18:20:3.536
199, 1.90274, 359.625, 162.655, -0.000976562, -0.000976562, -0.000976562, 0.0644531, 0.314453, -9.7334, 1.25.2022 18:20:3.544
200, 1.90274, 359.625, 162.655, 0, -0.000976562, 0, 0.0224609, 0.313477, -9.72559, 1.25.2022 18:20:3.552
201, 1.90274, 359.625, 162.655, -0.000976562, -0.000976562, 0, 0.105469, 0.337891, -9.72559, 1.25.2022 18:20:3.560
202, 1.90274, 359.625, 162.655, -0.000976562, -0.00195312, 0, 0.0390625, 0.304688, -9.72559, 1.25.2022 18:20:3.568
203, 1.90274, 359.625, 162.655, 0, -0.00195312, -0.000976562, 0.0722656, 0.3125, -9.69531, 1.25.2022 18:20:3.576
204, 1.90274, 359.625, 162.655, 0, -0.000976562, 0, 0.0986328, 0.283203, -9.72949, 1.25.2022 18:20:3.584
205, 1.90274, 359.625, 162.655, 0, -0.000976562, 0, 0.00585938, 0.321289, -9.71973, 1.25.2022 18:20:3.592
206, 1.89583, 359.626, 162.655, 0, 0.000976562, 0, 0.0888672, 0.318359, -9.73047, 1.25.2022 18:20:3.600
207, 1.89583, 359.626, 162.655, -0.000976562, 0.000976562, -0.000976562, 0.0673828, 0.310547, -9.70703, 1.25.2022 18:20:3.608
208, 1.89583, 359.626, 162.655, -0.000976562, 0.000976562, 0, 0.0146484, 0.34668, -9.71191, 1.25.2022 18:20:3.616
209, 1.89583, 359.626, 162.655, -0.000976562, 0, -0.000976562, 0.117188, 0.294922, -9.73242, 1.25.2022 18:20:3.624
210, 1.89583, 359.626, 162.655, -0.000976562, 0, -0.000976562, 0.0517578, 0.321289, -9.66895, 1.25.2022 18:20:3.632
211, 1.89583, 359.626, 162.655, -0.000976562, 0.000976562, 0, 0.0537109, 0.341797, -9.69922, 1.25.2022 18:20:3.640
212, 1.89583, 359.626, 162.655, -0.000976562, 0.000976562, -0.000976562, 0.0869141, 0.28418, -9.70801, 1.25.2022 18:20:3.648
213, 1.89583, 359.626, 162.655, -0.000976562, 0.000976562, 0, -0.00195312, 0.336914, -9.70801, 1.25.2022 18:20:3.656
214, 1.89583, 359.626, 162.655, -0.000976562, 0.000976562, 0.000976562, 0.0976562, 0.297852, -9.75098, 1.25.2022 18:20:3.664
215, 1.89583, 359.626, 162.655, -0.000976562, 0, 0, 0.0742188, 0.318359, -9.72559, 1.25.2022 18:20:3.672
216, 1.89583, 359.626, 162.655, -0.000976562, 0, -0.000976562, 0.0341797, 0.347656, -9.72461, 1.25.2022 18:20:3.680
217, 1.89583, 359.626, 162.655, -0.000976562, 0, -0.000976562, 0.0986328, 0.318359, -9.72363, 1.25.2022 18:20:3.688
218, 1.89583, 359.626, 162.655, 0, 0, 0, 0.0146484, 0.322266, -9.7627, 1.25.2022 18:20:3.696
219, 1.89583, 359.626, 162.655, 0, 0, -0.000976562, 0.0576172, 0.318359, -9.73047, 1.25.2022 18:20:3.704
220, 1.89583, 359.626, 162.655, 0, -0.000976562, -0.000976562, 0.0771484, 0.291992, -9.71484, 1.25.2022 18:20:3.712
221, 1.89583, 359.626, 162.655, -0.000976562, 0, 0, 0.0224609, 0.330078, -9.70605, 1.25.2022 18:20:3.720
222, 1.89583, 359.626, 162.655, 0, 0, 0, 0.0820312, 0.301758, -9.71191, 1.25.2022 18:20:3.728
223, 1.88892, 359.627, 162.655, 0, 0, -0.000976562, 0.0703125, 0.334961, -9.71582, 1.25.2022 18:20:3.736
224, 1.88892, 359.627, 162.655, 0, 0, -0.000976562, 0.0458984, 0.361328, -9.70312, 1.25.2022 18:20:3.744
225, 1.89583, 359.626, 162.655, -0.000976562, 0.000976562, -0.000976562, 0.0957031, 0.3125, -9.75, 1.25.2022 18:20:3.752
226, 1.89583, 359.626, 162.655, -0.000976562, 0, -0.000976562, 0.0195312, 0.328125, -9.72949, 1.25.2022 18:20:3.760
227, 1.89583, 359.626, 162.655, -0.000976562, 0, 0, 0.0673828, 0.323242, -9.71875, 1.25.2022 18:20:3.768
228, 1.89688, 359.633, 162.655, 0, -0.000976562, -0.000976562, 0.0703125, 0.305664, -9.68652, 1.25.2022 18:20:3.776
229, 1.89688, 359.633, 162.655, 0, 0, 0, 0.0244141, 0.323242, -9.7041, 1.25.2022 18:20:3.782
230, 1.89688, 359.633, 162.655, 0, 0, 0, 0.0908203, 0.320312, -9.71875, 1.25.2022 18:20:3.790
231, 1.89688, 359.633, 162.655, 0, 0, 0.000976562, 0.0791016, 0.314453, -9.73047, 1.25.2022 18:20:3.798
232, 1.89688, 359.633, 162.655, 0, 0, 0, 0.0341797, 0.323242, -9.71777, 1.25.2022 18:20:3.806
233, 1.88997, 359.634, 162.655, 0, 0, -0.000976562, 0.09375, 0.272461, -9.70117, 1.25.2022 18:20:3.814
234, 1.88997, 359.634, 162.655, -0.000976562, 0, -0.000976562, 0.0244141, 0.326172, -9.72949, 1.25.2022 18:20:3.822
235, 1.88997, 359.634, 162.655, -0.000976562, 0, 0, 0.0693359, 0.319336, -9.73535, 1.25.2022 18:20:3.830
236, 1.88997, 359.634, 162.655, 0, 0, 0, 0.0693359, 0.318359, -9.7207, 1.25.2022 18:20:3.838
237, 1.88997, 359.634, 162.655, -0.000976562, 0, 0, 0.0410156, 0.342773, -9.73438, 1.25.2022 18:20:3.846
238, 1.88997, 359.634, 162.655, 0, -0.00195312, 0, 0.110352, 0.323242, -9.73145, 1.25.2022 18:20:3.854
239, 1.88997, 359.634, 162.655, 0, 0, 0, 0.0410156, 0.342773, -9.74121, 1.25.2022 18:20:3.862
240, 1.88997, 359.634, 162.655, -0.000976562, 0.000976562, 0, 0.0703125, 0.318359, -9.70508, 1.25.2022 18:20:3.870
241, 1.88997, 359.634, 162.655, -0.000976562, -0.000976562, 0, 0.115234, 0.293945, -9.7041, 1.25.2022 18:20:3.878
242, 1.88997, 359.634, 162.655, 0, -0.00195312, -0.000976562, 0.0146484, 0.331055, -9.72266, 1.25.2022 18:20:3.886
243, 1.88997, 359.634, 162.655, 0, -0.000976562, -0.000976562, 0.0742188, 0.345703, -9.74219, 1.25.2022 18:20:3.894
244, 1.88892, 359.627, 162.655, 0, -0.000976562, -0.000976562, 0.0810547, 0.320312, -9.77051, 1.25.2022 18:20:3.902
245, 1.88997, 359.634, 162.655, -0.000976562, -0.000976562, -0.000976562, 0.0078125, 0.34082, -9.74512, 1.25.2022 18:20:3.910
246, 1.89583, 359.626, 162.655, -0.000976562, 0.000976562, -0.000976562, 0.0908203, 0.290039, -9.72656, 1.25.2022 18:20:3.918
247, 1.89583, 359.626, 162.655, -0.000976562, -0.000976562, -0.000976562, 0.03125, 0.296875, -9.7168, 1.25.2022 18:20:3.926
248, 1.88892, 359.627, 162.655, 0, 0.000976562, -0.000976562, 0.0654297, 0.334961, -9.71582, 1.25.2022 18:20:3.934
249, 1.88892, 359.627, 162.655, -0.000976562, 0.000976562, -0.000976562, 0.0888672, 0.316406, -9.7168, 1.25.2022 18:20:3.942
250, 1.89583, 359.626, 162.655, 0, 0.000976562, -0.000976562, 0.0341797, 0.328125, -9.71777, 1.25.2022 18:20:3.950
251, 1.89583, 359.626, 162.655, -0.000976562, -0.000976562, 0, 0.0654297, 0.325195, -9.7207, 1.25.2022 18:20:3.958
252, 1.89583, 359.626, 162.655, -0.000976562, -0.00195312, 0, 0.0625, 0.296875, -9.70312, 1.25.2022 18:20:3.966
253, 1.88997, 359.634, 162.655, -0.000976562, -0.00195312, -0.000976562, 0.0205078, 0.320312, -9.68262, 1.25.2022 18:20:3.974
254, 1.88997, 359.634, 162.655, 0, -0.000976562, -0.000976562, 0.100586, 0.321289, -9.73535, 1.25.2022 18:20:3.982
255, 1.88997, 359.634, 162.655, 0, -0.00195312, -0.000976562, 0.0341797, 0.299805, -9.73242, 1.25.2022 18:20:3.990
256, 1.88997, 359.634, 162.655, 0, -0.000976562, -0.000976562, 0.0410156, 0.296875, -9.72559, 1.25.2022 18:20:3.998
257, 1.88997, 359.634, 162.655, -0.000976562, -0.000976562, -0.000976562, 0.102539, 0.296875, -9.73633, 1.25.2022 18:20:4.006
258, 1.88997, 359.634, 162.655, -0.00195312, -0.000976562, -0.000976562, 0.0292969, 0.308594, -9.72266, 1.25.2022 18:20:4.014
259, 1.88997, 359.634, 162.655, -0.000976562, -0.00195312, -0.000976562, 0.117188, 0.313477, -9.70996, 1.25.2022 18:20:4.022
260, 1.88306, 359.635, 162.655, 0, -0.00195312, -0.000976562, 0.0742188, 0.291016, -9.74805, 1.25.2022 18:20:4.030
261, 1.88306, 359.635, 162.655, -0.000976562, -0.000976562, -0.000976562, 0.0107422, 0.338867, -9.68164, 1.25.2022 18:20:4.038
262, 1.88306, 359.635, 162.655, -0.000976562, 0.000976562, -0.000976562, 0.110352, 0.304688, -9.73438, 1.25.2022 18:20:4.046
263, 1.88306, 359.635, 162.655, 0, -0.000976562, 0, 0.0361328, 0.306641, -9.71582, 1.25.2022 18:20:4.054
264, 1.88306, 359.635, 162.655, 0, 0, 0, 0.0742188, 0.311523, -9.7334, 1.25.2022 18:20:4.062
265, 1.8751, 359.629, 162.655, 0, -0.000976562, 0, 0.0888672, 0.294922, -9.74121, 1.25.2022 18:20:4.070
266, 1.8751, 359.629, 162.655, 0, -0.000976562, -0.000976562, 0.0146484, 0.326172, -9.72754, 1.25.2022 18:20:4.078
267, 1.8751, 359.629, 162.655, 0, -0.00195312, -0.000976562, 0.0957031, 0.324219, -9.74512, 1.25.2022 18:20:4.086
268, 1.8751, 359.629, 162.655, 0, -0.00292969, -0.000976562, 0.0742188, 0.313477, -9.7168, 1.25.2022 18:20:4.094
269, 1.87517, 359.629, 162.663, 0, -0.000976562, -0.000976562, 0.0673828, 0.320312, -9.70898, 1.25.2022 18:20:4.102
270, 1.86826, 359.63, 162.663, 0, -0.000976562, -0.000976562, 0.0888672, 0.31543, -9.71484, 1.25.2022 18:20:4.110
271, 1.86826, 359.63, 162.663, 0, -0.00195312, -0.000976562, 0.0185547, 0.329102, -9.76953, 1.25.2022 18:20:4.118
272, 1.86826, 359.63, 162.663, -0.000976562, -0.000976562, -0.000976562, 0.0644531, 0.328125, -9.72559, 1.25.2022 18:20:4.126
273, 1.86826, 359.63, 162.663, -0.000976562, 0, 0, 0.105469, 0.326172, -9.74512, 1.25.2022 18:20:4.134
274, 1.86826, 359.63, 162.663, -0.000976562, -0.000976562, 0, 0.0126953, 0.347656, -9.72168, 1.25.2022 18:20:4.142
275, 1.87517, 359.629, 162.663, 0, 0, -0.000976562, 0.0800781, 0.325195, -9.7002, 1.25.2022 18:20:4.150
276, 1.87517, 359.629, 162.663, -0.000976562, 0, -0.000976562, 0.0537109, 0.279297, -9.69824, 1.25.2022 18:20:4.158
277, 1.87517, 359.629, 162.663, -0.000976562, 0, 0, 0.0273438, 0.333984, -9.6748, 1.25.2022 18:20:4.166
278, 1.87517, 359.629, 162.663, 0, 0, -0.000976562, 0.108398, 0.328125, -9.7168, 1.25.2022 18:20:4.174
279, 1.87517, 359.629, 162.663, 0, 0, -0.000976562, 0.0429688, 0.311523, -9.7373, 1.25.2022 18:20:4.182
280, 1.87517, 359.629, 162.663, -0.000976562, -0.000976562, -0.000976562, 0.09375, 0.327148, -9.69727, 1.25.2022 18:20:4.190
281, 1.87517, 359.629, 162.663, -0.000976562, 0, 0, 0.0742188, 0.316406, -9.7334, 1.25.2022 18:20:4.198
282, 1.87517, 359.629, 162.663, -0.000976562, -0.000976562, -0.000976562, 0.000976562, 0.323242, -9.72461, 1.25.2022 18:20:4.206
283, 1.8751, 359.629, 162.655, 0, -0.000976562, 0, 0.0986328, 0.298828, -9.70605, 1.25.2022 18:20:4.214
284, 1.8751, 359.629, 162.655, 0, -0.000976562, 0, 0.0546875, 0.297852, -9.76367, 1.25.2022 18:20:4.222
285, 1.8751, 359.629, 162.655, 0, 0, -0.000976562, 0.0380859, 0.307617, -9.75684, 1.25.2022 18:20:4.230
286, 1.8751, 359.629, 162.655, -0.000976562, 0.000976562, -0.000976562, 0.0976562, 0.302734, -9.74121, 1.25.2022 18:20:4.238
287, 1.8751, 359.629, 162.655, -0.000976562, -0.000976562, -0.000976562, 0.0341797, 0.342773, -9.72949, 1.25.2022 18:20:4.246
288, 1.8751, 359.629, 162.655, -0.000976562, -0.000976562, -0.000976562, 0.0761719, 0.335938, -9.74219, 1.25.2022 18:20:4.254
289, 1.8751, 359.629, 162.655, 0, 0, -0.000976562, 0.0791016, 0.323242, -9.7334, 1.25.2022 18:20:4.262
290, 1.8751, 359.629, 162.655, 0, 0, 0, 0.0292969, 0.325195, -9.71582, 1.25.2022 18:20:4.270
291, 1.8751, 359.629, 162.655, 0, 0, 0, 0.125, 0.323242, -9.72461, 1.25.2022 18:20:4.278
292, 1.8751, 359.629, 162.655, -0.000976562, 0, 0, 0.0458984, 0.321289, -9.7207, 1.25.2022 18:20:4.286
293, 1.8751, 359.629, 162.655, -0.000976562, 0, -0.000976562, 0.0390625, 0.308594, -9.71191, 1.25.2022 18:20:4.294
294, 1.8751, 359.629, 162.655, 0, 0, -0.00195312, 0.0791016, 0.282227, -9.71973, 1.25.2022 18:20:4.302
295, 1.8751, 359.629, 162.655, 0, 0, -0.000976562, 0.0263672, 0.354492, -9.73828, 1.25.2022 18:20:4.310
296, 1.8751, 359.629, 162.655, 0, 0.000976562, 0, 0.0625, 0.324219, -9.74414, 1.25.2022 18:20:4.318
297, 1.8751, 359.629, 162.655, 0, 0.000976562, -0.000976562, 0.0722656, 0.311523, -9.74023, 1.25.2022 18:20:4.326
298, 1.8751, 359.629, 162.655, 0, 0, 0, 0.0556641, 0.317383, -9.6875, 1.25.2022 18:20:4.334
299, 1.87404, 359.622, 162.655, 0, 0, -0.000976562, 0.133789, 0.299805, -9.73926, 1.25.2022 18:20:4.342
300, 1.87404, 359.622, 162.655, 0, 0, -0.000976562, 0.03125, 0.329102, -9.7627, 1.25.2022 18:20:4.350
301, 1.87404, 359.622, 162.655, -0.000976562, -0.000976562, 0, 0.0673828, 0.331055, -9.7373, 1.25.2022 18:20:4.358
302, 1.87404, 359.622, 162.655, 0, 0, 0, 0.129883, 0.293945, -9.70898, 1.25.2022 18:20:4.366
303, 1.87404, 359.622, 162.655, -0.000976562, 0, 0, 0.0292969, 0.337891, -9.72949, 1.25.2022 18:20:4.374
304, 1.87404, 359.622, 162.655, 0, -0.000976562, 0, 0.0761719, 0.311523, -9.73535, 1.25.2022 18:20:4.382
305, 1.87404, 359.622, 162.655, 0, -0.000976562, 0, 0.0839844, 0.34668, -9.7041, 1.25.2022 18:20:4.390
306, 1.88095, 359.621, 162.655, 0, 0, 0, 0.0351562, 0.350586, -9.68164, 1.25.2022 18:20:4.398
307, 1.8799, 359.614, 162.655, -0.000976562, 0, -0.000976562, 0.110352, 0.301758, -9.71973, 1.25.2022 18:20:4.406
308, 1.8799, 359.614, 162.655, -0.000976562, 0, -0.000976562, 0.0341797, 0.336914, -9.70605, 1.25.2022 18:20:4.414
309, 1.8799, 359.614, 162.655, -0.000976562, -0.000976562, -0.000976562, 0.0507812, 0.34668, -9.70312, 1.25.2022 18:20:4.422
310, 1.88681, 359.613, 162.656, -0.000976562, 0, -0.000976562, 0.0693359, 0.296875, -9.71973, 1.25.2022 18:20:4.430
311, 1.88681, 359.613, 162.656, 0, 0, 0, 0.0126953, 0.325195, -9.71777, 1.25.2022 18:20:4.438
312, 1.88681, 359.613, 162.656, 0, 0, -0.000976562, 0.0986328, 0.331055, -9.72852, 1.25.2022 18:20:4.446
313, 1.88681, 359.613, 162.656, -0.000976562, 0, 0, 0.0722656, 0.298828, -9.70312, 1.25.2022 18:20:4.454
314, 1.88681, 359.613, 162.656, 0, 0.000976562, -0.000976562, 0.0390625, 0.339844, -9.71582, 1.25.2022 18:20:4.462
315, 1.88681, 359.613, 162.656, -0.000976562, 0, -0.000976562, 0.102539, 0.311523, -9.73145, 1.25.2022 18:20:4.470
316, 1.88681, 359.613, 162.656, 0, 0, -0.000976562, 0.0273438, 0.31543, -9.68555, 1.25.2022 18:20:4.478
317, 1.88681, 359.613, 162.656, -0.000976562, 0, -0.000976562, 0.0410156, 0.334961, -9.71582, 1.25.2022 18:20:4.486
318, 1.89372, 359.612, 162.656, 0, 0, 0, 0.0966797, 0.324219, -9.69043, 1.25.2022 18:20:4.494
319, 1.89477, 359.619, 162.655, 0, 0, 0, -0.000976562, 0.336914, -9.68359, 1.25.2022 18:20:4.502
320, 1.89477, 359.619, 162.655, 0.000976562, 0, 0, 0.0859375, 0.321289, -9.72852, 1.25.2022 18:20:4.510
321, 1.89477, 359.619, 162.655, -0.000976562, -0.000976562, 0, 0.0673828, 0.299805, -9.72852, 1.25.2022 18:20:4.518
322, 1.89477, 359.619, 162.655, -0.000976562, -0.000976562, 0, 0.0302734, 0.338867, -9.67773, 1.25.2022 18:20:4.526
323, 1.89477, 359.619, 162.655, 0, -0.000976562, -0.000976562, 0.113281, 0.334961, -9.7002, 1.25.2022 18:20:4.534
324, 1.89477, 359.619, 162.655, 0, 0, -0.000976562, 0.00292969, 0.320312, -9.71094, 1.25.2022 18:20:4.542
325, 1.89477, 359.619, 162.655, -0.000976562, 0, -0.000976562, 0.0673828, 0.324219, -9.74902, 1.25.2022 18:20:4.550
326, 1.89477, 359.619, 162.655, 0, 0, 0, 0.0878906, 0.302734, -9.76172, 1.25.2022 18:20:4.558
327, 1.89583, 359.626, 162.655, 0, 0, 0, 0.0644531, 0.323242, -9.72559, 1.25.2022 18:20:4.566
328, 1.89477, 359.619, 162.655, 0, -0.000976562, -0.000976562, 0.105469, 0.310547, -9.69824, 1.25.2022 18:20:4.574
329, 1.89477, 359.619, 162.655, 0.000976562, 0, 0, 0.0625, 0.359375, -9.73145, 1.25.2022 18:20:4.582
330, 1.89477, 359.619, 162.655, 0, 0, -0.000976562, 0.0693359, 0.347656, -9.72266, 1.25.2022 18:20:4.590
331, 1.90168, 359.618, 162.655, 0, 0, -0.000976562, 0.108398, 0.3125, -9.69336, 1.25.2022 18:20:4.598
332, 1.90168, 359.618, 162.655, 0, 0.000976562, -0.000976562, 0.03125, 0.330078, -9.71777, 1.25.2022 18:20:4.606
333, 1.90168, 359.618, 162.655, 0, 0, -0.000976562, 0.0791016, 0.299805, -9.74316, 1.25.2022 18:20:4.614
334, 1.90168, 359.618, 162.655, -0.000976562, 0, -0.000976562, 0.0859375, 0.291016, -9.75488, 1.25.2022 18:20:4.622
335, 1.90168, 359.618, 162.655, 0.000976562, 0, 0, 0.0605469, 0.363281, -9.68652, 1.25.2022 18:20:4.630
336, 1.90063, 359.611, 162.656, 0, -0.000976562, -0.000976562, 0.146484, 0.295898, -9.69238, 1.25.2022 18:20:4.638
337, 1.90063, 359.611, 162.656, -0.000976562, 0, 0, 0.0595703, 0.337891, -9.7373, 1.25.2022 18:20:4.646
338, 1.90063, 359.611, 162.656, 0, 0.000976562, 0, 0.0292969, 0.331055, -9.73633, 1.25.2022 18:20:4.654
339, 1.89957, 359.604, 162.656, 0, 0, -0.000976562, 0.117188, 0.318359, -9.7334, 1.25.2022 18:20:4.662
340, 1.89957, 359.604, 162.656, -0.000976562, 0, -0.000976562, 0.0244141, 0.337891, -9.71777, 1.25.2022 18:20:4.670
341, 1.90648, 359.603, 162.656, -0.000976562, 0, -0.000976562, 0.0693359, 0.310547, -9.7666, 1.25.2022 18:20:4.678
342, 1.90648, 359.603, 162.656, -0.000976562, -0.000976562, 0, 0.0751953, 0.287109, -9.70801, 1.25.2022 18:20:4.686
343, 1.90648, 359.603, 162.656, 0, 0, -0.000976562, 0.0126953, 0.364258, -9.71387, 1.25.2022 18:20:4.694
344, 1.90648, 359.603, 162.656, 0, 0, -0.000976562, 0.0976562, 0.306641, -9.74121, 1.25.2022 18:20:4.702
345, 1.90648, 359.603, 162.656, 0, 0, -0.000976562, 0.0488281, 0.310547, -9.70898, 1.25.2022 18:20:4.710
346, 1.90648, 359.603, 162.656, 0, -0.000976562, -0.000976562, 0.0507812, 0.336914, -9.70605, 1.25.2022 18:20:4.718
347, 1.90648, 359.603, 162.656, -0.00195312, -0.000976562, -0.000976562, 0.0917969, 0.333984, -9.69531, 1.25.2022 18:20:4.726
348, 1.90648, 359.603, 162.656, 0, 0, -0.000976562, 0.00292969, 0.334961, -9.70312, 1.25.2022 18:20:4.734
349, 1.90648, 359.603, 162.656, 0, 0, 0, 0.0771484, 0.321289, -9.72168, 1.25.2022 18:20:4.742
350, 1.90648, 359.603, 162.656, 0, 0, 0, 0.0791016, 0.290039, -9.71777, 1.25.2022 18:20:4.748
351, 1.90648, 359.603, 162.656, -0.000976562, -0.000976562, 0, 0.0263672, 0.335938, -9.74805, 1.25.2022 18:20:4.756
352, 1.90754, 359.61, 162.656, -0.000976562, 0, -0.000976562, 0.109375, 0.30957, -9.74805, 1.25.2022 18:20:4.764
353, 1.90754, 359.61, 162.656, -0.000976562, 0, -0.000976562, 0.0332031, 0.333984, -9.74121, 1.25.2022 18:20:4.772
354, 1.90754, 359.61, 162.656, 0, 0.000976562, -0.000976562, 0.0341797, 0.34668, -9.68945, 1.25.2022 18:20:4.780
355, 1.90754, 359.61, 162.656, -0.000976562, 0.000976562, -0.000976562, 0.0673828, 0.317383, -9.7002, 1.25.2022 18:20:4.788
356, 1.90754, 359.61, 162.656, 0, 0, 0, 0.0195312, 0.342773, -9.73633, 1.25.2022 18:20:4.796
357, 1.90754, 359.61, 162.656, 0, 0, -0.000976562, 0.09375, 0.320312, -9.70508, 1.25.2022 18:20:4.804
358, 1.90754, 359.61, 162.656, 0, 0, 0, 0.0820312, 0.31543, -9.7002, 1.25.2022 18:20:4.812
359, 1.90859, 359.617, 162.655, -0.000976562, 0, 0, 0.0273438, 0.333008, -9.70801, 1.25.2022 18:20:4.820
360, 1.90859, 359.617, 162.655, -0.000976562, 0.000976562, 0, 0.117188, 0.314453, -9.73828, 1.25.2022 18:20:4.828
361, 1.90859, 359.617, 162.655, -0.000976562, 0.000976562, 0, 0.0224609, 0.325195, -9.70117, 1.25.2022 18:20:4.836
362, 1.9155, 359.616, 162.655, 0, 0, 0, 0.0488281, 0.325195, -9.69238, 1.25.2022 18:20:4.844
363, 1.9155, 359.616, 162.655, 0, 0, 0, 0.12207, 0.293945, -9.71094, 1.25.2022 18:20:4.852
364, 1.90859, 359.617, 162.655, -0.000976562, 0.000976562, 0, 0.0166016, 0.321289, -9.73926, 1.25.2022 18:20:4.860
365, 1.90859, 359.617, 162.655, -0.000976562, -0.000976562, 0, 0.0976562, 0.331055, -9.7373, 1.25.2022 18:20:4.868
366, 1.90859, 359.617, 162.655, 0, 0, 0, 0.0693359, 0.316406, -9.72852, 1.25.2022 18:20:4.876
367, 1.90859, 359.617, 162.655, -0.000976562, 0, 0, 0.00976562, 0.316406, -9.71777, 1.25.2022 18:20:4.884
368, 1.90859, 359.617, 162.655, 0, 0, -0.000976562, 0.115234, 0.306641, -9.72949, 1.25.2022 18:20:4.892
369, 1.90859, 359.617, 162.655, -0.000976562, 0.000976562, -0.000976562, 0.0332031, 0.319336, -9.7627, 1.25.2022 18:20:4.900
370, 1.90859, 359.617, 162.655, 0, -0.00195312, -0.000976562, 0.0712891, 0.319336, -9.76172, 1.25.2022 18:20:4.908
371, 1.90859, 359.617, 162.655, -0.000976562, -0.000976562, 0, 0.0791016, 0.301758, -9.73633, 1.25.2022 18:20:4.916
372, 1.90859, 359.617, 162.655, 0, -0.000976562, 0, 0, 0.348633, -9.77148, 1.25.2022 18:20:4.924
373, 1.90859, 359.617, 162.655, -0.000976562, -0.000976562, -0.000976562, 0.0830078, 0.322266, -9.75879, 1.25.2022 18:20:4.932
374, 1.90859, 359.617, 162.655, 0, -0.000976562, -0.000976562, 0.0791016, 0.31543, -9.70996, 1.25.2022 18:20:4.940
375, 1.90859, 359.617, 162.655, -0.000976562, -0.000976562, 0, 0.0263672, 0.326172, -9.72266, 1.25.2022 18:20:4.948
376, 1.90168, 359.618, 162.655, 0, -0.00195312, -0.000976562, 0.100586, 0.308594, -9.72656, 1.25.2022 18:20:4.956
377, 1.90274, 359.625, 162.655, 0, -0.000976562, -0.000976562, 0.0419922, 0.324219, -9.67285, 1.25.2022 18:20:4.964
378, 1.90274, 359.625, 162.655, -0.000976562, -0.000976562, -0.000976562, 0.046875, 0.310547, -9.6875, 1.25.2022 18:20:4.972
379, 1.90274, 359.625, 162.655, -0.000976562, -0.000976562, -0.000976562, 0.0820312, 0.320312, -9.70215, 1.25.2022 18:20:4.980
380, 1.90274, 359.625, 162.655, 0, -0.000976562, 0, -0.0175781, 0.342773, -9.65527, 1.25.2022 18:20:4.988
381, 1.90274, 359.625, 162.655, 0, -0.000976562, 0, 0.0908203, 0.323242, -9.73047, 1.25.2022 18:20:4.996
382, 1.90274, 359.625, 162.655, 0, -0.000976562, 0, 0.0527344, 0.321289, -9.74902, 1.25.2022 18:20:5.004
383, 1.90379, 359.632, 162.655, -0.000976562, -0.000976562, -0.000976562, 0.0322266, 0.330078, -9.7041, 1.25.2022 18:20:5.012
384, 1.90379, 359.632, 162.655, -0.000976562, -0.000976562, 0, 0.100586, 0.298828, -9.70801, 1.25.2022 18:20:5.020
385, 1.90379, 359.632, 162.655, -0.000976562, -0.000976562, -0.000976562, 0.0107422, 0.320312, -9.70801, 1.25.2022 18:20:5.028
386, 1.90379, 359.632, 162.655, 0, -0.000976562, -0.000976562, 0.0693359, 0.331055, -9.72559, 1.25.2022 18:20:5.036
387, 1.90379, 359.632, 162.655, -0.000976562, -0.000976562, -0.000976562, 0.0888672, 0.318359, -9.72656, 1.25.2022 18:20:5.044
388, 1.90379, 359.632, 162.655, 0, -0.000976562, 0, 0.0195312, 0.300781, -9.75195, 1.25.2022 18:20:5.052
389, 1.90379, 359.632, 162.655, -0.000976562, -0.000976562, -0.000976562, 0.100586, 0.303711, -9.71289, 1.25.2022 18:20:5.060
390, 1.89688, 359.633, 162.655, 0, 0.000976562, -0.000976562, 0.0361328, 0.299805, -9.74219, 1.25.2022 18:20:5.068
391, 1.89793, 359.64, 162.655, 0, -0.000976562, -0.000976562, 0.0556641, 0.331055, -9.73242, 1.25.2022 18:20:5.076
392, 1.89793, 359.64, 162.655, -0.000976562, -0.000976562, 0, 0.0644531, 0.333008, -9.73047, 1.25.2022 18:20:5.084
393, 1.89793, 359.64, 162.655, 0, -0.000976562, 0, 0.00976562, 0.354492, -9.71875, 1.25.2022 18:20:5.092
394, 1.89793, 359.64, 162.655, 0, -0.000976562, -0.000976562, 0.046875, 0.329102, -9.68262, 1.25.2022 18:20:5.100
395, 1.89793, 359.64, 162.655, 0, -0.00195312, 0, 0.0927734, 0.302734, -9.74316, 1.25.2022 18:20:5.108
396, 1.89899, 359.647, 162.655, 0, -0.000976562, 0, 0.0244141, 0.325195, -9.69922, 1.25.2022 18:20:5.116
397, 1.89899, 359.647, 162.655, -0.000976562, -0.000976562, 0, 0.115234, 0.318359, -9.73633, 1.25.2022 18:20:5.124
398, 1.89899, 359.647, 162.655, -0.000976562, -0.000976562, 0, 0.0693359, 0.333008, -9.72559, 1.25.2022 18:20:5.132
399, 1.89899, 359.647, 162.655, -0.000976562, -0.000976562, 0, 0.0429688, 0.299805, -9.74512, 1.25.2022 18:20:5.140
400, 1.89899, 359.647, 162.655, 0, -0.000976562, -0.000976562, 0.119141, 0.297852, -9.74805, 1.25.2022 18:20:5.148
401, 1.89793, 359.64, 162.655, -0.000976562, 0, -0.000976562, 0.0234375, 0.319336, -9.75586, 1.25.2022 18:20:5.156
402, 1.89793, 359.64, 162.655, -0.000976562, 0, 0, 0.0888672, 0.313477, -9.71191, 1.25.2022 18:20:5.164
403, 1.89793, 359.64, 162.655, 0, -0.00195312, 0, 0.0888672, 0.319336, -9.73828, 1.25.2022 18:20:5.172
404, 1.89793, 359.64, 162.655, -0.000976562, 0, 0, 0.0458984, 0.326172, -9.74219, 1.25.2022 18:20:5.180
405, 1.89102, 359.641, 162.655, -0.000976562, 0, -0.000976562, 0.0771484, 0.296875, -9.72852, 1.25.2022 18:20:5.188
406, 1.89102, 359.641, 162.655, -0.000976562, -0.00195312, 0, 0.0507812, 0.318359, -9.70215, 1.25.2022 18:20:5.196
407, 1.89102, 359.641, 162.655, -0.000976562, -0.00195312, 0, 0.0576172, 0.323242, -9.72559, 1.25.2022 18:20:5.204
408, 1.89102, 359.641, 162.655, 0, -0.00195312, 0, 0.100586, 0.328125, -9.72363, 1.25.2022 18:20:5.212
409, 1.89102, 359.641, 162.655, -0.000976562, 0, 0, 0.0146484, 0.34668, -9.71484, 1.25.2022 18:20:5.220
410, 1.88997, 359.634, 162.655, -0.000976562, 0, -0.000976562, 0.0986328, 0.303711, -9.71289, 1.25.2022 18:20:5.228
411, 1.88997, 359.634, 162.655, 0, 0, -0.000976562, 0.0957031, 0.316406, -9.72656, 1.25.2022 18:20:5.236
412, 1.88997, 359.634, 162.655, -0.000976562, 0, 0, 0.0478516, 0.319336, -9.74219, 1.25.2022 18:20:5.244
413, 1.88997, 359.634, 162.655, -0.000976562, 0, -0.000976562, 0.155273, 0.296875, -9.73926, 1.25.2022 18:20:5.252
414, 1.88892, 359.627, 162.655, 0, 0, -0.000976562, 0.0166016, 0.326172, -9.74414, 1.25.2022 18:20:5.260
415, 1.88892, 359.627, 162.655, 0, 0, -0.000976562, 0.03125, 0.342773, -9.72461, 1.25.2022 18:20:5.268
416, 1.88892, 359.627, 162.655, 0, 0.000976562, 0, 0.0800781, 0.293945, -9.70117, 1.25.2022 18:20:5.276
417, 1.88892, 359.627, 162.655, -0.000976562, 0, 0, -0.00195312, 0.333984, -9.74121, 1.25.2022 18:20:5.284
418, 1.88892, 359.627, 162.655, -0.000976562, 0, 0, 0.0908203, 0.311523, -9.73145, 1.25.2022 18:20:5.292
419, 1.88892, 359.627, 162.655, 0, -0.00195312, -0.000976562, 0.0625, 0.316406, -9.74023, 1.25.2022 18:20:5.300
420, 1.88892, 359.627, 162.655, 0, 0, -0.000976562, 0.0292969, 0.329102, -9.74414, 1.25.2022 18:20:5.308
421, 1.88892, 359.627, 162.655, 0, -0.00195312, -0.000976562, 0.117188, 0.324219, -9.74805, 1.25.2022 18:20:5.316
422, 1.88892, 359.627, 162.655, 0, 0, -0.000976562, 0.0175781, 0.337891, -9.71484, 1.25.2022 18:20:5.324
423, 1.88892, 359.627, 162.655, 0.000976562, 0, -0.000976562, 0.0742188, 0.328125, -9.73535, 1.25.2022 18:20:5.332
424, 1.88892, 359.627, 162.655, 0.000976562, -0.00195312, 0, 0.09375, 0.301758, -9.73633, 1.25.2022 18:20:5.340
425, 1.88892, 359.627, 162.655, -0.000976562, 0, 0, 0.015625, 0.330078, -9.69824, 1.25.2022 18:20:5.348
426, 1.88892, 359.627, 162.655, 0, -0.00195312, -0.000976562, 0.0927734, 0.300781, -9.76953, 1.25.2022 18:20:5.356
427, 1.88892, 359.627, 162.655, 0, -0.00195312, -0.000976562, 0.0458984, 0.321289, -9.74414, 1.25.2022 18:20:5.364
428, 1.88892, 359.627, 162.655, -0.000976562, 0, -0.000976562, 0.0361328, 0.31543, -9.70898, 1.25.2022 18:20:5.372
429, 1.88892, 359.627, 162.655, -0.000976562, 0, 0, 0.110352, 0.291992, -9.71094, 1.25.2022 18:20:5.380
430, 1.88892, 359.627, 162.655, 0, 0, -0.000976562, 0.0146484, 0.334961, -9.72461, 1.25.2022 18:20:5.388
431, 1.88892, 359.627, 162.655, 0, 0, -0.000976562, 0.0605469, 0.310547, -9.70215, 1.25.2022 18:20:5.396
432, 1.88201, 359.628, 162.655, 0, -0.00195312, -0.000976562, 0.0976562, 0.304688, -9.75488, 1.25.2022 18:20:5.404
433, 1.88201, 359.628, 162.655, -0.000976562, -0.000976562, -0.000976562, 0.0244141, 0.324219, -9.74414, 1.25.2022 18:20:5.412
434, 1.88201, 359.628, 162.655, 0, 0.000976562, -0.000976562, 0.0771484, 0.318359, -9.70508, 1.25.2022 18:20:5.420
435, 1.88201, 359.628, 162.655, -0.000976562, 0, -0.000976562, 0.0585938, 0.322266, -9.69043, 1.25.2022 18:20:5.428
436, 1.88201, 359.628, 162.655, 0, 0, 0, 0.046875, 0.334961, -9.69434, 1.25.2022 18:20:5.436
437, 1.88201, 359.628, 162.655, 0, 0, 0, 0.124023, 0.328125, -9.73633, 1.25.2022 18:20:5.444
438, 1.88201, 359.628, 162.655, -0.000976562, -0.000976562, -0.000976562, 0.0214844, 0.34375, -9.74805, 1.25.2022 18:20:5.452
439, 1.88201, 359.628, 162.655, 0, 0, -0.000976562, 0.0644531, 0.342773, -9.73926, 1.25.2022 18:20:5.460
440, 1.88892, 359.627, 162.655, 0, 0, -0.000976562, 0.0810547, 0.323242, -9.7334, 1.25.2022 18:20:5.468
441, 1.88892, 359.627, 162.655, -0.000976562, -0.000976562, -0.000976562, 0.0292969, 0.337891, -9.72949, 1.25.2022 18:20:5.476
442, 1.88892, 359.627, 162.655, -0.000976562, -0.000976562, 0, 0.120117, 0.323242, -9.7168, 1.25.2022 18:20:5.484
443, 1.88892, 359.627, 162.655, -0.000976562, 0, 0, 0.0644531, 0.318359, -9.72852, 1.25.2022 18:20:5.492
444, 1.88892, 359.627, 162.655, -0.000976562, 0, -0.000976562, 0.0371094, 0.320312, -9.7041, 1.25.2022 18:20:5.500
445, 1.89583, 359.626, 162.655, -0.000976562, 0, 0, 0.103516, 0.289062, -9.71289, 1.25.2022 18:20:5.508
446, 1.89583, 359.626, 162.655, 0, 0, -0.000976562, 0.0292969, 0.344727, -9.70605, 1.25.2022 18:20:5.516
447, 1.89583, 359.626, 162.655, 0, -0.000976562, 0, 0.0839844, 0.311523, -9.73145, 1.25.2022 18:20:5.524
448, 1.89583, 359.626, 162.655, 0, -0.000976562, 0, 0.101562, 0.300781, -9.70117, 1.25.2022 18:20:5.532
449, 1.89583, 359.626, 162.655, -0.000976562, 0, 0, 0.0126953, 0.325195, -9.71289, 1.25.2022 18:20:5.540
450, 1.89477, 359.619, 162.655, 0, 0, -0.000976562, 0.112305, 0.296875, -9.73438, 1.25.2022 18:20:5.548
451, 1.89477, 359.619, 162.655, 0, 0, -0.000976562, 0.0673828, 0.326172, -9.73242, 1.25.2022 18:20:5.556
452, 1.89477, 359.619, 162.655, 0, 0, -0.000976562, 0.0625, 0.331055, -9.75098, 1.25.2022 18:20:5.564
453, 1.89477, 359.619, 162.655, 0, 0, -0.000976562, 0.110352, 0.316406, -9.71973, 1.25.2022 18:20:5.572
454, 1.89477, 359.619, 162.655, -0.000976562, 0, 0, 0.0146484, 0.324219, -9.74414, 1.25.2022 18:20:5.580
455, 1.89477, 359.619, 162.655, 0, -0.000976562, 0, 0.0576172, 0.334961, -9.72754, 1.25.2022 18:20:5.588
456, 1.89477, 359.619, 162.655, 0, 0, 0, 0.09375, 0.314453, -9.73535, 1.25.2022 18:20:5.596
457, 1.89372, 359.612, 162.656, 0.000976562, -0.000976562, -0.000976562, 0.0292969, 0.333008, -9.71973, 1.25.2022 18:20:5.604
458, 1.89372, 359.612, 162.656, 0, 0, -0.000976562, 0.120117, 0.306641, -9.73145, 1.25.2022 18:20:5.612
459, 1.89372, 359.612, 162.656, -0.000976562, 0, 0, 0.0341797, 0.316406, -9.71582, 1.25.2022 18:20:5.620
460, 1.89372, 359.612, 162.656, 0, 0, 0, 0.0605469, 0.318359, -9.71875, 1.25.2022 18:20:5.628
461, 1.89372, 359.612, 162.656, 0, 0, -0.000976562, 0.108398, 0.31543, -9.69629, 1.25.2022 18:20:5.636
462, 1.89372, 359.612, 162.656, 0, 0, 0, 0.00488281, 0.339844, -9.72461, 1.25.2022 18:20:5.644
463, 1.89372, 359.612, 162.656, -0.000976562, -0.000976562, 0, 0.0478516, 0.30957, -9.73242, 1.25.2022 18:20:5.652
464, 1.89372, 359.612, 162.656, -0.000976562, -0.000976562, -0.000976562, 0.0742188, 0.334961, -9.72559, 1.25.2022 18:20:5.660
465, 1.89372, 359.612, 162.656, 0, 0, -0.000976562, 0.0429688, 0.319336, -9.73926, 1.25.2022 18:20:5.668
466, 1.89372, 359.612, 162.656, 0, 0, -0.000976562, 0.115234, 0.303711, -9.72461, 1.25.2022 18:20:5.676
467, 1.89372, 359.612, 162.656, -0.000976562, 0, -0.000976562, 0.0478516, 0.321289, -9.72559, 1.25.2022 18:20:5.684
468, 1.89372, 359.612, 162.656, -0.000976562, 0, -0.000976562, 0.0488281, 0.318359, -9.71387, 1.25.2022 18:20:5.690
469, 1.89372, 359.612, 162.656, 0, -0.000976562, 0, 0.112305, 0.311523, -9.74805, 1.25.2022 18:20:5.698
470, 1.89372, 359.612, 162.656, 0, 0, 0, 0.00976562, 0.326172, -9.73633, 1.25.2022 18:20:5.706
471, 1.89372, 359.612, 162.656, 0, 0, 0, 0.0839844, 0.328125, -9.7207, 1.25.2022 18:20:5.714
472, 1.89372, 359.612, 162.656, -0.00195312, -0.000976562, 0, 0.0693359, 0.30957, -9.75488, 1.25.2022 18:20:5.722
473, 1.89372, 359.612, 162.656, -0.00195312, -0.000976562, 0, 0.0322266, 0.333008, -9.71582, 1.25.2022 18:20:5.730
474, 1.89372, 359.612, 162.656, 0, -0.000976562, 0, 0.126953, 0.299805, -9.74414, 1.25.2022 18:20:5.738
475, 1.89372, 359.612, 162.656, 0, -0.000976562, 0, 0.0078125, 0.321289, -9.72754, 1.25.2022 18:20:5.746
476, 1.89372, 359.612, 162.656, -0.000976562, -0.000976562, 0, 0.0742188, 0.332031, -9.76562, 1.25.2022 18:20:5.754
477, 1.89372, 359.612, 162.656, -0.000976562, 0, 0, 0.117188, 0.321289, -9.74316, 1.25.2022 18:20:5.762
478, 1.89372, 359.612, 162.656, 0, -0.000976562, -0.000976562, 0.0175781, 0.342773, -9.73633, 1.25.2022 18:20:5.770
479, 1.89372, 359.612, 162.656, 0, 0, 0, 0.112305, 0.303711, -9.71484, 1.25.2022 18:20:5.778
480, 1.89372, 359.612, 162.656, 0, 0, -0.000976562, 0.0625, 0.30957, -9.74707, 1.25.2022 18:20:5.786
481, 1.89372, 359.612, 162.656, -0.000976562, 0, -0.000976562, 0.0390625, 0.328125, -9.71289, 1.25.2022 18:20:5.794
482, 1.89372, 359.612, 162.656, 0, 0, 0, 0.102539, 0.321289, -9.74805, 1.25.2022 18:20:5.802
483, 1.89372, 359.612, 162.656, 0, 0, 0, 0.0341797, 0.305664, -9.70215, 1.25.2022 18:20:5.810
484, 1.89372, 359.612, 162.656, 0, 0, 0, 0.0488281, 0.298828, -9.71191, 1.25.2022 18:20:5.818
485, 1.89372, 359.612, 162.656, -0.000976562, 0, 0, 0.0771484, 0.295898, -9.69141, 1.25.2022 18:20:5.826
486, 1.89372, 359.612, 162.656, -0.000976562, 0, 0, 0.0078125, 0.323242, -9.72754, 1.25.2022 18:20:5.834
487, 1.88681, 359.613, 162.656, 0, 0, 0, 0.0888672, 0.308594, -9.70508, 1.25.2022 18:20:5.842
488, 1.88681, 359.613, 162.656, -0.000976562, 0, 0, 0.0927734, 0.297852, -9.76953, 1.25.2022 18:20:5.850
489, 1.88681, 359.613, 162.656, 0, 0, -0.000976562, 0.0595703, 0.326172, -9.73926, 1.25.2022 18:20:5.858
490, 1.88681, 359.613, 162.656, 0, 0, -0.000976562, 0.126953, 0.300781, -9.7041, 1.25.2022 18:20:5.866
491, 1.88681, 359.613, 162.656, -0.000976562, 0, -0.000976562, 0.0263672, 0.324219, -9.74609, 1.25.2022 18:20:5.874
492, 1.88681, 359.613, 162.656, -0.000976562, 0.000976562, -0.000976562, 0.0693359, 0.339844, -9.7207, 1.25.2022 18:20:5.882
493, 1.88575, 359.606, 162.656, -0.000976562, 0, 0, 0.0654297, 0.301758, -9.70996, 1.25.2022 18:20:5.890
494, 1.88575, 359.606, 162.656, 0, 0, 0, 0.0263672, 0.328125, -9.73242, 1.25.2022 18:20:5.898
495, 1.88575, 359.606, 162.656, 0, 0, -0.000976562, 0.105469, 0.313477, -9.72461, 1.25.2022 18:20:5.906
496, 1.87884, 359.607, 162.656, 0, 0.000976562, 0, 0.0654297, 0.299805, -9.72168, 1.25.2022 18:20:5.914
497, 1.87884, 359.607, 162.656, 0, 0, -0.000976562, 0.0605469, 0.323242, -9.71387, 1.25.2022 18:20:5.922
498, 1.87884, 359.607, 162.656, 0, 0, -0.000976562, 0.138672, 0.294922, -9.72559, 1.25.2022 18:20:5.930
499, 1.87884, 359.607, 162.656, 0, -0.000976562, -0.000976562, 0.0195312, 0.333984, -9.75781, 1.25.2022 18:20:5.938
500, 1.87884, 359.607, 162.656, 0, 0, -0.000976562, 0.0576172, 0.351562, -9.71777, 1.25.2022 18:20:5.946
501, 1.87884, 359.607, 162.656, 0, 0, 0, 0.0722656, 0.298828, -9.69336, 1.25.2022 18:20:5.954
502, 1.87884, 359.607, 162.656, -0.000976562, 0, 0, 0.0263672, 0.314453, -9.7373, 1.25.2022 18:20:5.962
503, 1.87884, 359.607, 162.656, 0, 0, -0.000976562, 0.108398, 0.305664, -9.69629, 1.25.2022 18:20:5.970
504, 1.87884, 359.607, 162.656, 0, 0.000976562, -0.000976562, 0.0361328, 0.324219, -9.75391, 1.25.2022 18:20:5.978
505, 1.87884, 359.607, 162.656, -0.000976562, 0, -0.000976562, 0.0595703, 0.347656, -9.74121, 1.25.2022 18:20:5.986
506, 1.87779, 359.6, 162.656, -0.00195312, 0, -0.000976562, 0.120117, 0.301758, -9.72461, 1.25.2022 18:20:5.994
507, 1.87779, 359.6, 162.656, -0.000976562, 0, -0.000976562, 0.0341797, 0.347656, -9.72168, 1.25.2022 18:20:6.002
508, 1.87779, 359.6, 162.656, 0, 0, -0.000976562, 0.0820312, 0.34668, -9.69434, 1.25.2022 18:20:6.010
509, 1.87779, 359.6, 162.656, -0.000976562, 0, 0, 0.103516, 0.328125, -9.72656, 1.25.2022 18:20:6.018
510, 1.8847, 359.599, 162.656, -0.000976562, 0, -0.000976562, 0.0361328, 0.323242, -9.71094, 1.25.2022 18:20:6.026
511, 1.8847, 359.599, 162.656, -0.000976562, 0, -0.000976562, 0.107422, 0.311523, -9.74316, 1.25.2022 18:20:6.034
512, 1.8847, 359.599, 162.656, -0.000976562, -0.000976562, -0.000976562, 0.0791016, 0.325195, -9.71387, 1.25.2022 18:20:6.042
513, 1.8847, 359.599, 162.656, 0, -0.000976562, -0.000976562, 0.0585938, 0.324219, -9.68066, 1.25.2022 18:20:6.050
514, 1.8847, 359.599, 162.656, 0, -0.000976562, -0.000976562, 0.108398, 0.313477, -9.70996, 1.25.2022 18:20:6.058
515, 1.8847, 359.599, 162.656, 0, 0.000976562, 0, 0.0292969, 0.361328, -9.72363, 1.25.2022 18:20:6.066
516, 1.89055, 359.591, 162.656, -0.000976562, 0.000976562, 0, 0.0703125, 0.318359, -9.71387, 1.25.2022 18:20:6.074
517, 1.89055, 359.591, 162.656, -0.000976562, 0, 0, 0.0458984, 0.291016, -9.74707, 1.25.2022 18:20:6.082
518, 1.89161, 359.598, 162.656, 0, 0, -0.000976562, 0.00976562, 0.326172, -9.73438, 1.25.2022 18:20:6.090
519, 1.89161, 359.598, 162.656, 0, 0, -0.000976562, 0.0917969, 0.310547, -9.68359, 1.25.2022 18:20:6.098
520, 1.89161, 359.598, 162.656, -0.000976562, 0, -0.000976562, 0.0507812, 0.313477, -9.70215, 1.25.2022 18:20:6.106
521, 1.89161, 359.598, 162.656, 0, 0, -0.000976562, 0.0673828, 0.333008, -9.72559, 1.25.2022 18:20:6.114
522, 1.89161, 359.598, 162.656, -0.000976562, 0.000976562, 0, 0.104492, 0.28125, -9.75098, 1.25.2022 18:20:6.122
523, 1.89161, 359.598, 162.656, -0.000976562, 0, -0.000976562, 0.0263672, 0.326172, -9.72461, 1.25.2022 18:20:6.130
524, 1.89161, 359.598, 162.656, 0, 0, -0.000976562, 0.0986328, 0.298828, -9.72168, 1.25.2022 18:20:6.138
525, 1.89161, 359.598, 162.656, 0, -0.000976562, -0.000976562, 0.0703125, 0.3125, -9.68359, 1.25.2022 18:20:6.146
526, 1.89161, 359.598, 162.656, -0.000976562, 0, -0.000976562, 0.0322266, 0.318359, -9.69922, 1.25.2022 18:20:6.154
527, 1.89161, 359.598, 162.656, -0.000976562, -0.000976562, -0.000976562, 0.120117, 0.308594, -9.72266, 1.25.2022 18:20:6.162
528, 1.8847, 359.599, 162.656, 0, -0.000976562, 0, 0.03125, 0.321289, -9.74414, 1.25.2022 18:20:6.170
529, 1.8847, 359.599, 162.656, 0, -0.000976562, 0, 0.0351562, 0.330078, -9.77734, 1.25.2022 18:20:6.178
530, 1.8847, 359.599, 162.656, 0, 0, -0.000976562, 0.0839844, 0.291992, -9.70996, 1.25.2022 18:20:6.186
531, 1.8847, 359.599, 162.656, 0, -0.000976562, -0.000976562, 0.0292969, 0.316406, -9.74414, 1.25.2022 18:20:6.194
532, 1.8847, 359.599, 162.656, 0, 0, -0.000976562, 0.0791016, 0.319336, -9.74023, 1.25.2022 18:20:6.202
533, 1.8847, 359.599, 162.656, -0.000976562, 0, -0.000976562, 0.0390625, 0.318359, -9.70898, 1.25.2022 18:20:6.210
534, 1.88575, 359.606, 162.656, -0.000976562, -0.000976562, 0, 0.0253906, 0.319336, -9.67578, 1.25.2022 18:20:6.218
535, 1.87884, 359.607, 162.656, 0, -0.000976562, 0, 0.100586, 0.306641, -9.72656, 1.25.2022 18:20:6.226
536, 1.87884, 359.607, 162.656, 0, 0, 0, 0.03125, 0.337891, -9.73633, 1.25.2022 18:20:6.234
537, 1.87884, 359.607, 162.656, 0, -0.000976562, -0.000976562, 0.0458984, 0.307617, -9.74512, 1.25.2022 18:20:6.242
538, 1.8799, 359.614, 162.655, -0.000976562, 0, 0, 0.0654297, 0.295898, -9.69824, 1.25.2022 18:20:6.250
539, 1.8799, 359.614, 162.655, -0.000976562, 0, -0.000976562, 0.0078125, 0.345703, -9.7334, 1.25.2022 18:20:6.258
540, 1.8799, 359.614, 162.655, 0, 0, 0, 0.0859375, 0.307617, -9.74805, 1.25.2022 18:20:6.266
541, 1.88095, 359.621, 162.655, 0, -0.000976562, -0.000976562, 0.0361328, 0.324219, -9.76074, 1.25.2022 18:20:6.274
542, 1.88095, 359.621, 162.655, 0, 0, 0, 0.0576172, 0.323242, -9.72559, 1.25.2022 18:20:6.282
543, 1.87404, 359.622, 162.655, 0.000976562, 0, -0.000976562, 0.115234, 0.296875, -9.72754, 1.25.2022 18:20:6.290
544, 1.87404, 359.622, 162.655, 0, 0, -0.000976562, 0.0263672, 0.352539, -9.73145, 1.25.2022 18:20:6.298
545, 1.87404, 359.622, 162.655, 0, 0, -0.000976562, 0.0576172, 0.323242, -9.71387, 1.25.2022 18:20:6.306
546, 1.8751, 359.629, 162.655, -0.000976562, 0.000976562, -0.000976562, 0.0644531, 0.304688, -9.72852, 1.25.2022 18:20:6.314
547, 1.8751, 359.629, 162.655, 0, 0, -0.000976562, -0.0107422, 0.351562, -9.70508, 1.25.2022 18:20:6.322
548, 1.8751, 359.629, 162.655, -0.000976562, 0, -0.000976562, 0.117188, 0.297852, -9.75586, 1.25.2022 18:20:6.330
549, 1.8751, 359.629, 162.655, -0.00195312, 0, -0.000976562, 0.0585938, 0.322266, -9.69727, 1.25.2022 18:20:6.338
550, 1.88201, 359.628, 162.655, -0.00195312, 0, 0, 0.0429688, 0.326172, -9.74414, 1.25.2022 18:20:6.346
551, 1.88201, 359.628, 162.655, -0.000976562, 0, -0.000976562, 0.12207, 0.294922, -9.75293, 1.25.2022 18:20:6.354
552, 1.88306, 359.635, 162.655, -0.000976562, 0, -0.000976562, 0.0107422, 0.338867, -9.68457, 1.25.2022 18:20:6.362
553, 1.88306, 359.635, 162.655, 0, 0, -0.000976562, 0.0742188, 0.301758, -9.72168, 1.25.2022 18:20:6.370
554, 1.88306, 359.635, 162.655, 0, 0, -0.000976562, 0.0693359, 0.3125, -9.75195, 1.25.2022 18:20:6.378
555, 1.88313, 359.635, 162.662, -0.000976562, -0.000976562, -0.000976562, 0.0371094, 0.332031, -9.68262, 1.25.2022 18:20:6.386
556, 1.88313, 359.635, 162.662, -0.000976562, -0.000976562, -0.000976562, 0.103516, 0.308594, -9.69824, 1.25.2022 18:20:6.394
557, 1.88313, 359.635, 162.662, -0.000976562, 0, -0.000976562, 0.0537109, 0.303711, -9.69531, 1.25.2022 18:20:6.402
558, 1.88313, 359.635, 162.662, 0, 0, -0.000976562, 0.0410156, 0.301758, -9.71191, 1.25.2022 18:20:6.410
559, 1.87622, 359.636, 162.662, 0, 0, -0.000976562, 0.102539, 0.307617, -9.75, 1.25.2022 18:20:6.418
560, 1.87622, 359.636, 162.662, 0, 0, 0, 0.00976562, 0.347656, -9.72363, 1.25.2022 18:20:6.426
561, 1.87622, 359.636, 162.662, 0, 0, -0.000976562, 0.0722656, 0.325195, -9.7002, 1.25.2022 18:20:6.434
562, 1.87622, 359.636, 162.662, -0.000976562, -0.000976562, -0.000976562, 0.0625, 0.313477, -9.72559, 1.25.2022 18:20:6.442
563, 1.87622, 359.636, 162.662, -0.00195312, 0, -0.000976562, 0.0322266, 0.332031, -9.6875, 1.25.2022 18:20:6.450
564, 1.87622, 359.636, 162.662, -0.000976562, 0, -0.000976562, 0.115234, 0.280273, -9.73438, 1.25.2022 18:20:6.458
565, 1.87622, 359.636, 162.662, 0, -0.000976562, 0, 0.0195312, 0.304688, -9.7207, 1.25.2022 18:20:6.466
566, 1.87622, 359.636, 162.662, -0.000976562, -0.000976562, 0, 0.0537109, 0.319336, -9.66211, 1.25.2022 18:20:6.474
567, 1.87615, 359.636, 162.655, 0, 0, 0, 0.0917969, 0.303711, -9.70996, 1.25.2022 18:20:6.482
568, 1.87615, 359.636, 162.655, 0, -0.000976562, 0, 0.0146484, 0.348633, -9.76172, 1.25.2022 18:20:6.490
569, 1.87615, 359.636, 162.655, -0.000976562, 0, -0.000976562, 0.0791016, 0.333008, -9.7373, 1.25.2022 18:20:6.498
570, 1.87615, 359.636, 162.655, 0, 0, -0.000976562, 0.0771484, 0.311523, -9.71875, 1.25.2022 18:20:6.506
571, 1.87721, 359.643, 162.655, 0, -0.000976562, 0, 0.0078125, 0.318359, -9.70605, 1.25.2022 18:20:6.514
572, 1.87721, 359.643, 162.655, -0.000976562, -0.000976562, 0, 0.115234, 0.287109, -9.72754, 1.25.2022 18:20:6.522
573, 1.87721, 359.643, 162.655, -0.000976562, -0.000976562, 0, 0.0537109, 0.334961, -9.71289, 1.25.2022 18:20:6.530
574, 1.87721, 359.643, 162.655, 0, 0, -0.000976562, 0.0390625, 0.357422, -9.73145, 1.25.2022 18:20:6.538
575, 1.87721, 359.643, 162.655, 0, 0.000976562, -0.000976562, 0.0976562, 0.326172, -9.74512, 1.25.2022 18:20:6.546
576, 1.87721, 359.643, 162.655, 0, 0, 0, 0.0195312, 0.331055, -9.72266, 1.25.2022 18:20:6.554
577, 1.87721, 359.643, 162.655, 0, -0.000976562, 0, 0.0888672, 0.321289, -9.7334, 1.25.2022 18:20:6.562
578, 1.88411, 359.642, 162.655, -0.000976562, -0.000976562, -0.000976562, 0.0644531, 0.321289, -9.74707, 1.25.2022 18:20:6.570
579, 1.88411, 359.642, 162.655, -0.000976562, -0.000976562, -0.000976562, 0.03125, 0.316406, -9.72559, 1.25.2022 18:20:6.578
580, 1.88411, 359.642, 162.655, 0, 0, -0.000976562, 0.105469, 0.30957, -9.73828, 1.25.2022 18:20:6.586
581, 1.88411, 359.642, 162.655, 0, 0, -0.000976562, 0.03125, 0.331055, -9.75293, 1.25.2022 18:20:6.594
582, 1.88411, 359.642, 162.655, 0, 0, -0.000976562, 0.0546875, 0.350586, -9.75098, 1.25.2022 18:20:6.602
583, 1.88411, 359.642, 162.655, -0.000976562, 0.000976562, -0.000976562, 0.09375, 0.306641, -9.73633, 1.25.2022 18:20:6.610
584, 1.88411, 359.642, 162.655, -0.000976562, 0, 0, 0.0175781, 0.351562, -9.69824, 1.25.2022 18:20:6.618
585, 1.89102, 359.641, 162.655, -0.000976562, -0.000976562, -0.000976562, 0.0859375, 0.326172, -9.72852, 1.25.2022 18:20:6.626
586, 1.89102, 359.641, 162.655, -0.000976562, 0, -0.000976562, 0.0791016, 0.316406, -9.7168, 1.25.2022 18:20:6.634
587, 1.89102, 359.641, 162.655, -0.000976562, -0.000976562, -0.000976562, 0.0507812, 0.347656, -9.72461, 1.25.2022 18:20:6.642
588, 1.89102, 359.641, 162.655, 0, -0.000976562, -0.000976562, 0.115234, 0.308594, -9.70605, 1.25.2022 18:20:6.648
589, 1.89102, 359.641, 162.655, 0, -0.000976562, -0.000976562, 0.0322266, 0.308594, -9.69238, 1.25.2022 18:20:6.656
590, 1.89102, 359.641, 162.655, -0.000976562, -0.000976562, -0.000976562, 0.0488281, 0.320312, -9.70215, 1.25.2022 18:20:6.664
591, 1.89793, 359.64, 162.655, -0.000976562, 0, 0, 0.0917969, 0.293945, -9.69336, 1.25.2022 18:20:6.672
592, 1.89688, 359.633, 162.655, -0.000976562, 0, -0.000976562, 0.0322266, 0.333008, -9.71582, 1.25.2022 18:20:6.680
593, 1.89688, 359.633, 162.655, -0.000976562, -0.000976562, -0.000976562, 0.0908203, 0.316406, -9.73535, 1.25.2022 18:20:6.690
594, 1.89688, 359.633, 162.655, -0.000976562, -0.000976562, 0, 0.0527344, 0.307617, -9.75, 1.25.2022 18:20:6.696
595, 1.89688, 359.633, 162.655, -0.000976562, -0.000976562, 0, 0.0332031, 0.332031, -9.75781, 1.25.2022 18:20:6.704
596, 1.89688, 359.633, 162.655, -0.000976562, -0.000976562, 0, 0.105469, 0.297852, -9.74805, 1.25.2022 18:20:6.712
597, 1.89688, 359.633, 162.655, -0.000976562, -0.000976562, 0, 0.00488281, 0.326172, -9.72656, 1.25.2022 18:20:6.720
598, 1.89688, 359.633, 162.655, 0, 0, -0.000976562, 0.0507812, 0.328125, -9.73242, 1.25.2022 18:20:6.728
599, 1.89688, 359.633, 162.655, 0, 0, -0.000976562, 0.0820312, 0.298828, -9.7168, 1.25.2022 18:20:6.736
600, 1.89688, 359.633, 162.655, 0, 0.000976562, -0.000976562, 0.0283203, 0.336914, -9.77441, 1.25.2022 18:20:6.744
601, 1.88997, 359.634, 162.655, 0, 0.000976562, -0.00195312, 0.113281, 0.313477, -9.70996, 1.25.2022 18:20:6.752
602, 1.88997, 359.634, 162.655, 0, 0, -0.00195312, 0.0546875, 0.306641, -9.74023, 1.25.2022 18:20:6.760
603, 1.88997, 359.634, 162.655, -0.000976562, 0, -0.000976562, 0.0429688, 0.319336, -9.7373, 1.25.2022 18:20:6.768
604, 1.88997, 359.634, 162.655, 0, 0, -0.000976562, 0.120117, 0.304688, -9.73145, 1.25.2022 18:20:6.776
605, 1.89004, 359.634, 162.662, 0, -0.000976562, -0.000976562, 0.0166016, 0.329102, -9.75586, 1.25.2022 18:20:6.784
606, 1.89004, 359.634, 162.662, 0, 0, 0, 0.0576172, 0.34082, -9.74121, 1.25.2022 18:20:6.792
607, 1.88997, 359.634, 162.655, -0.000976562, 0, 0, 0.09375, 0.326172, -9.72559, 1.25.2022 18:20:6.800
608, 1.88997, 359.634, 162.655, 0, 0, 0, 0.0175781, 0.311523, -9.71387, 1.25.2022 18:20:6.808
609, 1.88997, 359.634, 162.655, 0, 0, 0, 0.105469, 0.287109, -9.70117, 1.25.2022 18:20:6.816
610, 1.88997, 359.634, 162.655, -0.000976562, 0, -0.000976562, 0.0556641, 0.323242, -9.70703, 1.25.2022 18:20:6.824
611, 1.88997, 359.634, 162.655, -0.000976562, 0, 0, 0.0195312, 0.328125, -9.71777, 1.25.2022 18:20:6.832
612, 1.88892, 359.627, 162.655, -0.000976562, 0, 0, 0.105469, 0.302734, -9.74121, 1.25.2022 18:20:6.840
613, 1.88892, 359.627, 162.655, 0, -0.000976562, -0.000976562, 0.0458984, 0.334961, -9.7207, 1.25.2022 18:20:6.848
614, 1.88892, 359.627, 162.655, 0, 0.000976562, -0.000976562, 0.0771484, 0.348633, -9.70117, 1.25.2022 18:20:6.856
615, 1.88892, 359.627, 162.655, -0.000976562, -0.000976562, -0.000976562, 0.0791016, 0.303711, -9.71484, 1.25.2022 18:20:6.864
616, 1.88892, 359.627, 162.655, -0.000976562, 0, -0.000976562, 0.03125, 0.337891, -9.73438, 1.25.2022 18:20:6.872
617, 1.88892, 359.627, 162.655, -0.000976562, 0, 0, 0.103516, 0.296875, -9.71289, 1.25.2022 18:20:6.880
618, 1.88892, 359.627, 162.655, -0.000976562, 0, -0.000976562, 0.0488281, 0.336914, -9.70605, 1.25.2022 18:20:6.888
619, 1.88892, 359.627, 162.655, -0.000976562, 0, -0.000976562, 0.0429688, 0.357422, -9.73145, 1.25.2022 18:20:6.896
620, 1.88892, 359.627, 162.655, 0, 0, 0, 0.126953, 0.303711, -9.72754, 1.25.2022 18:20:6.904
621, 1.88892, 359.627, 162.655, 0, 0.000976562, 0, 0.0429688, 0.337891, -9.73438, 1.25.2022 18:20:6.912
622, 1.88786, 359.62, 162.655, 0, 0, -0.000976562, 0.0654297, 0.336914, -9.70605, 1.25.2022 18:20:6.920
623, 1.89477, 359.619, 162.655, -0.000976562, 0, -0.000976562, 0.0556641, 0.30957, -9.72559, 1.25.2022 18:20:6.928
624, 1.89477, 359.619, 162.655, -0.000976562, 0, -0.000976562, 0.015625, 0.303711, -9.70215, 1.25.2022 18:20:6.936
625, 1.89477, 359.619, 162.655, -0.000976562, 0, -0.000976562, 0.0908203, 0.290039, -9.71777, 1.25.2022 18:20:6.944
626, 1.89477, 359.619, 162.655, -0.000976562, -0.000976562, -0.000976562, 0.0371094, 0.310547, -9.70215, 1.25.2022 18:20:6.952
627, 1.89583, 359.626, 162.655, -0.000976562, -0.00195312, 0, 0.03125, 0.337891, -9.74316, 1.25.2022 18:20:6.960
628, 1.89583, 359.626, 162.655, -0.000976562, 0, -0.000976562, 0.09375, 0.330078, -9.72363, 1.25.2022 18:20:6.968
629, 1.89583, 359.626, 162.655, -0.000976562, 0, -0.000976562, 0.0078125, 0.354492, -9.71191, 1.25.2022 18:20:6.976
630, 1.89583, 359.626, 162.655, -0.000976562, 0, -0.000976562, 0.078125, 0.317383, -9.67188, 1.25.2022 18:20:6.984
631, 1.89583, 359.626, 162.655, 0, 0, -0.000976562, 0.0771484, 0.332031, -9.69531, 1.25.2022 18:20:6.992
632, 1.89583, 359.626, 162.655, -0.000976562, -0.000976562, -0.000976562, 0.0205078, 0.327148, -9.67285, 1.25.2022 18:20:7.000
633, 1.89688, 359.633, 162.655, 0, 0, -0.000976562, 0.0908203, 0.335938, -9.73242, 1.25.2022 18:20:7.008
634, 1.89688, 359.633, 162.655, -0.000976562, 0, 0, 0.0439453, 0.338867, -9.69629, 1.25.2022 18:20:7.016
635, 1.90379, 359.632, 162.655, 0, -0.00195312, 0, 0.0361328, 0.349609, -9.72168, 1.25.2022 18:20:7.024
636, 1.90379, 359.632, 162.655, -0.000976562, -0.000976562, -0.000976562, 0.107422, 0.30957, -9.7334, 1.25.2022 18:20:7.032
637, 1.90379, 359.632, 162.655, 0, 0, 0, 0.00683594, 0.327148, -9.75293, 1.25.2022 18:20:7.040
638, 1.90379, 359.632, 162.655, -0.000976562, 0, -0.000976562, 0.0957031, 0.303711, -9.71973, 1.25.2022 18:20:7.048
639, 1.90379, 359.632, 162.655, -0.000976562, 0, -0.000976562, 0.0917969, 0.313477, -9.70703, 1.25.2022 18:20:7.056
640, 1.90379, 359.632, 162.655, 0, 0, 0, 0.0341797, 0.328125, -9.70898, 1.25.2022 18:20:7.064
641, 1.90379, 359.632, 162.655, 0, 0, -0.000976562, 0.107422, 0.291992, -9.72266, 1.25.2022 18:20:7.072
642, 1.90379, 359.632, 162.655, -0.000976562, 0, -0.000976562, 0.0576172, 0.311523, -9.7168, 1.25.2022 18:20:7.080
643, 1.90379, 359.632, 162.655, -0.000976562, 0, -0.000976562, 0.0810547, 0.322266, -9.76172, 1.25.2022 18:20:7.088
644, 1.90379, 359.632, 162.655, 0, -0.00195312, 0, 0.0839844, 0.301758, -9.70996, 1.25.2022 18:20:7.096
645, 1.90379, 359.632, 162.655, -0.000976562, 0, 0, 0.0390625, 0.336914, -9.71094, 1.25.2022 18:20:7.104
646, 1.90379, 359.632, 162.655, -0.00195312, 0, 0, 0.09375, 0.318359, -9.71875, 1.25.2022 18:20:7.112
647, 1.90274, 359.625, 162.655, -0.000976562, -0.000976562, -0.000976562, 0.0791016, 0.301758, -9.71973, 1.25.2022 18:20:7.120
648, 1.90274, 359.625, 162.655, 0, -0.000976562, -0.000976562, 0.03125, 0.344727, -9.72461, 1.25.2022 18:20:7.128
649, 1.90274, 359.625, 162.655, -0.000976562, 0, -0.000976562, 0.0888672, 0.303711, -9.70801, 1.25.2022 18:20:7.136
650, 1.90274, 359.625, 162.655, -0.000976562, 0, 0, 0.0449219, 0.320312, -9.77539, 1.25.2022 18:20:7.144
651, 1.90274, 359.625, 162.655, -0.000976562, -0.000976562, -0.000976562, 0.0400391, 0.336914, -9.76074, 1.25.2022 18:20:7.152
652, 1.90274, 359.625, 162.655, -0.000976562, -0.000976562, -0.000976562, 0.0869141, 0.306641, -9.70996, 1.25.2022 18:20:7.160
653, 1.90274, 359.625, 162.655, 0, 0, -0.000976562, -0.00585938, 0.342773, -9.71191, 1.25.2022 18:20:7.168
654, 1.90274, 359.625, 162.655, 0, -0.00195312, 0, 0.0859375, 0.324219, -9.74219, 1.25.2022 18:20:7.176
655, 1.90274, 359.625, 162.655, 0, 0, -0.000976562, 0.0478516, 0.348633, -9.76758, 1.25.2022 18:20:7.184
656, 1.90274, 359.625, 162.655, 0, 0, -0.000976562, 0.0576172, 0.334961, -9.71582, 1.25.2022 18:20:7.192
657, 1.90274, 359.625, 162.655, -0.000976562, 0, 0, 0.131836, 0.300781, -9.69629, 1.25.2022 18:20:7.200
658, 1.90274, 359.625, 162.655, -0.000976562, 0, 0, 0.0136719, 0.333984, -9.67969, 1.25.2022 18:20:7.208
659, 1.90274, 359.625, 162.655, 0, 0, -0.000976562, 0.0742188, 0.305664, -9.75684, 1.25.2022 18:20:7.216
660, 1.90274, 359.625, 162.655, 0, 0, -0.000976562, 0.0742188, 0.302734, -9.75, 1.25.2022 18:20:7.224
661, 1.90274, 359.625, 162.655, 0, 0, -0.000976562, 0.0244141, 0.34082, -9.72949, 1.25.2022 18:20:7.232
662, 1.90274, 359.625, 162.655, 0, 0, -0.000976562, 0.110352, 0.305664, -9.70996, 1.25.2022 18:20:7.240
663, 1.90274, 359.625, 162.655, -0.000976562, 0, -0.000976562, 0.0771484, 0.339844, -9.70898, 1.25.2022 18:20:7.248
664, 1.90274, 359.625, 162.655, -0.000976562, 0, -0.000976562, 0.0595703, 0.331055, -9.75391, 1.25.2022 18:20:7.256
665, 1.90281, 359.625, 162.663, 0, 0, -0.00195312, 0.0898438, 0.317383, -9.68164, 1.25.2022 18:20:7.264
666, 1.90281, 359.625, 162.663, 0, 0.000976562, -0.000976562, 0.0322266, 0.336914, -9.69629, 1.25.2022 18:20:7.272
667, 1.90176, 359.618, 162.663, 0, 0.000976562, -0.000976562, 0.0810547, 0.306641, -9.7334, 1.25.2022 18:20:7.280
668, 1.90176, 359.618, 162.663, -0.000976562, 0, 0, 0.0976562, 0.311523, -9.74512, 1.25.2022 18:20:7.288
669, 1.90176, 359.618, 162.663, 0, -0.000976562, 0, 0.0419922, 0.350586, -9.68164, 1.25.2022 18:20:7.296
670, 1.90176, 359.618, 162.663, 0, 0, -0.000976562, 0.09375, 0.277344, -9.70801, 1.25.2022 18:20:7.304
671, 1.90176, 359.618, 162.663, -0.000976562, 0, 0, 0.0576172, 0.306641, -9.7168, 1.25.2022 18:20:7.312
672, 1.90168, 359.618, 162.655, 0, 0, 0, 0.0654297, 0.334961, -9.69727, 1.25.2022 18:20:7.320
673, 1.90063, 359.611, 162.656, -0.000976562, 0, 0, 0.105469, 0.316406, -9.72656, 1.25.2022 18:20:7.328
674, 1.90063, 359.611, 162.656, 0, 0, 0, 0.0390625, 0.335938, -9.72754, 1.25.2022 18:20:7.336
675, 1.90063, 359.611, 162.656, 0, 0, -0.000976562, 0.0898438, 0.360352, -9.68262, 1.25.2022 18:20:7.344
676, 1.90063, 359.611, 162.656, -0.000976562, 0, 0, 0.0810547, 0.311523, -9.7334, 1.25.2022 18:20:7.352
677, 1.90063, 359.611, 162.656, 0, 0, -0.000976562, 0.00488281, 0.349609, -9.7334, 1.25.2022 18:20:7.360
678, 1.90063, 359.611, 162.656, 0, 0, -0.000976562, 0.100586, 0.318359, -9.72852, 1.25.2022 18:20:7.368
679, 1.89957, 359.604, 162.656, 0, 0, -0.000976562, 0.0507812, 0.330078, -9.71387, 1.25.2022 18:20:7.376
680, 1.90648, 359.603, 162.656, -0.000976562, 0, 0, 0.0556641, 0.332031, -9.68262, 1.25.2022 18:20:7.384
681, 1.90648, 359.603, 162.656, -0.000976562, 0, 0, 0.133789, 0.291992, -9.7207, 1.25.2022 18:20:7.392
682, 1.90648, 359.603, 162.656, -0.000976562, -0.000976562, -0.000976562, 0.0078125, 0.344727, -9.71191, 1.25.2022 18:20:7.400
683, 1.90648, 359.603, 162.656, -0.000976562, -0.000976562, -0.000976562, 0.117188, 0.331055, -9.73535, 1.25.2022 18:20:7.408
684, 1.90648, 359.603, 162.656, -0.000976562, 0, -0.000976562, 0.0820312, 0.336914, -9.69238, 1.25.2022 18:20:7.416
685, 1.90648, 359.603, 162.656, 0, 0, 0, 0.046875, 0.333984, -9.66406, 1.25.2022 18:20:7.424
686, 1.90648, 359.603, 162.656, 0, 0, -0.000976562, 0.100586, 0.296875, -9.71484, 1.25.2022 18:20:7.432
687, 1.90648, 359.603, 162.656, 0, 0, -0.000976562, 0.0107422, 0.320312, -9.71094, 1.25.2022 18:20:7.440
688, 1.90543, 359.596, 162.656, -0.000976562, 0.000976562, -0.000976562, 0.0527344, 0.318359, -9.72363, 1.25.2022 18:20:7.448
689, 1.90543, 359.596, 162.656, -0.000976562, 0, -0.000976562, 0.110352, 0.291016, -9.70117, 1.25.2022 18:20:7.456
690, 1.90543, 359.596, 162.656, -0.000976562, -0.000976562, 0, 0.0126953, 0.328125, -9.72949, 1.25.2022 18:20:7.464
691, 1.91234, 359.595, 162.656, -0.00195312, -0.000976562, 0, 0.0771484, 0.320312, -9.70898, 1.25.2022 18:20:7.472
692, 1.91234, 359.595, 162.656, -0.000976562, 0, -0.000976562, 0.0566406, 0.316406, -9.65918, 1.25.2022 18:20:7.480
693, 1.91339, 359.602, 162.656, -0.000976562, 0, -0.000976562, 0.0205078, 0.339844, -9.70312, 1.25.2022 18:20:7.488
694, 1.90648, 359.603, 162.656, 0.000976562, -0.000976562, 0, 0.116211, 0.305664, -9.68164, 1.25.2022 18:20:7.496
695, 1.90648, 359.603, 162.656, 0, 0, -0.000976562, 0.0126953, 0.296875, -9.7041, 1.25.2022 18:20:7.504
696, 1.90648, 359.603, 162.656, -0.000976562, 0, -0.000976562, 0.0566406, 0.329102, -9.6709, 1.25.2022 18:20:7.512
697, 1.90648, 359.603, 162.656, -0.00195312, 0, -0.000976562, 0.112305, 0.318359, -9.73633, 1.25.2022 18:20:7.520
698, 1.90648, 359.603, 162.656, -0.000976562, 0, -0.000976562, 0.0195312, 0.328125, -9.71777, 1.25.2022 18:20:7.528
699, 1.90648, 359.603, 162.656, -0.000976562, 0, -0.000976562, 0.0917969, 0.303711, -9.69629, 1.25.2022 18:20:7.536
700, 1.90648, 359.603, 162.656, -0.000976562, -0.00195312, -0.000976562, 0.0869141, 0.318359, -9.71875, 1.25.2022 18:20:7.544
701, 1.90648, 359.603, 162.656, -0.00195312, 0, -0.000976562, 0.0458984, 0.326172, -9.73047, 1.25.2022 18:20:7.552
702, 1.90648, 359.603, 162.656, -0.000976562, 0, -0.000976562, 0.115234, 0.311523, -9.73633, 1.25.2022 18:20:7.560
703, 1.90656, 359.603, 162.663, -0.000976562, -0.00195312, -0.000976562, 0.0244141, 0.320312, -9.71289, 1.25.2022 18:20:7.568
704, 1.90656, 359.603, 162.663, -0.000976562, -0.00195312, -0.000976562, 0.0556641, 0.323242, -9.71875, 1.25.2022 18:20:7.576
705, 1.90761, 359.61, 162.663, 0, -0.00195312, -0.000976562, 0.0888672, 0.320312, -9.70996, 1.25.2022 18:20:7.584
706, 1.90761, 359.61, 162.663, 0, 0, -0.000976562, 0.0107422, 0.332031, -9.70605, 1.25.2022 18:20:7.592
707, 1.90761, 359.61, 162.663, -0.000976562, 0.000976562, 0, 0.118164, 0.30957, -9.68164, 1.25.2022 18:20:7.598
708, 1.90761, 359.61, 162.663, -0.000976562, -0.00195312, 0, 0.0683594, 0.317383, -9.68555, 1.25.2022 18:20:7.606
709, 1.9007, 359.611, 162.663, -0.000976562, -0.00195312, -0.000976562, 0.0244141, 0.325195, -9.69922, 1.25.2022 18:20:7.614
710, 1.9007, 359.611, 162.663, 0, 0, -0.000976562, 0.0966797, 0.31543, -9.70312, 1.25.2022 18:20:7.622
711, 1.9007, 359.611, 162.663, -0.000976562, 0, -0.000976562, 0.0595703, 0.338867, -9.75098, 1.25.2022 18:20:7.630
712, 1.9007, 359.611, 162.663, -0.000976562, -0.00195312, -0.000976562, 0.0722656, 0.320312, -9.70215, 1.25.2022 18:20:7.638
713, 1.9007, 359.611, 162.663, -0.000976562, 0, -0.000976562, 0.0595703, 0.288086, -9.73633, 1.25.2022 18:20:7.646
714, 1.9007, 359.611, 162.663, -0.000976562, -0.000976562, 0, 0.0292969, 0.347656, -9.73145, 1.25.2022 18:20:7.654
715, 1.9007, 359.611, 162.663, 0, -0.000976562, 0, 0.120117, 0.307617, -9.68652, 1.25.2022 18:20:7.662
716, 1.90063, 359.611, 162.656, 0, -0.000976562, 0, 0.0605469, 0.298828, -9.7002, 1.25.2022 18:20:7.670
717, 1.90063, 359.611, 162.656, -0.000976562, 0, -0.000976562, 0.0234375, 0.319336, -9.75391, 1.25.2022 18:20:7.678
718, 1.90063, 359.611, 162.656, -0.000976562, -0.00195312, -0.000976562, 0.107422, 0.307617, -9.75977, 1.25.2022 18:20:7.686
719, 1.9007, 359.611, 162.663, -0.000976562, 0, -0.000976562, 0.03125, 0.328125, -9.71582, 1.25.2022 18:20:7.694
720, 1.9007, 359.611, 162.663, 0.000976562, -0.00195312, -0.000976562, 0.0595703, 0.322266, -9.75586, 1.25.2022 18:20:7.702
721, 1.9007, 359.611, 162.663, 0, -0.000976562, 0, 0.0771484, 0.342773, -9.73438, 1.25.2022 18:20:7.710
722, 1.9007, 359.611, 162.663, 0, 0, -0.000976562, 0.0126953, 0.352539, -9.73145, 1.25.2022 18:20:7.718
723, 1.9007, 359.611, 162.663, 0, 0, -0.000976562, 0.0791016, 0.321289, -9.75, 1.25.2022 18:20:7.726
724, 1.9007, 359.611, 162.663, -0.000976562, -0.000976562, -0.000976562, 0.0703125, 0.313477, -9.70703, 1.25.2022 18:20:7.734
725, 1.90176, 359.618, 162.663, 0, -0.000976562, -0.000976562, 0.0429688, 0.327148, -9.77246, 1.25.2022 18:20:7.742
726, 1.89485, 359.619, 162.663, 0, -0.000976562, -0.000976562, 0.105469, 0.293945, -9.70801, 1.25.2022 18:20:7.750
727, 1.89485, 359.619, 162.663, 0, -0.000976562, -0.000976562, 0.0253906, 0.332031, -9.69141, 1.25.2022 18:20:7.758
728, 1.89485, 359.619, 162.663, 0, 0, -0.000976562, 0.0742188, 0.334961, -9.71875, 1.25.2022 18:20:7.766
729, 1.89485, 359.619, 162.663, 0, 0, 0, 0.0957031, 0.303711, -9.71484, 1.25.2022 18:20:7.774
730, 1.89485, 359.619, 162.663, -0.000976562, -0.000976562, 0, 0.0146484, 0.323242, -9.71289, 1.25.2022 18:20:7.782
731, 1.89485, 359.619, 162.663, 0, 0, 0, 0.128906, 0.299805, -9.73633, 1.25.2022 18:20:7.790
732, 1.89485, 359.619, 162.663, -0.000976562, 0, -0.000976562, 0.0527344, 0.318359, -9.72754, 1.25.2022 18:20:7.798
733, 1.89485, 359.619, 162.663, -0.000976562, 0, 0, 0.0292969, 0.333008, -9.72949, 1.25.2022 18:20:7.806
734, 1.89477, 359.619, 162.655, -0.000976562, 0, -0.000976562, 0.0986328, 0.311523, -9.73145, 1.25.2022 18:20:7.814
735, 1.89485, 359.619, 162.663, 0, 0, -0.000976562, 0.00585938, 0.333008, -9.72168, 1.25.2022 18:20:7.822
736, 1.89477, 359.619, 162.655, -0.000976562, 0, 0, 0.0673828, 0.34082, -9.73438, 1.25.2022 18:20:7.830
737, 1.89477, 359.619, 162.655, -0.000976562, 0, 0, 0.0742188, 0.337891, -9.74219, 1.25.2022 18:20:7.838
738, 1.89477, 359.619, 162.655, -0.000976562, 0, 0, 0.0410156, 0.344727, -9.72949, 1.25.2022 18:20:7.846
739, 1.89477, 359.619, 162.655, 0, 0.000976562, -0.000976562, 0.117188, 0.299805, -9.73926, 1.25.2022 18:20:7.854
740, 1.89477, 359.619, 162.655, 0, 0, -0.000976562, 0.0703125, 0.308594, -9.71387, 1.25.2022 18:20:7.862
741, 1.89477, 359.619, 162.655, -0.000976562, 0, -0.000976562, 0.0410156, 0.319336, -9.75586, 1.25.2022 18:20:7.870
742, 1.89477, 359.619, 162.655, -0.000976562, 0, 0, 0.0742188, 0.301758, -9.71973, 1.25.2022 18:20:7.878
743, 1.89477, 359.619, 162.655, -0.000976562, -0.000976562, 0, 0.00488281, 0.338867, -9.75, 1.25.2022 18:20:7.886
744, 1.89477, 359.619, 162.655, 0, 0, -0.000976562, 0.0820312, 0.334961, -9.72363, 1.25.2022 18:20:7.894
745, 1.89477, 359.619, 162.655, -0.000976562, 0, 0, 0.0917969, 0.308594, -9.71484, 1.25.2022 18:20:7.902
746, 1.89477, 359.619, 162.655, -0.000976562, 0, 0, 0.0078125, 0.317383, -9.69141, 1.25.2022 18:20:7.910
747, 1.89477, 359.619, 162.655, -0.000976562, -0.000976562, 0, 0.129883, 0.276367, -9.69043, 1.25.2022 18:20:7.918
748, 1.89477, 359.619, 162.655, -0.000976562, -0.000976562, 0, 0.0478516, 0.337891, -9.72266, 1.25.2022 18:20:7.926
749, 1.89477, 359.619, 162.655, -0.000976562, -0.000976562, 0, 0.0654297, 0.323242, -9.71387, 1.25.2022 18:20:7.934
750, 1.89477, 359.619, 162.655, 0, 0, -0.000976562, 0.105469, 0.28418, -9.70801, 1.25.2022 18:20:7.942
751, 1.89477, 359.619, 162.655, 0, -0.000976562, 0, 0.0244141, 0.325195, -9.71582, 1.25.2022 18:20:7.950
752, 1.89477, 359.619, 162.655, 0, 0, 0, 0.0488281, 0.308594, -9.70703, 1.25.2022 18:20:7.958
753, 1.89477, 359.619, 162.655, 0, -0.000976562, 0, 0.0625, 0.314453, -9.74219, 1.25.2022 18:20:7.966
754, 1.88786, 359.62, 162.655, -0.000976562, 0, -0.000976562, 0.0175781, 0.337891, -9.71484, 1.25.2022 18:20:7.974
755, 1.88786, 359.62, 162.655, 0, -0.000976562, -0.000976562, 0.0908203, 0.299805, -9.73145, 1.25.2022 18:20:7.982
756, 1.88786, 359.62, 162.655, 0, -0.000976562, -0.000976562, 0.0527344, 0.318359, -9.71387, 1.25.2022 18:20:7.990
757, 1.88892, 359.627, 162.655, 0, 0, -0.000976562, 0.0673828, 0.325195, -9.71582, 1.25.2022 18:20:7.998
758, 1.88786, 359.62, 162.655, -0.000976562, -0.000976562, -0.000976562, 0.107422, 0.316406, -9.74316, 1.25.2022 18:20:8.006
759, 1.88892, 359.627, 162.655, -0.000976562, -0.000976562, -0.000976562, 0.000976562, 0.351562, -9.7168, 1.25.2022 18:20:8.014
760, 1.88892, 359.627, 162.655, -0.000976562, 0, -0.000976562, 0.117188, 0.306641, -9.72656, 1.25.2022 18:20:8.022
761, 1.88786, 359.62, 162.655, 0, 0, -0.000976562, 0.0751953, 0.3125, -9.69043, 1.25.2022 18:20:8.030
762, 1.88786, 359.62, 162.655, 0, 0, 0, 0.0341797, 0.311523, -9.72266, 1.25.2022 18:20:8.038
763, 1.88786, 359.62, 162.655, -0.000976562, -0.000976562, 0, 0.100586, 0.299805, -9.74316, 1.25.2022 18:20:8.046
764, 1.88786, 359.62, 162.655, 0, -0.000976562, -0.000976562, 0.0273438, 0.317383, -9.68262, 1.25.2022 18:20:8.054
765, 1.88786, 359.62, 162.655, 0, -0.000976562, -0.000976562, 0.0361328, 0.339844, -9.71777, 1.25.2022 18:20:8.062
766, 1.88201, 359.628, 162.655, 0, -0.000976562, -0.000976562, 0.0732422, 0.288086, -9.67969, 1.25.2022 18:20:8.070
767, 1.88201, 359.628, 162.655, 0, -0.000976562, -0.000976562, -0.00878906, 0.345703, -9.73535, 1.25.2022 18:20:8.078
768, 1.88201, 359.628, 162.655, -0.000976562, 0, -0.000976562, 0.0751953, 0.313477, -9.70996, 1.25.2022 18:20:8.086
769, 1.88201, 359.628, 162.655, -0.000976562, 0, -0.00195312, 0.0869141, 0.31543, -9.70703, 1.25.2022 18:20:8.094
770, 1.88208, 359.628, 162.663, 0, 0, -0.000976562, 0.0263672, 0.324219, -9.74121, 1.25.2022 18:20:8.102
771, 1.88208, 359.628, 162.663, 0, 0, 0, 0.114258, 0.301758, -9.74121, 1.25.2022 18:20:8.110
772, 1.88208, 359.628, 162.663, 0, 0, -0.000976562, 0.0175781, 0.308594, -9.72266, 1.25.2022 18:20:8.118
773, 1.88208, 359.628, 162.663, -0.000976562, -0.000976562, -0.000976562, 0.0537109, 0.31543, -9.70215, 1.25.2022 18:20:8.126
774, 1.88313, 359.635, 162.662, -0.000976562, 0, 0, 0.0673828, 0.311523, -9.73535, 1.25.2022 18:20:8.134
775, 1.88313, 359.635, 162.662, -0.000976562, 0.000976562, -0.000976562, 0.0234375, 0.34082, -9.75488, 1.25.2022 18:20:8.142
776, 1.88313, 359.635, 162.662, 0, 0.000976562, 0, 0.110352, 0.311523, -9.72461, 1.25.2022 18:20:8.150
777, 1.88313, 359.635, 162.662, -0.000976562, 0.000976562, 0, 0.078125, 0.324219, -9.67871, 1.25.2022 18:20:8.158
778, 1.88313, 359.635, 162.662, -0.000976562, 0, 0, 0.0341797, 0.330078, -9.7207, 1.25.2022 18:20:8.166
779, 1.88313, 359.635, 162.662, 0, -0.000976562, -0.000976562, 0.115234, 0.287109, -9.72754, 1.25.2022 18:20:8.174
780, 1.88313, 359.635, 162.662, 0, 0, -0.000976562, 0.0214844, 0.319336, -9.73438, 1.25.2022 18:20:8.182
781, 1.88313, 359.635, 162.662, 0, 0, -0.000976562, 0.0576172, 0.323242, -9.71387, 1.25.2022 18:20:8.190
782, 1.88313, 359.635, 162.662, 0, -0.000976562, 0, 0.0791016, 0.310547, -9.70703, 1.25.2022 18:20:8.198
783, 1.88313, 359.635, 162.662, 0, 0, 0, 0.0341797, 0.354492, -9.7334, 1.25.2022 18:20:8.206
784, 1.88313, 359.635, 162.662, 0.000976562, 0, 0, 0.115234, 0.330078, -9.70996, 1.25.2022 18:20:8.214
785, 1.88208, 359.628, 162.663, 0, 0.000976562, -0.000976562, 0.0615234, 0.305664, -9.7666, 1.25.2022 18:20:8.222
786, 1.88208, 359.628, 162.663, 0, 0, -0.000976562, 0.0458984, 0.326172, -9.74902, 1.25.2022 18:20:8.230
787, 1.88208, 359.628, 162.663, -0.000976562, 0.000976562, -0.000976562, 0.125, 0.303711, -9.71582, 1.25.2022 18:20:8.238
788, 1.88208, 359.628, 162.663, 0, 0, -0.000976562, 0.00292969, 0.354492, -9.72852, 1.25.2022 18:20:8.246
789, 1.88208, 359.628, 162.663, 0, 0, 0, 0.0791016, 0.328125, -9.7168, 1.25.2022 18:20:8.254
790, 1.88208, 359.628, 162.663, 0, 0, -0.000976562, 0.0986328, 0.318359, -9.72363, 1.25.2022 18:20:8.262
791, 1.88208, 359.628, 162.663, 0, 0, -0.000976562, 0.03125, 0.359375, -9.74023, 1.25.2022 18:20:8.270
792, 1.88208, 359.628, 162.663, 0, 0.000976562, -0.000976562, 0.105469, 0.325195, -9.70703, 1.25.2022 18:20:8.278
793, 1.88794, 359.62, 162.663, -0.000976562, -0.000976562, 0, 0.0605469, 0.303711, -9.71875, 1.25.2022 18:20:8.286
794, 1.88794, 359.62, 162.663, 0, 0, -0.000976562, 0.0488281, 0.341797, -9.69434, 1.25.2022 18:20:8.294
795, 1.88794, 359.62, 162.663, -0.000976562, -0.000976562, -0.00195312, 0.110352, 0.292969, -9.74414, 1.25.2022 18:20:8.302
796, 1.88794, 359.62, 162.663, -0.000976562, 0, -0.000976562, 0.00488281, 0.349609, -9.72656, 1.25.2022 18:20:8.310
797, 1.88794, 359.62, 162.663, 0, -0.000976562, -0.000976562, 0.0703125, 0.334961, -9.71094, 1.25.2022 18:20:8.318
798, 1.89485, 359.619, 162.663, 0, 0, 0, 0.0556641, 0.311523, -9.71387, 1.25.2022 18:20:8.326
799, 1.89485, 359.619, 162.663, 0, 0, -0.000976562, 0.0205078, 0.345703, -9.66797, 1.25.2022 18:20:8.334
800, 1.89485, 359.619, 162.663, 0, 0, -0.000976562, 0.103516, 0.330078, -9.72168, 1.25.2022 18:20:8.342
801, 1.89485, 359.619, 162.663, -0.000976562, 0, -0.000976562, 0.0449219, 0.297852, -9.75195, 1.25.2022 18:20:8.350
802, 1.89485, 359.619, 162.663, 0, 0, -0.000976562, 0.0703125, 0.330078, -9.71387, 1.25.2022 18:20:8.358
803, 1.89485, 359.619, 162.663, 0, 0.000976562, -0.000976562, 0.0927734, 0.306641, -9.74316, 1.25.2022 18:20:8.366
804, 1.89485, 359.619, 162.663, 0, -0.000976562, -0.000976562, 0.0195312, 0.347656, -9.72852, 1.25.2022 18:20:8.374
805, 1.90176, 359.618, 162.663, 0, 0, -0.000976562, 0.0898438, 0.320312, -9.77344, 1.25.2022 18:20:8.382
806, 1.90176, 359.618, 162.663, 0, 0, -0.000976562, 0.0527344, 0.299805, -9.72852, 1.25.2022 18:20:8.390
807, 1.90176, 359.618, 162.663, -0.000976562, 0, 0, 0.0332031, 0.337891, -9.74316, 1.25.2022 18:20:8.398
808, 1.90176, 359.618, 162.663, -0.000976562, 0, -0.000976562, 0.126953, 0.299805, -9.72754, 1.25.2022 18:20:8.406
809, 1.90176, 359.618, 162.663, 0, 0, -0.00195312, 0.0478516, 0.322266, -9.76074, 1.25.2022 18:20:8.414
810, 1.90176, 359.618, 162.663, -0.000976562, 0, -0.000976562, 0.0722656, 0.335938, -9.7373, 1.25.2022 18:20:8.422
811, 1.90176, 359.618, 162.663, -0.000976562, 0, -0.000976562, 0.0791016, 0.297852, -9.74512, 1.25.2022 18:20:8.430
812, 1.90176, 359.618, 162.663, 0, 0, 0, -0.00195312, 0.355469, -9.74023, 1.25.2022 18:20:8.438
813, 1.90176, 359.618, 162.663, 0, 0, -0.000976562, 0.0810547, 0.333984, -9.75586, 1.25.2022 18:20:8.446
814, 1.90176, 359.618, 162.663, 0, -0.000976562, 0, 0.0693359, 0.314453, -9.73047, 1.25.2022 18:20:8.454
815, 1.90176, 359.618, 162.663, 0, 0, 0, 0.0410156, 0.326172, -9.73926, 1.25.2022 18:20:8.462
816, 1.90176, 359.618, 162.663, 0, 0, -0.000976562, 0.110352, 0.313477, -9.70117, 1.25.2022 18:20:8.470
817, 1.90176, 359.618, 162.663, -0.000976562, -0.000976562, -0.000976562, 0.0380859, 0.302734, -9.75391, 1.25.2022 18:20:8.478
818, 1.90176, 359.618, 162.663, -0.000976562, 0, -0.000976562, 0.0625, 0.302734, -9.73828, 1.25.2022 18:20:8.486
819, 1.90176, 359.618, 162.663, 0, -0.000976562, -0.000976562, 0.0908203, 0.321289, -9.72852, 1.25.2022 18:20:8.494
820, 1.90176, 359.618, 162.663, 0, -0.000976562, -0.000976562, 0.0410156, 0.323242, -9.70605, 1.25.2022 18:20:8.502
821, 1.90176, 359.618, 162.663, 0, -0.000976562, -0.000976562, 0.0957031, 0.323242, -9.73535, 1.25.2022 18:20:8.510
822, 1.90176, 359.618, 162.663, -0.000976562, 0, 0, 0.0625, 0.301758, -9.72852, 1.25.2022 18:20:8.518
823, 1.90176, 359.618, 162.663, 0, 0.000976562, 0, 0.0322266, 0.322266, -9.67285, 1.25.2022 18:20:8.526
824, 1.90176, 359.618, 162.663, 0.000976562, 0, -0.000976562, 0.121094, 0.297852, -9.66309, 1.25.2022 18:20:8.534
825, 1.89485, 359.619, 162.663, 0, -0.000976562, -0.000976562, 0.015625, 0.332031, -9.69141, 1.25.2022 18:20:8.542
826, 1.89485, 359.619, 162.663, 0, -0.00195312, 0, 0.0751953, 0.327148, -9.68066, 1.25.2022 18:20:8.550
827, 1.89485, 359.619, 162.663, -0.000976562, 0, -0.000976562, 0.105469, 0.320312, -9.7168, 1.25.2022 18:20:8.556
828, 1.89485, 359.619, 162.663, -0.000976562, 0, -0.000976562, 0.000976562, 0.337891, -9.72461, 1.25.2022 18:20:8.564
829, 1.89485, 359.619, 162.663, 0, 0, -0.000976562, 0.0869141, 0.320312, -9.71875, 1.25.2022 18:20:8.572
830, 1.89485, 359.619, 162.663, -0.000976562, 0, -0.000976562, 0.0478516, 0.318359, -9.73047, 1.25.2022 18:20:8.580
831, 1.89485, 359.619, 162.663, 0, 0, -0.000976562, 0.0351562, 0.345703, -9.66504, 1.25.2022 18:20:8.588
832, 1.89485, 359.619, 162.663, 0, -0.000976562, -0.000976562, 0.0986328, 0.306641, -9.72168, 1.25.2022 18:20:8.596
833, 1.89485, 359.619, 162.663, 0, 0, -0.000976562, 0.0175781, 0.337891, -9.73438, 1.25.2022 18:20:8.604
834, 1.89485, 359.619, 162.663, -0.000976562, 0, -0.000976562, 0.09375, 0.321289, -9.74023, 1.25.2022 18:20:8.612
835, 1.89485, 359.619, 162.663, -0.000976562, 0, 0, 0.09375, 0.299805, -9.72168, 1.25.2022 18:20:8.620
836, 1.90176, 359.618, 162.663, 0, -0.00195312, 0, 0.0439453, 0.339844, -9.70605, 1.25.2022 18:20:8.628
837, 1.90176, 359.618, 162.663, 0, -0.000976562, -0.000976562, 0.100586, 0.296875, -9.72266, 1.25.2022 18:20:8.636
838, 1.89485, 359.619, 162.663, 0, -0.000976562, -0.000976562, 0.0458984, 0.321289, -9.74219, 1.25.2022 18:20:8.644
839, 1.89485, 359.619, 162.663, 0, 0, 0, 0.0410156, 0.335938, -9.73926, 1.25.2022 18:20:8.652
840, 1.89485, 359.619, 162.663, 0, -0.000976562, -0.000976562, 0.100586, 0.314453, -9.74316, 1.25.2022 18:20:8.660
841, 1.89485, 359.619, 162.663, 0, 0, -0.000976562, 0.0195312, 0.339844, -9.71777, 1.25.2022 18:20:8.668
842, 1.89485, 359.619, 162.663, -0.000976562, 0, -0.000976562, 0.0722656, 0.320312, -9.68848, 1.25.2022 18:20:8.676
843, 1.90176, 359.618, 162.663, 0, 0, -0.000976562, 0.0869141, 0.305664, -9.7002, 1.25.2022 18:20:8.684
844, 1.90176, 359.618, 162.663, -0.000976562, 0, 0, 0.0078125, 0.323242, -9.71289, 1.25.2022 18:20:8.692
845, 1.90176, 359.618, 162.663, 0, 0, -0.000976562, 0.105469, 0.328125, -9.72168, 1.25.2022 18:20:8.700
846, 1.90176, 359.618, 162.663, 0, 0, -0.000976562, 0.0625, 0.327148, -9.7041, 1.25.2022 18:20:8.708
847, 1.90176, 359.618, 162.663, -0.000976562, 0.000976562, 0, 0.0576172, 0.352539, -9.74316, 1.25.2022 18:20:8.716
848, 1.90176, 359.618, 162.663, -0.000976562, -0.000976562, -0.000976562, 0.09375, 0.321289, -9.72363, 1.25.2022 18:20:8.724
849, 1.90176, 359.618, 162.663, -0.000976562, -0.000976562, -0.000976562, 0.0341797, 0.349609, -9.71973, 1.25.2022 18:20:8.732
850, 1.90176, 359.618, 162.663, -0.000976562, -0.000976562, -0.000976562, 0.0859375, 0.319336, -9.74023, 1.25.2022 18:20:8.740
851, 1.90176, 359.618, 162.663, -0.000976562, 0, 0, 0.0605469, 0.323242, -9.70898, 1.25.2022 18:20:8.748
852, 1.90867, 359.617, 162.663, -0.000976562, 0, 0, 0.0322266, 0.332031, -9.69629, 1.25.2022 18:20:8.756
853, 1.90867, 359.617, 162.663, -0.000976562, 0.000976562, -0.000976562, 0.110352, 0.295898, -9.69629, 1.25.2022 18:20:8.764
854, 1.90867, 359.617, 162.663, -0.000976562, 0, -0.000976562, 0.0703125, 0.326172, -9.66406, 1.25.2022 18:20:8.772
855, 1.90867, 359.617, 162.663, -0.000976562, -0.000976562, 0, 0.0292969, 0.324219, -9.74121, 1.25.2022 18:20:8.780
856, 1.90867, 359.617, 162.663, 0, -0.000976562, 0, 0.100586, 0.303711, -9.70801, 1.25.2022 18:20:8.788
857, 1.90859, 359.617, 162.655, 0, -0.000976562, 0, 0.0195312, 0.335938, -9.73633, 1.25.2022 18:20:8.796
858, 1.90859, 359.617, 162.655, 0, 0, -0.000976562, 0.0732422, 0.342773, -9.6377, 1.25.2022 18:20:8.804
859, 1.90859, 359.617, 162.655, 0, 0, -0.000976562, 0.0693359, 0.266602, -9.75586, 1.25.2022 18:20:8.812
860, 1.90859, 359.617, 162.655, 0, 0, 0, 0.0292969, 0.311523, -9.71094, 1.25.2022 18:20:8.820
861, 1.90859, 359.617, 162.655, -0.000976562, 0, 0, 0.0839844, 0.302734, -9.74805, 1.25.2022 18:20:8.828
862, 1.90859, 359.617, 162.655, -0.000976562, 0, 0, 0.0605469, 0.310547, -9.70215, 1.25.2022 18:20:8.836
863, 1.90859, 359.617, 162.655, -0.000976562, -0.000976562, 0, 0.0605469, 0.328125, -9.70703, 1.25.2022 18:20:8.844
864, 1.90168, 359.618, 162.655, 0, -0.000976562, -0.000976562, 0.0908203, 0.316406, -9.72168, 1.25.2022 18:20:8.852
865, 1.90168, 359.618, 162.655, -0.000976562, -0.000976562, 0, 0.0253906, 0.338867, -9.68457, 1.25.2022 18:20:8.860
866, 1.90168, 359.618, 162.655, 0, 0, -0.000976562, 0.0644531, 0.328125, -9.73047, 1.25.2022 18:20:8.868
867, 1.90168, 359.618, 162.655, 0, -0.000976562, -0.000976562, 0.0527344, 0.324219, -9.74414, 1.25.2022 18:20:8.876
868, 1.90274, 359.625, 162.655, 0, 0, -0.00195312, 0.0341797, 0.328125, -9.7373, 1.25.2022 18:20:8.884
869, 1.90274, 359.625, 162.655, 0, 0, -0.000976562, 0.105469, 0.303711, -9.72168, 1.25.2022 18:20:8.892
870, 1.90274, 359.625, 162.655, 0, 0.000976562, -0.000976562, 0.0458984, 0.337891, -9.72266, 1.25.2022 18:20:8.900
871, 1.90274, 359.625, 162.655, 0, 0, -0.000976562, 0.0458984, 0.328125, -9.72754, 1.25.2022 18:20:8.908
872, 1.90274, 359.625, 162.655, 0.000976562, 0, 0, 0.105469, 0.308594, -9.7168, 1.25.2022 18:20:8.916
873, 1.90274, 359.625, 162.655, 0, 0, 0, 0.00292969, 0.342773, -9.73145, 1.25.2022 18:20:8.924
874, 1.90274, 359.625, 162.655, -0.000976562, -0.000976562, -0.000976562, 0.0761719, 0.348633, -9.75586, 1.25.2022 18:20:8.932
875, 1.90274, 359.625, 162.655, -0.000976562, 0, -0.000976562, 0.0595703, 0.335938, -9.74609, 1.25.2022 18:20:8.940
876, 1.90274, 359.625, 162.655, 0.000976562, 0, 0, 0.0341797, 0.310547, -9.7041, 1.25.2022 18:20:8.948
877, 1.90274, 359.625, 162.655, 0, -0.000976562, -0.000976562, 0.0878906, 0.295898, -9.7627, 1.25.2022 18:20:8.956
878, 1.90274, 359.625, 162.655, 0, -0.000976562, -0.000976562, 0.0439453, 0.31543, -9.70703, 1.25.2022 18:20:8.964
879, 1.90274, 359.625, 162.655, -0.000976562, -0.000976562, 0, 0.0771484, 0.337891, -9.72266, 1.25.2022 18:20:8.972
880, 1.90379, 359.632, 162.655, 0, 0, -0.000976562, 0.0722656, 0.316406, -9.7168, 1.25.2022 18:20:8.980
881, 1.90379, 359.632, 162.655, 0, 0, -0.000976562, 0.000976562, 0.361328, -9.71191, 1.25.2022 18:20:8.988
882, 1.90379, 359.632, 162.655, 0, 0, -0.000976562, 0.0839844, 0.336914, -9.71094, 1.25.2022 18:20:8.996
883, 1.90379, 359.632, 162.655, -0.000976562, 0, -0.000976562, 0.0820312, 0.3125, -9.68164, 1.25.2022 18:20:9.004
884, 1.90379, 359.632, 162.655, -0.000976562, 0, -0.000976562, 0.0380859, 0.345703, -9.75488, 1.25.2022 18:20:9.012
885, 1.9107, 359.631, 162.655, 0, 0, -0.00195312, 0.0791016, 0.304688, -9.73828, 1.25.2022 18:20:9.020
886, 1.91077, 359.631, 162.662, 0, 0, -0.000976562, 0.00976562, 0.331055, -9.73438, 1.25.2022 18:20:9.028
887, 1.91077, 359.631, 162.662, 0, 0, -0.000976562, 0.0673828, 0.328125, -9.71094, 1.25.2022 18:20:9.036
888, 1.91077, 359.631, 162.662, -0.000976562, 0, -0.000976562, 0.0908203, 0.291992, -9.71777, 1.25.2022 18:20:9.044
889, 1.91077, 359.631, 162.662, -0.000976562, 0, -0.000976562, 0.0146484, 0.328125, -9.71484, 1.25.2022 18:20:9.052
890, 1.91077, 359.631, 162.662, 0, 0, -0.000976562, 0.0986328, 0.313477, -9.72656, 1.25.2022 18:20:9.060
891, 1.91077, 359.631, 162.662, 0, 0, -0.000976562, 0.0712891, 0.311523, -9.74512, 1.25.2022 18:20:9.068
892, 1.91077, 359.631, 162.662, 0, 0, -0.000976562, 0.0488281, 0.325195, -9.70215, 1.25.2022 18:20:9.076
893, 1.91077, 359.631, 162.662, -0.000976562, -0.000976562, -0.00195312, 0.105469, 0.318359, -9.73145, 1.25.2022 18:20:9.084
894, 1.91077, 359.631, 162.662, -0.000976562, 0, 0, 0.0332031, 0.314453, -9.75586, 1.25.2022 18:20:9.092
895, 1.91077, 359.631, 162.662, -0.000976562, 0.000976562, 0, 0.0771484, 0.318359, -9.7168, 1.25.2022 18:20:9.100
896, 1.91077, 359.631, 162.662, 0, 0, 0, 0.110352, 0.303711, -9.71484, 1.25.2022 18:20:9.108
897, 1.91077, 359.631, 162.662, -0.000976562, 0, -0.000976562, 0.000976562, 0.356445, -9.70703, 1.25.2022 18:20:9.116
898, 1.91077, 359.631, 162.662, 0, 0, -0.000976562, 0.104492, 0.302734, -9.75781, 1.25.2022 18:20:9.124
899, 1.90386, 359.632, 162.662, 0, 0, -0.000976562, 0.0878906, 0.301758, -9.79785, 1.25.2022 18:20:9.132
900, 1.90281, 359.625, 162.663, -0.000976562, 0.00195312, 0, 0.272461, 0.320312, -9.70508, 1.25.2022 18:20:9.140
901, 1.90867, 359.617, 162.663, 0.000976562, -0.000976562, -0.000976562, 0.239258, 0.339844, -9.72754, 1.25.2022 18:20:9.148
902, 1.90656, 359.603, 162.663, 0, 0.000976562, 0, 0.18457, 0.327148, -9.70117, 1.25.2022 18:20:9.156
903, 1.9055, 359.596, 162.663, -0.000976562, 0, 0, 0.126953, 0.335938, -9.74707, 1.25.2022 18:20:9.164
904, 1.9034, 359.582, 162.663, -0.000976562, 0.00195312, -0.00195312, 0.298828, 0.262695, -9.70508, 1.25.2022 18:20:9.172
905, 1.90129, 359.569, 162.663, 0, -0.000976562, -0.00195312, 0.185547, 0.319336, -9.75586, 1.25.2022 18:20:9.180
906, 1.89813, 359.548, 162.664, 0.000976562, 0.000976562, -0.00195312, 0.305664, 0.300781, -9.70605, 1.25.2022 18:20:9.188
907, 1.90293, 359.533, 162.664, 0, -0.000976562, -0.00195312, 0.138672, 0.400391, -9.74805, 1.25.2022 18:20:9.196
908, 1.89871, 359.505, 162.664, 0, 0.00195312, -0.00195312, 0.476562, 0.397461, -9.76367, 1.25.2022 18:20:9.204
909, 1.90141, 359.477, 162.665, 0.000976562, 0.00195312, 0.000976562, 0.597656, 0.362305, -9.68848, 1.25.2022 18:20:9.212
910, 1.90305, 359.441, 162.665, 0.000976562, 0.000976562, 0.00195312, 0.405273, 0.339844, -9.75195, 1.25.2022 18:20:9.220
911, 1.9046, 359.405, 162.659, 0.000976562, 0.00292969, 0.00195312, 0.426758, 0.255859, -9.74512, 1.25.2022 18:20:9.228
912, 1.90552, 359.363, 162.66, 0, 0.00195312, -0.00195312, 0.474609, 0.251953, -9.76758, 1.25.2022 18:20:9.236
913, 1.90505, 359.313, 162.661, 0.000976562, 0.00292969, -0.00488281, 0.530273, 0.297852, -9.68848, 1.25.2022 18:20:9.244
914, 1.90458, 359.264, 162.662, 0.00195312, 0, -0.00585938, 0.56543, 0.328125, -9.75977, 1.25.2022 18:20:9.252
915, 1.90421, 359.215, 162.67, 0.00195312, 0.000976562, -0.00585938, 0.541016, 0.351562, -9.64551, 1.25.2022 18:20:9.260
916, 1.90269, 359.158, 162.671, 0.00195312, -0.000976562, -0.00585938, 0.458008, 0.375977, -9.75195, 1.25.2022 18:20:9.268
917, 1.90116, 359.102, 162.671, 0.00195312, 0, -0.00585938, 0.692383, 0.287109, -9.82617, 1.25.2022 18:20:9.276
918, 1.89859, 359.039, 162.672, 0.000976562, 0.000976562, -0.00683594, 0.634766, 0.399414, -9.76367, 1.25.2022 18:20:9.284
919, 1.90304, 358.974, 162.68, 0.00195312, 0, -0.00878906, 0.618164, 0.367188, -9.70996, 1.25.2022 18:20:9.292
920, 1.90737, 358.91, 162.681, 0.00195312, 0.00195312, -0.00683594, 0.523438, 0.344727, -9.68262, 1.25.2022 18:20:9.300
921, 1.9048, 358.847, 162.682, 0.00390625, 0.00292969, -0.00585938, 0.513672, 0.40332, -9.71191, 1.25.2022 18:20:9.308
922, 1.90927, 358.783, 162.69, 0.00292969, 0.00195312, -0.00488281, 0.568359, 0.304688, -9.68945, 1.25.2022 18:20:9.316
923, 1.91256, 358.711, 162.691, 0.00195312, 0.00195312, -0.00390625, 0.75293, 0.400391, -9.78418, 1.25.2022 18:20:9.324
924, 1.91585, 358.64, 162.692, 0.00195312, -0.000976562, -0.00195312, 0.713867, 0.307617, -9.56836, 1.25.2022 18:20:9.332
925, 1.91913, 358.569, 162.693, 0.000976562, -0.000976562, -0.00195312, 0.824219, 0.321289, -9.78027, 1.25.2022 18:20:9.340
926, 1.92123, 358.49, 162.687, 0.000976562, 0.000976562, -0.00195312, 0.734375, 0.333984, -9.62988, 1.25.2022 18:20:9.348
927, 1.91821, 358.47, 162.694, 0, -0.000976562, -0.00390625, 0.878906, 0.302734, -9.96387, 1.25.2022 18:20:9.356
928, 1.92301, 358.455, 162.695, -0.000976562, 0.00488281, -0.00488281, 1.06152, 0.378906, -9.57715, 1.25.2022 18:20:9.364
929, 1.92091, 358.441, 162.695, -0.000976562, 0, -0.00292969, 0.84668, 0.393555, -9.74316, 1.25.2022 18:20:9.372
930, 1.91985, 358.434, 162.695, -0.00195312, 0.00390625, -0.00195312, 0.931641, 0.394531, -9.68066, 1.25.2022 18:20:9.380
931, 1.92466, 358.419, 162.695, -0.00292969, -0.00195312, 0.00292969, 0.636719, 0.47168, -9.77832, 1.25.2022 18:20:9.388
932, 1.92361, 358.412, 162.695, -0.00390625, 0, 0.00683594, 0.935547, 0.458008, -9.56152, 1.25.2022 18:20:9.396
933, 1.92965, 358.404, 162.689, -0.00488281, -0.0078125, 0.0117188, 0.760742, 0.451172, -9.63379, 1.25.2022 18:20:9.404
934, 1.92845, 358.397, 162.682, -0.00585938, -0.00488281, 0.0146484, 1.125, 0.168945, -9.76074, 1.25.2022 18:20:9.412
935, 1.93415, 358.389, 162.675, -0.00976562, -0.0107422, 0.0107422, 1.25684, 0.235352, -9.57227, 1.25.2022 18:20:9.420
936, 1.94001, 358.381, 162.675, -0.00878906, -0.015625, 0.00878906, 0.948242, 0.523438, -9.52441, 1.25.2022 18:20:9.428
937, 1.94677, 358.38, 162.668, -0.0107422, -0.0136719, 0.0136719, 0.94043, 0.426758, -9.5498, 1.25.2022 18:20:9.436
938, 1.94556, 358.373, 162.661, -0.0136719, -0.015625, 0.0205078, 1.13672, 0.381836, -9.36328, 1.25.2022 18:20:9.444
939, 1.95251, 358.372, 162.647, -0.0146484, -0.0214844, 0.0224609, 0.942383, 0.329102, -9.58789, 1.25.2022 18:20:9.452
940, 1.95927, 358.371, 162.64, -0.015625, -0.0214844, 0.0244141, 1.14648, 0.335938, -9.50391, 1.25.2022 18:20:9.460
941, 1.97278, 358.368, 162.626, -0.0175781, -0.0273438, 0.0244141, 1.20117, 0.324219, -9.49609, 1.25.2022 18:20:9.468
942, 1.97939, 358.367, 162.612, -0.0185547, -0.0322266, 0.0234375, 0.925781, 0.37793, -9.8584, 1.25.2022 18:20:9.476
943, 1.98755, 358.373, 162.605, -0.0166016, -0.0253906, 0.0234375, 0.859375, 0.44043, -10.418, 1.25.2022 18:20:9.484
944, 1.99309, 358.364, 162.591, -0.00878906, -0.0117188, 0.0234375, 0.789062, 0.463867, -10.7441, 1.25.2022 18:20:9.492
945, 1.99172, 358.357, 162.577, -0.00488281, 0.00390625, 0.0244141, 1.05176, 0.56543, -10.2051, 1.25.2022 18:20:9.500
946, 1.9967, 358.342, 162.571, 0.00390625, 0.015625, 0.0273438, 1.08496, 0.557617, -9.64062, 1.25.2022 18:20:9.508
947, 1.99321, 358.321, 162.556, 0.00878906, 0.0332031, 0.0322266, 1.01758, 0.759766, -9.58496, 1.25.2022 18:20:9.514
948, 1.98742, 358.286, 162.535, 0.0146484, 0.0410156, 0.0371094, 0.930664, 0.875977, -9.78125, 1.25.2022 18:20:9.522
949, 1.98319, 358.258, 162.522, 0.0136719, 0.0439453, 0.0429688, 0.852539, 0.735352, -9.87598, 1.25.2022 18:20:9.530
950, 1.97738, 358.224, 162.501, 0.00683594, 0.0361328, 0.0449219, 0.676758, 0.739258, -9.67676, 1.25.2022 18:20:9.538
951, 1.97403, 358.202, 162.48, 0.00195312, 0.0195312, 0.0488281, 0.717773, 0.439453, -8.92285, 1.25.2022 18:20:9.546
952, 1.97725, 358.18, 162.459, -0.00292969, 0.00195312, 0.0556641, 0.696289, 0.15332, -8.79785, 1.25.2022 18:20:9.554
953, 1.97586, 358.173, 162.431, -0.00488281, -0.00878906, 0.0625, 0.793945, 0.015625, -9.30176, 1.25.2022 18:20:9.562
954, 1.98121, 358.164, 162.396, -0.00292969, -0.00976562, 0.0664062, 1.21484, -0.0175781, -10.0752, 1.25.2022 18:20:9.570
955, 1.97947, 358.157, 162.367, 0.00683594, -0.0117188, 0.0634766, 1.15332, 0.202148, -10.332, 1.25.2022 18:20:9.578
956, 1.97008, 358.144, 162.339, 0.0175781, 0.00292969, 0.0615234, 1.36719, 0.361328, -10.1445, 1.25.2022 18:20:9.586
957, 1.9676, 358.129, 162.311, 0.0244141, 0.0166016, 0.0595703, 1.28125, 0.775391, -9.89551, 1.25.2022 18:20:9.594
958, 1.94879, 358.103, 162.283, 0.0263672, 0.0253906, 0.0634766, 1.00879, 1.0918, -9.95996, 1.25.2022 18:20:9.602
959, 1.94413, 358.075, 162.255, 0.0214844, 0.0322266, 0.0732422, 0.988281, 1.05762, -9.62793, 1.25.2022 18:20:9.610
960, 1.93345, 358.055, 162.22, 0.0107422, 0.0175781, 0.0830078, 0.658203, 0.845703, -9.23633, 1.25.2022 18:20:9.618
961, 1.92949, 358.034, 162.178, -0.00390625, -0.00878906, 0.0917969, 0.418945, 0.498047, -9.01562, 1.25.2022 18:20:9.626
962, 1.93569, 358.032, 162.135, -0.0205078, -0.0322266, 0.0986328, 0.670898, 0.0585938, -8.41504, 1.25.2022 18:20:9.634
963, 1.94971, 358.036, 162.086, -0.0302734, -0.0566406, 0.101562, 1.03613, -0.363281, -8.39941, 1.25.2022 18:20:9.642
964, 1.96592, 358.053, 162.036, -0.0341797, -0.0791016, 0.100586, 0.732422, -0.148438, -10.3896, 1.25.2022 18:20:9.650
965, 1.97541, 358.072, 161.993, -0.015625, -0.0449219, 0.0986328, 1.30469, -0.583984, -12.5605, 1.25.2022 18:20:9.658
966, 1.98034, 358.063, 161.944, -0.0078125, -0.00683594, 0.0986328, 1.4707, 0.113281, -11.8613, 1.25.2022 18:20:9.666
967, 1.97743, 358.049, 161.902, 0.00683594, 0.00683594, 0.0976562, 1.58691, 0.655273, -8.75098, 1.25.2022 18:20:9.674
968, 1.97323, 358.027, 161.852, 0.0166016, 0.0400391, 0.104492, 1.23828, 1.0127, -9.49121, 1.25.2022 18:20:9.682
969, 1.95989, 357.993, 161.803, 0.015625, 0.0585938, 0.111328, 0.701172, 1.59863, -9.60352, 1.25.2022 18:20:9.690
970, 1.95844, 357.943, 161.754, 0.00683594, 0.0683594, 0.120117, 0.635742, 1.5791, -10.501, 1.25.2022 18:20:9.698
971, 1.95866, 357.906, 161.698, -0.00195312, 0.0429688, 0.126953, 0.348633, 1.40234, -9.1709, 1.25.2022 18:20:9.706
972, 1.95306, 357.877, 161.641, -0.000976562, 0.0195312, 0.130859, 0.821289, 0.348633, -7.7793, 1.25.2022 18:20:9.714
973, 1.95671, 357.861, 161.578, -0.00292969, -0.0244141, 0.128906, 0.625977, -0.137695, -7.9873, 1.25.2022 18:20:9.722
974, 1.95555, 357.86, 161.521, -0.000976562, -0.0263672, 0.131836, 1.10742, -0.0654297, -9.66797, 1.25.2022 18:20:9.730
975, 1.95454, 357.859, 161.458, 0.0107422, -0.0390625, 0.135742, 1.47656, 0, -10.8037, 1.25.2022 18:20:9.738
976, 1.94742, 357.866, 161.393, 0.0205078, -0.0507812, 0.140625, 1.66113, 0.131836, -10.7295, 1.25.2022 18:20:9.746
977, 1.93374, 357.874, 161.33, 0.0107422, -0.0546875, 0.145508, 1.46777, 0.600586, -9.58008, 1.25.2022 18:20:9.754
978, 1.93335, 357.88, 161.258, -0.00292969, -0.0458984, 0.148438, 0.425781, 1.13086, -10.6113, 1.25.2022 18:20:9.762
979, 1.93791, 357.871, 161.188, -0.0117188, 0.00683594, 0.149414, 1.16895, 0.171875, -9.03613, 1.25.2022 18:20:9.770
980, 1.94116, 357.855, 161.124, -0.0283203, 0.00488281, 0.143555, 0.446289, 0.00292969, -10.9619, 1.25.2022 18:20:9.778
981, 1.95832, 357.836, 161.054, -0.0341797, 0.0263672, 0.137695, 1.26953, -0.0253906, -9.67871, 1.25.2022 18:20:9.786
982, 1.9676, 357.812, 160.991, -0.0292969, 0.00878906, 0.143555, 0.808594, 0.0517578, -9.16406, 1.25.2022 18:20:9.794
983, 1.97652, 357.788, 160.927, -0.0117188, 0.0107422, 0.15332, 0.861328, 0.37793, -9.44434, 1.25.2022 18:20:9.802
984, 1.97963, 357.772, 160.849, 0.00292969, 0.0136719, 0.164062, 0.641602, 0.945312, -9.53809, 1.25.2022 18:20:9.810
985, 1.97464, 357.75, 160.771, 0.0195312, 0.00976562, 0.173828, 0.794922, 1.27734, -9.12012, 1.25.2022 18:20:9.818
986, 1.96273, 357.729, 160.693, 0.0253906, -0.00390625, 0.177734, 0.551758, 1.28906, -9.64258, 1.25.2022 18:20:9.826
987, 1.95059, 357.708, 160.608, 0.0126953, 0.0185547, 0.18457, 1.20996, 1.10254, -8.65723, 1.25.2022 18:20:9.834
988, 1.9465, 357.693, 160.523, -0.000976562, -0.015625, 0.189453, 0.986328, 0.863281, -9.43262, 1.25.2022 18:20:9.842
989, 1.94476, 357.691, 160.438, -0.0136719, -0.0292969, 0.191406, 0.8125, 0.532227, -10.2227, 1.25.2022 18:20:9.850
990, 1.95693, 357.687, 160.346, -0.0205078, -0.0224609, 0.193359, 0.354492, 0.15918, -11.4688, 1.25.2022 18:20:9.858
991, 1.96087, 357.678, 160.261, -0.0175781, -0.0107422, 0.19043, 1.00098, -0.0917969, -10.1367, 1.25.2022 18:20:9.866
992, 1.96479, 357.668, 160.176, -0.0117188, -0.0146484, 0.19043, 1.18945, -0.0537109, -8.52344, 1.25.2022 18:20:9.874
993, 1.96161, 357.66, 160.083, 0.0078125, -0.0332031, 0.191406, 0.855469, -0.197266, -8.52441, 1.25.2022 18:20:9.882
994, 1.95861, 357.651, 159.998, 0.00292969, -0.00292969, 0.196289, 1.00781, 0.654297, -9.97754, 1.25.2022 18:20:9.890
995, 1.9545, 357.636, 159.907, 0.0136719, -0.00195312, 0.201172, 0.916992, 1.1084, -10.6934, 1.25.2022 18:20:9.898
996, 1.94437, 357.629, 159.814, 0.0205078, -0.0185547, 0.201172, 0.451172, 1.04883, -10.9209, 1.25.2022 18:20:9.906
997, 1.93989, 357.614, 159.721, 0.00292969, 0.00390625, 0.204102, 0.97168, 1.14941, -8.82715, 1.25.2022 18:20:9.914
998, 1.93549, 357.598, 159.622, -0.000976562, -0.00585938, 0.200195, 0.974609, 0.597656, -7.48633, 1.25.2022 18:20:9.922
999, 1.93929, 357.589, 159.537, -0.00976562, -0.00585938, 0.196289, 1.26367, 0.0839844, -8.90137, 1.25.2022 18:20:9.930
1000, 1.94286, 357.579, 159.444, -0.0195312, -0.0205078, 0.194336, 0.0175781, 0.838867, -12.7861, 1.25.2022 18:20:9.938
1001, 1.94548, 357.562, 159.353, -0.000976562, 0.0166016, 0.19043, 1.11621, -0.459961, -11.8877, 1.25.2022 18:20:9.946
1002, 1.94795, 357.546, 159.267, -0.0146484, -0.000976562, 0.183594, 1.12402, 0.364258, -8.76562, 1.25.2022 18:20:9.954
1003, 1.94501, 357.538, 159.189, 0.00878906, -0.0283203, 0.176758, 0.592773, 0.0976562, -7.87891, 1.25.2022 18:20:9.962
1004, 1.93368, 357.524, 159.103, 0.0214844, -0.00195312, 0.175781, 0.646484, 0.28418, -8.90723, 1.25.2022 18:20:9.970
1005, 1.92943, 357.509, 159.025, 0.0117188, 0.00976562, 0.175781, 0.931641, 0.912109, -9.87207, 1.25.2022 18:20:9.978
1006, 1.91859, 357.495, 158.948, 0.0185547, -0.00585938, 0.169922, 0.375, 0.791992, -11.8574, 1.25.2022 18:20:9.986
1007, 1.91429, 357.48, 158.87, 0.0078125, 0, 0.171875, 0.993164, 0.545898, -9.30469, 1.25.2022 18:20:9.994
1008, 1.91126, 357.472, 158.791, -0.00585938, -0.0224609, 0.172852, 0.896484, 0.661133, -6.62793, 1.25.2022 18:20:10.002
1009, 1.908, 357.463, 158.706, -0.000976562, -0.0214844, 0.174805, -0.333008, 0.930664, -10.5762, 1.25.2022 18:20:10.010
1010, 1.90364, 357.448, 158.627, 0.00976562, 0.0332031, 0.172852, 0.982422, -0.307617, -12.751, 1.25.2022 18:20:10.018
1011, 1.90352, 357.418, 158.549, -0.0146484, 0.03125, 0.169922, 1.20215, 0.237305, -11.7686, 1.25.2022 18:20:10.026
1012, 1.90598, 357.402, 158.471, -0.00585938, -0.0166016, 0.165039, 0.774414, 0.462891, -8.27344, 1.25.2022 18:20:10.034
1013, 1.90308, 357.394, 158.4, 0.0078125, -0.00585938, 0.165039, 0.189453, 0.220703, -8.45215, 1.25.2022 18:20:10.042
1014, 1.90581, 357.377, 158.323, 0, 0.0224609, 0.163086, 0.580078, 0.299805, -8.05469, 1.25.2022 18:20:10.050
1015, 1.90023, 357.356, 158.252, -0.00683594, 0.0078125, 0.157227, 0.814453, 0.717773, -9.69336, 1.25.2022 18:20:10.058
1016, 1.90393, 357.346, 158.173, -0.0126953, -0.0263672, 0.15918, 0.359375, 0.580078, -9.52051, 1.25.2022 18:20:10.066
1017, 1.9105, 357.35, 158.102, -0.0253906, -0.0615234, 0.163086, 0.194336, 0.53125, -8.19629, 1.25.2022 18:20:10.074
1018, 1.91818, 357.362, 158.023, -0.00878906, -0.0517578, 0.162109, -0.551758, 0.124023, -12.4043, 1.25.2022 18:20:10.082
1019, 1.91655, 357.36, 157.952, 0.00292969, 0.0263672, 0.157227, 1.66699, -0.239258, -9.98145, 1.25.2022 18:20:10.090
1020, 1.91775, 357.337, 157.881, -0.000976562, 0.00292969, 0.148438, 1.6084, 0.545898, -9.84375, 1.25.2022 18:20:10.098
1021, 1.90812, 357.331, 157.817, 0.0273438, -0.0400391, 0.144531, 0.27832, 0.851562, -10.9541, 1.25.2022 18:20:10.106
1022, 1.89108, 357.325, 157.744, 0.0371094, 0.00390625, 0.155273, 0.0703125, 0.820312, -9.45703, 1.25.2022 18:20:10.114
1023, 1.87849, 357.305, 157.673, 0.0107422, 0.0507812, 0.164062, 0.332031, 1.31445, -7.91406, 1.25.2022 18:20:10.122
1024, 1.87694, 357.268, 157.596, -0.00585938, 0.0361328, 0.167969, 0.554688, 0.853516, -8.3584, 1.25.2022 18:20:10.130
1025, 1.88737, 357.257, 157.518, -0.0302734, -0.0263672, 0.172852, 0.270508, 0.506836, -7.76367, 1.25.2022 18:20:10.138
1026, 1.90189, 357.267, 157.439, -0.0517578, -0.0722656, 0.178711, -1.52539, 0.795898, -11.6807, 1.25.2022 18:20:10.146
1027, 1.91651, 357.276, 157.354, -0.0273438, -0.0078125, 0.174805, -0.000976562, -1.41406, -13.2021, 1.25.2022 18:20:10.154
1028, 1.93101, 357.25, 157.276, -0.0429688, 0.0449219, 0.169922, 2.46875, -0.614258, -8.76758, 1.25.2022 18:20:10.162
1029, 1.943, 357.246, 157.205, -0.0185547, -0.0546875, 0.155273, 1.19531, 0.374023, -8.35059, 1.25.2022 18:20:10.170
1030, 1.94267, 357.252, 157.133, 0.0253906, -0.0253906, 0.155273, 0.30957, 0.688477, -11.9092, 1.25.2022 18:20:10.178
1031, 1.92421, 357.24, 157.054, 0.0429688, 0.00683594, 0.160156, -0.256836, 0.793945, -10.1562, 1.25.2022 18:20:10.186
1032, 1.91003, 357.212, 156.983, 0.0146484, 0.0595703, 0.158203, 0.678711, 1.61621, -7.7041, 1.25.2022 18:20:10.194
1033, 1.90407, 357.191, 156.911, 0.00585938, -0.000976562, 0.154297, 0.141602, 1.49316, -6.81055, 1.25.2022 18:20:10.202
1034, 1.89685, 357.198, 156.84, 0.000976562, -0.0771484, 0.149414, -2.00488, 0.641602, -12.2676, 1.25.2022 18:20:10.210
1035, 1.90359, 357.202, 156.776, -0.0185547, 0.0302734, 0.147461, 0.62793, -0.577148, -11.6846, 1.25.2022 18:20:10.218
1036, 1.91152, 357.178, 156.712, -0.0332031, 0.0205078, 0.137695, 1.40625, 0.015625, -9.92285, 1.25.2022 18:20:10.226
1037, 1.92368, 357.174, 156.648, -0.0107422, -0.0449219, 0.121094, 1.30078, -0.414062, -8.24512, 1.25.2022 18:20:10.234
1038, 1.92404, 357.18, 156.599, 0.00390625, -0.0244141, 0.119141, 0.0078125, -0.148438, -11.9932, 1.25.2022 18:20:10.242
1039, 1.91415, 357.173, 156.54, 0.00878906, 0.00976562, 0.12793, 0.166016, 1.1709, -9.20117, 1.25.2022 18:20:10.250
1040, 1.90974, 357.159, 156.476, 0.0234375, 0.0195312, 0.130859, 0.229492, 0.746094, -8.66992, 1.25.2022 18:20:10.258
1041, 1.90014, 357.152, 156.419, -0.00195312, -0.0322266, 0.131836, -0.676758, 1.07422, -7.62109, 1.25.2022 18:20:10.266
1042, 1.90686, 357.157, 156.355, -0.0185547, -0.00390625, 0.135742, -0.672852, 0.668945, -10.6182, 1.25.2022 18:20:10.274
1043, 1.9178, 357.146, 156.299, -0.0244141, -0.00390625, 0.132812, -0.0253906, 0.216797, -11.208, 1.25.2022 18:20:10.282
1044, 1.92276, 357.143, 156.233, -0.0234375, 0.00292969, 0.130859, 0.515625, -0.0712891, -10.6387, 1.25.2022 18:20:10.290
1045, 1.92683, 357.134, 156.177, -0.00195312, 0.00292969, 0.123047, 1.02539, -0.379883, -8.01758, 1.25.2022 18:20:10.298
1046, 1.92944, 357.118, 156.12, 0.0107422, 0.0185547, 0.121094, 0.556641, 0.444336, -9.9707, 1.25.2022 18:20:10.306
1047, 1.91834, 357.105, 156.063, 0.0332031, 0.0205078, 0.120117, -0.150391, 0.857422, -12.3174, 1.25.2022 18:20:10.314
1048, 1.89886, 357.086, 156.012, 0.0341797, 0.0322266, 0.12207, 0.135742, 0.928711, -8.42969, 1.25.2022 18:20:10.322
1049, 1.88627, 357.066, 155.955, 0.015625, 0.00488281, 0.120117, -0.0400391, 1.25293, -6.25391, 1.25.2022 18:20:10.330
1050, 1.87775, 357.067, 155.897, 0.00488281, -0.0351562, 0.116211, -1.03516, 0.304688, -8.37402, 1.25.2022 18:20:10.338
1051, 1.88639, 357.078, 155.848, -0.0166016, -0.0263672, 0.115234, -0.833984, 0.0732422, -11.2275, 1.25.2022 18:20:10.346
1052, 1.8987, 357.074, 155.791, -0.0439453, -0.00390625, 0.116211, 1.09277, -0.411133, -11.418, 1.25.2022 18:20:10.354
1053, 1.90705, 357.086, 155.74, -0.0185547, -0.0546875, 0.104492, 0.775391, -0.839844, -9.34668, 1.25.2022 18:20:10.362
1054, 1.91572, 357.097, 155.691, -0.0117188, -0.0351562, 0.102539, 0.637695, -0.238281, -9.20703, 1.25.2022 18:20:10.370
1055, 1.91577, 357.103, 155.64, 0.00488281, 0.00585938, 0.107422, 0.375977, 0.170898, -10.916, 1.25.2022 18:20:10.378
1056, 1.91169, 357.089, 155.591, 0.00390625, 0.0351562, 0.115234, 0.674805, 1.24707, -9.28027, 1.25.2022 18:20:10.386
1057, 1.90877, 357.081, 155.54, 0.00488281, -0.0234375, 0.115234, -0.798828, 1.20801, -8.59375, 1.25.2022 18:20:10.394
1058, 1.9008, 357.082, 155.49, 0.00683594, -0.0126953, 0.111328, -1.3125, 0.251953, -10.9219, 1.25.2022 18:20:10.402
1059, 1.9062, 357.079, 155.439, -0.0214844, 0.00195312, 0.109375, -0.717773, 0.506836, -10.0479, 1.25.2022 18:20:10.410
1060, 1.91998, 357.082, 155.383, -0.0439453, -0.0117188, 0.109375, 0.428711, 0.360352, -7.60254, 1.25.2022 18:20:10.418
1061, 1.93576, 357.092, 155.341, -0.0234375, -0.0625, 0.103516, 0.0380859, -0.435547, -9.5332, 1.25.2022 18:20:10.426
1062, 1.94032, 357.119, 155.29, -0.015625, -0.0478516, 0.102539, 0.595703, 0.0400391, -9.7373, 1.25.2022 18:20:10.434
1063, 1.9419, 357.131, 155.239, 0.00585938, -0.0361328, 0.103516, -0.0791016, 0.670898, -12.1846, 1.25.2022 18:20:10.442
1064, 1.93395, 357.132, 155.189, 0.0185547, 0.00585938, 0.108398, 0.75293, 0.71582, -9.12793, 1.25.2022 18:20:10.450
1065, 1.9257, 357.133, 155.138, 0.0166016, -0.0126953, 0.108398, -0.1875, 0.797852, -8.52051, 1.25.2022 18:20:10.458
1066, 1.918, 357.134, 155.096, 0.0292969, 0.00976562, 0.105469, -1.15234, 0.87793, -10.6641, 1.25.2022 18:20:10.464
1067, 1.9052, 357.114, 155.045, 0.0253906, 0.0615234, 0.106445, -0.078125, 0.486328, -10.2812, 1.25.2022 18:20:10.472
1068, 1.89117, 357.087, 154.995, 0.00292969, 0.03125, 0.0986328, -0.189453, 0.49707, -10.6592, 1.25.2022 18:20:10.480
1069, 1.88997, 357.086, 154.952, 0.0117188, -0.0126953, 0.0888672, -0.425781, 0.226562, -7.77637, 1.25.2022 18:20:10.488
1070, 1.88068, 357.08, 154.916, 0.0175781, 0.0107422, 0.0849609, -0.226562, -0.0732422, -7.91602, 1.25.2022 18:20:10.496
1071, 1.87167, 357.075, 154.881, 0.0244141, 0.0117188, 0.0771484, 0.391602, -0.231445, -8.85059, 1.25.2022 18:20:10.504
1072, 1.86389, 357.076, 154.845, 0.0195312, -0.00488281, 0.0712891, 0.194336, 0.360352, -11.4814, 1.25.2022 18:20:10.512
1073, 1.85764, 357.083, 154.809, 0.0078125, -0.0429688, 0.0693359, 0.0234375, 0.535156, -9.77344, 1.25.2022 18:20:10.520
1074, 1.85594, 357.112, 154.779, 0.00585938, -0.0742188, 0.0615234, -1.9248, 0.470703, -11.1611, 1.25.2022 18:20:10.528
