Seq, Rot x, Rot y, Rot z, Vel x, Vel y, Vel z, Acc x, Acc y, Acc z, Time(m.d.y h:m:s.ms)
0, 2.13939, 0.0877372, 165.895, -0.000976562, 0, 0.00195312, -0.015625, 0.361328, -9.71387, 1.28.2022 17:49:49.923
1, 2.13939, 0.0877372, 165.895, -0.000976562, 0, 0.00195312, -0.0419922, 0.323242, -9.69824, 1.28.2022 17:49:49.931
2, 2.13939, 0.0877372, 165.895, 0, 0, 0.00195312, -0.0800781, 0.344727, -9.71777, 1.28.2022 17:49:49.939
3, 2.13939, 0.0877372, 165.895, -0.00195312, -0.000976562, 0.00195312, -0.00390625, 0.364258, -9.71387, 1.28.2022 17:49:49.947
4, 2.13939, 0.0877372, 165.895, -0.000976562, 0.000976562, 0.00292969, -0.0712891, 0.367188, -9.74609, 1.28.2022 17:49:49.955
5, 2.13939, 0.0877372, 165.895, -0.000976562, 0, 0.00292969, -0.0390625, 0.361328, -9.69434, 1.28.2022 17:49:49.963
6, 2.13854, 0.0807973, 165.896, -0.00195312, 0.000976562, 0.00195312, 0.0078125, 0.323242, -9.73145, 1.28.2022 17:49:49.971
7, 2.13849, 0.0806684, 165.888, -0.00195312, 0, 0.00195312, -0.0976562, 0.357422, -9.74316, 1.28.2022 17:49:49.979
8, 2.13849, 0.0806684, 165.888, -0.00195312, 0, 0.00292969, -0.0380859, 0.34082, -9.72852, 1.28.2022 17:49:49.987
9, 2.13849, 0.0806684, 165.888, -0.000976562, -0.000976562, 0.00195312, -0.0380859, 0.319336, -9.73633, 1.28.2022 17:49:49.995
10, 2.13849, 0.0806684, 165.888, -0.000976562, 0, 0.00195312, -0.0976562, 0.352539, -9.73926, 1.28.2022 17:49:50.003
11, 2.13849, 0.0806684, 165.888, -0.000976562, 0, 0.00292969, -0.0136719, 0.333008, -9.70801, 1.28.2022 17:49:50.011
12, 2.13888, 0.0806475, 165.889, -0.00195312, 0, 0.00292969, -0.0664062, 0.323242, -9.72363, 1.28.2022 17:49:50.019
13, 2.13884, 0.0805186, 165.882, -0.000976562, 0.000976562, 0.00195312, -0.0683594, 0.339844, -9.71875, 1.28.2022 17:49:50.027
14, 2.13884, 0.0805186, 165.882, -0.000976562, 0, 0.00195312, -0.015625, 0.318359, -9.71777, 1.28.2022 17:49:50.035
15, 2.13884, 0.0805186, 165.882, -0.000976562, 0, 0.00292969, -0.113281, 0.34375, -9.68652, 1.28.2022 17:49:50.043
16, 2.14577, 0.0796592, 165.882, -0.00195312, 0, 0.00195312, -0.0166016, 0.314453, -9.73438, 1.28.2022 17:49:50.051
17, 2.14577, 0.0796592, 165.882, -0.00195312, 0, 0.00195312, -0.0537109, 0.337891, -9.70898, 1.28.2022 17:49:50.059
18, 2.14577, 0.0796592, 165.882, -0.000976562, 0, 0.00292969, -0.0771484, 0.353516, -9.67773, 1.28.2022 17:49:50.067
19, 2.14573, 0.0795299, 165.875, 0, 0, 0.00292969, -0.015625, 0.317383, -9.67285, 1.28.2022 17:49:50.075
20, 2.14573, 0.0795299, 165.875, -0.000976562, -0.000976562, 0.00390625, -0.0703125, 0.3125, -9.68555, 1.28.2022 17:49:50.083
21, 2.14573, 0.0795299, 165.875, -0.000976562, 0.000976562, 0.00292969, -0.0615234, 0.334961, -9.70703, 1.28.2022 17:49:50.091
22, 2.14573, 0.0795299, 165.875, -0.000976562, 0.000976562, 0.00195312, -0.0400391, 0.306641, -9.71484, 1.28.2022 17:49:50.099
23, 2.14573, 0.0795299, 165.875, -0.000976562, 0, 0.00195312, -0.109375, 0.331055, -9.72266, 1.28.2022 17:49:50.107
24, 2.14569, 0.0794005, 165.868, -0.00195312, 0, 0.00292969, -0.0302734, 0.334961, -9.70996, 1.28.2022 17:49:50.115
25, 2.14483, 0.0724611, 165.868, -0.00195312, 0.000976562, 0.00195312, -0.0166016, 0.351562, -9.78027, 1.28.2022 17:49:50.123
26, 2.14483, 0.0724611, 165.868, -0.000976562, 0, 0.00195312, -0.0683594, 0.342773, -9.72266, 1.28.2022 17:49:50.131
27, 2.14483, 0.0724611, 165.868, -0.000976562, 0.000976562, 0.00195312, -0.0136719, 0.323242, -9.71289, 1.28.2022 17:49:50.139
28, 2.14483, 0.0724611, 165.868, -0.00292969, 0.000976562, 0.00195312, -0.09375, 0.332031, -9.68262, 1.28.2022 17:49:50.147
29, 2.14483, 0.0724611, 165.868, -0.00195312, -0.000976562, 0.00195312, -0.0585938, 0.339844, -9.69238, 1.28.2022 17:49:50.155
30, 2.14483, 0.0724611, 165.868, -0.000976562, -0.000976562, 0.00292969, -0.0273438, 0.303711, -9.69141, 1.28.2022 17:49:50.163
31, 2.02674, 0.256213, 165.865, 0, -0.00195312, -0.000976562, -0.109375, 0.374023, -9.74023, 1.28.2022 17:49:50.171
32, 2.00243, 0.287412, 165.865, 0.000976562, -0.000976562, -0.000976562, -0.0185547, 0.348633, -9.75391, 1.28.2022 17:49:50.179
33, 1.99635, 0.295211, 165.865, -0.000976562, -0.00195312, -0.000976562, -0.0732422, 0.331055, -9.73242, 1.28.2022 17:49:50.187
34, 1.99635, 0.295211, 165.865, -0.000976562, -0.000976562, 0, -0.0712891, 0.355469, -9.75293, 1.28.2022 17:49:50.195
35, 1.99635, 0.295211, 165.865, -0.000976562, -0.00195312, 0, -0.0263672, 0.3125, -9.74805, 1.28.2022 17:49:50.203
36, 1.99721, 0.302151, 165.865, 0, -0.000976562, -0.000976562, -0.111328, 0.323242, -9.70898, 1.28.2022 17:49:50.211
37, 1.98991, 0.303045, 165.864, 0, -0.00195312, -0.00195312, -0.0664062, 0.344727, -9.71777, 1.28.2022 17:49:50.219
38, 1.98991, 0.303045, 165.864, 0, -0.00195312, -0.000976562, -0.0341797, 0.341797, -9.68848, 1.28.2022 17:49:50.227
39, 1.98991, 0.303045, 165.864, 0, -0.000976562, 0, -0.0986328, 0.333984, -9.67285, 1.28.2022 17:49:50.235
40, 1.98991, 0.303045, 165.864, -0.000976562, -0.000976562, 0, -0.0234375, 0.337891, -9.71484, 1.28.2022 17:49:50.243
41, 1.98991, 0.303045, 165.864, -0.000976562, -0.000976562, -0.000976562, -0.0517578, 0.331055, -9.72168, 1.28.2022 17:49:50.251
42, 1.99077, 0.309985, 165.864, -0.000976562, -0.000976562, -0.000976562, -0.0683594, 0.337891, -9.72754, 1.28.2022 17:49:50.259
43, 1.99077, 0.309985, 165.864, -0.00195312, -0.000976562, -0.000976562, -0.0234375, 0.319336, -9.73633, 1.28.2022 17:49:50.267
44, 1.99077, 0.309985, 165.864, -0.000976562, -0.00195312, -0.000976562, -0.101562, 0.331055, -9.7207, 1.28.2022 17:49:50.275
45, 1.99077, 0.309985, 165.864, -0.000976562, -0.00195312, 0, -0.0634766, 0.360352, -9.68262, 1.28.2022 17:49:50.283
46, 1.99077, 0.309985, 165.864, -0.000976562, -0.000976562, 0, -0.0371094, 0.328125, -9.72168, 1.28.2022 17:49:50.291
47, 1.99077, 0.309985, 165.864, 0, -0.000976562, -0.000976562, -0.0878906, 0.337891, -9.7207, 1.28.2022 17:49:50.299
48, 1.99077, 0.309985, 165.864, -0.000976562, -0.000976562, -0.000976562, -0.0371094, 0.325195, -9.70996, 1.28.2022 17:49:50.307
49, 1.99163, 0.316925, 165.863, -0.000976562, -0.000976562, 0, -0.0664062, 0.321289, -9.70898, 1.28.2022 17:49:50.315
50, 1.99163, 0.316925, 165.863, -0.000976562, 0, 0, -0.0810547, 0.347656, -9.73438, 1.28.2022 17:49:50.323
51, 1.99199, 0.31689, 165.864, -0.000976562, -0.000976562, 0, -0.0107422, 0.31543, -9.69434, 1.28.2022 17:49:50.331
52, 1.99199, 0.31689, 165.864, -0.000976562, -0.000976562, -0.000976562, -0.0683594, 0.326172, -9.71387, 1.28.2022 17:49:50.339
53, 1.99163, 0.316925, 165.863, -0.000976562, -0.000976562, -0.000976562, -0.0439453, 0.327148, -9.67383, 1.28.2022 17:49:50.347
54, 1.99163, 0.316925, 165.863, 0, -0.000976562, 0, -0.0136719, 0.364258, -9.72363, 1.28.2022 17:49:50.355
55, 1.99163, 0.316925, 165.863, 0, -0.000976562, -0.000976562, -0.0947266, 0.345703, -9.73242, 1.28.2022 17:49:50.363
56, 1.99163, 0.316925, 165.863, 0, -0.000976562, -0.000976562, -0.0166016, 0.326172, -9.72949, 1.28.2022 17:49:50.371
57, 1.99163, 0.316925, 165.863, 0, -0.00195312, 0, -0.0546875, 0.352539, -9.73242, 1.28.2022 17:49:50.379
58, 1.99163, 0.316925, 165.863, 0, -0.000976562, 0, -0.0830078, 0.342773, -9.73242, 1.28.2022 17:49:50.387
59, 1.99163, 0.316925, 165.863, -0.000976562, -0.00195312, -0.000976562, -0.0283203, 0.34082, -9.73047, 1.28.2022 17:49:50.395
60, 1.99199, 0.31689, 165.864, 0, -0.00195312, 0, -0.106445, 0.357422, -9.71973, 1.28.2022 17:49:50.403
61, 1.99199, 0.31689, 165.864, -0.000976562, -0.000976562, 0, -0.0498047, 0.326172, -9.73535, 1.28.2022 17:49:50.411
62, 1.99199, 0.31689, 165.864, 0.000976562, -0.000976562, -0.000976562, -0.0185547, 0.304688, -9.72949, 1.28.2022 17:49:50.419
63, 1.99199, 0.31689, 165.864, 0, 0, -0.000976562, -0.0859375, 0.352539, -9.74414, 1.28.2022 17:49:50.427
64, 1.99199, 0.31689, 165.864, 0, 0, 0, -0.0302734, 0.321289, -9.73828, 1.28.2022 17:49:50.435
65, 1.99199, 0.31689, 165.864, 0, -0.000976562, -0.000976562, -0.0664062, 0.34375, -9.74707, 1.28.2022 17:49:50.443
66, 1.99163, 0.316925, 165.863, -0.000976562, -0.000976562, -0.000976562, -0.0751953, 0.327148, -9.68555, 1.28.2022 17:49:50.451
67, 1.98469, 0.317785, 165.863, 0, -0.000976562, -0.00195312, -0.00292969, 0.329102, -9.66504, 1.28.2022 17:49:50.459
68, 1.98469, 0.317785, 165.863, 0, -0.000976562, -0.000976562, -0.0908203, 0.363281, -9.7627, 1.28.2022 17:49:50.467
69, 1.99163, 0.316925, 165.863, -0.000976562, 0, -0.000976562, -0.0419922, 0.360352, -9.6875, 1.28.2022 17:49:50.475
70, 1.99163, 0.316925, 165.863, -0.000976562, 0, 0, -0.0478516, 0.333984, -9.75195, 1.28.2022 17:49:50.483
71, 1.99163, 0.316925, 165.863, 0, 0, 0, -0.0878906, 0.335938, -9.7207, 1.28.2022 17:49:50.491
72, 1.99163, 0.316925, 165.863, 0, 0, -0.000976562, -0.0166016, 0.338867, -9.74316, 1.28.2022 17:49:50.499
73, 1.99163, 0.316925, 165.863, 0, 0, -0.000976562, -0.0751953, 0.348633, -9.68457, 1.28.2022 17:49:50.507
74, 1.99163, 0.316925, 165.863, -0.000976562, -0.000976562, -0.000976562, -0.0703125, 0.341797, -9.69727, 1.28.2022 17:49:50.515
75, 1.99163, 0.316925, 165.863, 0, 0, -0.000976562, 0.0107422, 0.320312, -9.70117, 1.28.2022 17:49:50.523
76, 1.99163, 0.316925, 165.863, 0, 0, -0.000976562, -0.0976562, 0.360352, -9.73828, 1.28.2022 17:49:50.531
77, 1.99163, 0.316925, 165.863, -0.000976562, 0, 0, -0.0351562, 0.34082, -9.73535, 1.28.2022 17:49:50.539
78, 1.99163, 0.316925, 165.863, -0.000976562, 0, -0.000976562, -0.0380859, 0.314453, -9.74121, 1.28.2022 17:49:50.547
79, 1.99163, 0.316925, 165.863, -0.000976562, 0, 0, -0.0927734, 0.331055, -9.73438, 1.28.2022 17:49:50.555
80, 1.99163, 0.316925, 165.863, 0, 0, -0.000976562, -0.00683594, 0.331055, -9.74316, 1.28.2022 17:49:50.563
81, 1.99163, 0.316925, 165.863, 0, 0.000976562, 0, -0.0595703, 0.328125, -9.73047, 1.28.2022 17:49:50.571
82, 1.99163, 0.316925, 165.863, 0, 0, 0, -0.0634766, 0.342773, -9.73047, 1.28.2022 17:49:50.579
83, 1.99077, 0.309985, 165.864, -0.000976562, -0.000976562, -0.000976562, -0.0185547, 0.337891, -9.7168, 1.28.2022 17:49:50.587
84, 1.99077, 0.309985, 165.864, -0.000976562, -0.000976562, 0, -0.112305, 0.353516, -9.75781, 1.28.2022 17:49:50.595
85, 1.99077, 0.309985, 165.864, -0.000976562, 0, 0, -0.0517578, 0.344727, -9.72559, 1.28.2022 17:49:50.603
86, 1.99077, 0.309985, 165.864, -0.000976562, 0, -0.000976562, -0.046875, 0.311523, -9.70996, 1.28.2022 17:49:50.611
87, 1.99163, 0.316925, 165.863, 0, 0, -0.000976562, -0.0996094, 0.34082, -9.72266, 1.28.2022 17:49:50.619
88, 1.99077, 0.309985, 165.864, 0, 0, -0.00195312, 0.0078125, 0.30957, -9.74121, 1.28.2022 17:49:50.627
89, 1.99077, 0.309985, 165.864, 0, -0.000976562, -0.00195312, -0.0634766, 0.342773, -9.72754, 1.28.2022 17:49:50.635
90, 1.99077, 0.309985, 165.864, 0, 0, -0.000976562, -0.0410156, 0.34082, -9.67383, 1.28.2022 17:49:50.643
91, 1.99077, 0.309985, 165.864, 0, 0, 0, -0.0400391, 0.34082, -9.73047, 1.28.2022 17:49:50.651
92, 1.99077, 0.309985, 165.864, 0, 0, 0, -0.117188, 0.355469, -9.66016, 1.28.2022 17:49:50.659
93, 1.99077, 0.309985, 165.864, 0, 0, -0.000976562, -0.0390625, 0.362305, -9.67285, 1.28.2022 17:49:50.667
94, 1.99077, 0.309985, 165.864, -0.000976562, 0, -0.000976562, -0.0419922, 0.323242, -9.72363, 1.28.2022 17:49:50.675
95, 1.99077, 0.309985, 165.864, 0, 0, -0.000976562, -0.0712891, 0.369141, -9.72656, 1.28.2022 17:49:50.683
96, 1.99077, 0.309985, 165.864, 0, 0, -0.000976562, 0.0146484, 0.30957, -9.74219, 1.28.2022 17:49:50.691
97, 1.99077, 0.309985, 165.864, 0, 0.000976562, -0.000976562, -0.0810547, 0.326172, -9.74023, 1.28.2022 17:49:50.699
98, 1.99077, 0.309985, 165.864, -0.000976562, 0, -0.000976562, -0.0566406, 0.354492, -9.70898, 1.28.2022 17:49:50.707
99, 1.99077, 0.309985, 165.864, 0, 0, -0.000976562, -0.00683594, 0.347656, -9.72363, 1.28.2022 17:49:50.715
100, 1.99077, 0.309985, 165.864, 0, 0, -0.000976562, -0.0830078, 0.369141, -9.74121, 1.28.2022 17:49:50.723
101, 1.9977, 0.309124, 165.864, 0, 0, -0.000976562, -0.0332031, 0.342773, -9.73047, 1.28.2022 17:49:50.731
102, 1.9977, 0.309124, 165.864, -0.000976562, 0, -0.000976562, -0.0380859, 0.326172, -9.7334, 1.28.2022 17:49:50.739
103, 1.9977, 0.309124, 165.864, -0.000976562, -0.000976562, -0.000976562, -0.0732422, 0.333984, -9.74219, 1.28.2022 17:49:50.747
104, 1.9977, 0.309124, 165.864, 0, -0.000976562, 0, 0.00292969, 0.328125, -9.72656, 1.28.2022 17:49:50.755
105, 1.9977, 0.309124, 165.864, 0, -0.000976562, 0, -0.0712891, 0.341797, -9.75586, 1.28.2022 17:49:50.763
106, 1.9977, 0.309124, 165.864, 0, 0, -0.000976562, -0.0595703, 0.333984, -9.74023, 1.28.2022 17:49:50.771
107, 1.9977, 0.309124, 165.864, -0.000976562, 0, -0.000976562, -0.0117188, 0.335938, -9.73633, 1.28.2022 17:49:50.779
108, 1.9977, 0.309124, 165.864, 0, 0, 0, -0.0664062, 0.369141, -9.73926, 1.28.2022 17:49:50.787
109, 1.99684, 0.302184, 165.864, -0.000976562, 0, 0, -0.0136719, 0.342773, -9.71191, 1.28.2022 17:49:50.795
110, 1.99684, 0.302184, 165.864, -0.000976562, 0, 0, -0.0498047, 0.311523, -9.71973, 1.28.2022 17:49:50.803
111, 1.99684, 0.302184, 165.864, 0, 0, 0, -0.0810547, 0.353516, -9.75781, 1.28.2022 17:49:50.809
112, 1.99684, 0.302184, 165.864, -0.000976562, 0, -0.000976562, 0.000976562, 0.321289, -9.71484, 1.28.2022 17:49:50.817
113, 1.99684, 0.302184, 165.864, -0.000976562, 0, 0, -0.0830078, 0.347656, -9.72949, 1.28.2022 17:49:50.825
114, 1.99684, 0.302184, 165.864, 0, 0, 0, -0.0722656, 0.330078, -9.68359, 1.28.2022 17:49:50.833
115, 1.99721, 0.302151, 165.865, 0, -0.000976562, -0.000976562, -0.0419922, 0.344727, -9.71387, 1.28.2022 17:49:50.841
116, 1.99721, 0.302151, 165.865, 0, -0.000976562, 0, -0.0908203, 0.353516, -9.75586, 1.28.2022 17:49:50.849
117, 1.99721, 0.302151, 165.865, 0, -0.000976562, -0.000976562, -0.00683594, 0.319336, -9.72949, 1.28.2022 17:49:50.857
118, 1.99721, 0.302151, 165.865, 0, 0, -0.000976562, -0.0253906, 0.316406, -9.72168, 1.28.2022 17:49:50.865
119, 1.99721, 0.302151, 165.865, -0.000976562, 0, -0.000976562, -0.0898438, 0.364258, -9.71973, 1.28.2022 17:49:50.873
120, 1.99684, 0.302184, 165.864, -0.000976562, 0, -0.000976562, -0.0371094, 0.339844, -9.70215, 1.28.2022 17:49:50.881
121, 1.99684, 0.302184, 165.864, 0, 0, -0.000976562, -0.0664062, 0.34082, -9.75098, 1.28.2022 17:49:50.889
122, 1.99684, 0.302184, 165.864, 0, 0, 0, -0.0380859, 0.354492, -9.73242, 1.28.2022 17:49:50.897
123, 1.99721, 0.302151, 165.865, 0, 0.000976562, -0.000976562, 0.00488281, 0.311523, -9.73926, 1.28.2022 17:49:50.905
124, 1.99721, 0.302151, 165.865, 0, 0, 0, -0.0947266, 0.357422, -9.72656, 1.28.2022 17:49:50.913
125, 1.99721, 0.302151, 165.865, 0, 0, -0.000976562, -0.0419922, 0.323242, -9.72168, 1.28.2022 17:49:50.921
126, 1.99721, 0.302151, 165.865, 0, 0, -0.000976562, -0.0595703, 0.333008, -9.72852, 1.28.2022 17:49:50.929
127, 1.99721, 0.302151, 165.865, 0, -0.000976562, 0.000976562, -0.0849609, 0.355469, -9.68262, 1.28.2022 17:49:50.937
128, 1.99721, 0.302151, 165.865, 0, 0, 0, -0.0185547, 0.326172, -9.73633, 1.28.2022 17:49:50.945
129, 1.99721, 0.302151, 165.865, 0.000976562, -0.000976562, -0.000976562, -0.0996094, 0.344727, -9.71094, 1.28.2022 17:49:50.953
130, 1.99721, 0.302151, 165.865, 0, -0.000976562, -0.000976562, -0.0664062, 0.321289, -9.73535, 1.28.2022 17:49:50.961
131, 1.99721, 0.302151, 165.865, 0, -0.000976562, -0.000976562, -0.0517578, 0.326172, -9.73047, 1.28.2022 17:49:50.969
132, 1.99721, 0.302151, 165.865, 0, -0.000976562, 0, -0.0927734, 0.333984, -9.74414, 1.28.2022 17:49:50.977
133, 1.99721, 0.302151, 165.865, -0.000976562, 0, -0.000976562, -0.0253906, 0.311523, -9.73438, 1.28.2022 17:49:50.985
134, 1.99721, 0.302151, 165.865, -0.000976562, -0.000976562, -0.000976562, -0.0703125, 0.341797, -9.68262, 1.28.2022 17:49:50.993
135, 1.99721, 0.302151, 165.865, 0, -0.000976562, 0, -0.0615234, 0.360352, -9.75098, 1.28.2022 17:49:51.001
136, 1.98941, 0.296072, 165.865, 0.000976562, -0.00195312, 0, -0.00195312, 0.328125, -9.71777, 1.28.2022 17:49:51.009
137, 1.99027, 0.303011, 165.865, 0, 0, -0.000976562, -0.128906, 0.344727, -9.77148, 1.28.2022 17:49:51.017
138, 1.99027, 0.303011, 165.865, 0, 0, -0.000976562, -0.0683594, 0.354492, -9.7207, 1.28.2022 17:49:51.025
139, 1.99027, 0.303011, 165.865, -0.000976562, -0.000976562, 0, -0.0253906, 0.316406, -9.71777, 1.28.2022 17:49:51.033
140, 1.99027, 0.303011, 165.865, -0.000976562, 0.000976562, 0, -0.0664062, 0.335938, -9.72363, 1.28.2022 17:49:51.041
141, 1.99027, 0.303011, 165.865, 0, 0, 0, -0.0283203, 0.345703, -9.72852, 1.28.2022 17:49:51.049
142, 1.99027, 0.303011, 165.865, 0, 0, -0.000976562, -0.0498047, 0.328125, -9.71875, 1.28.2022 17:49:51.057
143, 1.99027, 0.303011, 165.865, -0.000976562, 0.000976562, -0.000976562, -0.0439453, 0.341797, -9.70215, 1.28.2022 17:49:51.065
144, 1.98941, 0.296072, 165.865, 0, 0.000976562, -0.000976562, -0.00683594, 0.325195, -9.76465, 1.28.2022 17:49:51.073
145, 1.98941, 0.296072, 165.865, 0, 0, 0, -0.0957031, 0.348633, -9.7627, 1.28.2022 17:49:51.081
146, 1.98941, 0.296072, 165.865, 0.000976562, 0, -0.000976562, -0.0615234, 0.339844, -9.71582, 1.28.2022 17:49:51.089
147, 1.98941, 0.296072, 165.865, 0, -0.000976562, 0, -0.03125, 0.345703, -9.74902, 1.28.2022 17:49:51.097
148, 1.98941, 0.296072, 165.865, -0.000976562, 0, 0, -0.102539, 0.374023, -9.73535, 1.28.2022 17:49:51.105
149, 1.98941, 0.296072, 165.865, 0, 0, 0, 0.000976562, 0.308594, -9.69434, 1.28.2022 17:49:51.113
150, 1.98941, 0.296072, 165.865, 0, 0, -0.000976562, -0.0332031, 0.321289, -9.74023, 1.28.2022 17:49:51.121
151, 1.98941, 0.296072, 165.865, 0, 0, -0.000976562, -0.0654297, 0.351562, -9.7041, 1.28.2022 17:49:51.129
152, 1.98941, 0.296072, 165.865, 0, 0, -0.000976562, -0.00488281, 0.300781, -9.74902, 1.28.2022 17:49:51.137
153, 1.98905, 0.296105, 165.864, -0.000976562, 0, -0.000976562, -0.0712891, 0.324219, -9.7334, 1.28.2022 17:49:51.145
154, 1.98905, 0.296105, 165.864, 0, 0, -0.000976562, -0.0712891, 0.345703, -9.72754, 1.28.2022 17:49:51.153
155, 1.98905, 0.296105, 165.864, 0, 0, -0.000976562, -0.0449219, 0.345703, -9.74219, 1.28.2022 17:49:51.161
156, 1.98905, 0.296105, 165.864, -0.000976562, 0.000976562, -0.000976562, -0.0800781, 0.369141, -9.71777, 1.28.2022 17:49:51.169
157, 1.98819, 0.289165, 165.864, -0.000976562, 0, 0, 0.000976562, 0.331055, -9.72461, 1.28.2022 17:49:51.177
158, 1.98819, 0.289165, 165.864, -0.00195312, -0.000976562, -0.000976562, -0.0732422, 0.323242, -9.7041, 1.28.2022 17:49:51.185
159, 1.99513, 0.288304, 165.864, -0.000976562, 0, 0, -0.0683594, 0.339844, -9.7207, 1.28.2022 17:49:51.193
160, 1.99513, 0.288304, 165.864, -0.000976562, 0, -0.000976562, -0.0253906, 0.333008, -9.70703, 1.28.2022 17:49:51.201
161, 1.99513, 0.288304, 165.864, 0, -0.000976562, -0.000976562, -0.121094, 0.385742, -9.73047, 1.28.2022 17:49:51.209
162, 1.99598, 0.295244, 165.864, -0.000976562, -0.000976562, 0, -0.0478516, 0.333984, -9.74023, 1.28.2022 17:49:51.217
163, 1.99598, 0.295244, 165.864, -0.000976562, -0.000976562, -0.000976562, -0.00878906, 0.328125, -9.72949, 1.28.2022 17:49:51.225
164, 1.99598, 0.295244, 165.864, 0, -0.000976562, 0, -0.116211, 0.360352, -9.75195, 1.28.2022 17:49:51.233
165, 1.99635, 0.295211, 165.865, -0.000976562, 0, 0, -0.0205078, 0.342773, -9.7168, 1.28.2022 17:49:51.241
166, 1.99635, 0.295211, 165.865, 0, 0, 0, -0.0751953, 0.339844, -9.69238, 1.28.2022 17:49:51.249
167, 1.99635, 0.295211, 165.865, 0.000976562, 0, -0.000976562, -0.0712891, 0.362305, -9.72461, 1.28.2022 17:49:51.257
168, 1.99721, 0.302151, 165.865, 0, -0.000976562, -0.000976562, -0.0253906, 0.328125, -9.70312, 1.28.2022 17:49:51.265
169, 1.99721, 0.302151, 165.865, 0, 0, -0.000976562, -0.0898438, 0.347656, -9.72754, 1.28.2022 17:49:51.273
170, 2.00415, 0.301291, 165.864, -0.000976562, 0, -0.000976562, -0.0351562, 0.344727, -9.7168, 1.28.2022 17:49:51.281
171, 2.00415, 0.301291, 165.864, -0.000976562, 0, -0.000976562, -0.0234375, 0.308594, -9.70801, 1.28.2022 17:49:51.289
172, 2.00415, 0.301291, 165.864, 0, -0.000976562, 0, -0.0869141, 0.375977, -9.70312, 1.28.2022 17:49:51.297
173, 2.00415, 0.301291, 165.864, 0, 0, -0.000976562, -0.0302734, 0.333008, -9.70508, 1.28.2022 17:49:51.305
174, 2.00415, 0.301291, 165.864, 0, 0, 0, -0.0585938, 0.323242, -9.71191, 1.28.2022 17:49:51.313
175, 2.00415, 0.301291, 165.864, 0, 0.000976562, 0, -0.0605469, 0.34082, -9.6709, 1.28.2022 17:49:51.321
176, 2.00415, 0.301291, 165.864, 0, 0, 0, -0.015625, 0.349609, -9.7168, 1.28.2022 17:49:51.329
177, 2.00415, 0.301291, 165.864, 0, 0.000976562, 0, -0.0878906, 0.369141, -9.73633, 1.28.2022 17:49:51.337
178, 2.00415, 0.301291, 165.864, 0, -0.000976562, -0.000976562, -0.0371094, 0.351562, -9.70898, 1.28.2022 17:49:51.345
179, 2.00415, 0.301291, 165.864, 0, -0.000976562, -0.000976562, -0.0253906, 0.323242, -9.71484, 1.28.2022 17:49:51.353
180, 2.01108, 0.300431, 165.864, 0, 0, 0, -0.0830078, 0.375977, -9.71973, 1.28.2022 17:49:51.361
181, 2.01108, 0.300431, 165.864, 0, 0, -0.000976562, -0.0283203, 0.30957, -9.73145, 1.28.2022 17:49:51.369
182, 2.01108, 0.300431, 165.864, 0, -0.000976562, -0.000976562, -0.0878906, 0.333984, -9.75879, 1.28.2022 17:49:51.377
183, 2.01108, 0.300431, 165.864, -0.000976562, 0, -0.000976562, -0.0615234, 0.342773, -9.7373, 1.28.2022 17:49:51.385
184, 2.01108, 0.300431, 165.864, -0.000976562, 0, -0.000976562, -0.00683594, 0.331055, -9.75, 1.28.2022 17:49:51.393
185, 2.01108, 0.300431, 165.864, -0.000976562, 0, 0, -0.0947266, 0.323242, -9.70215, 1.28.2022 17:49:51.401
186, 2.01108, 0.300431, 165.864, -0.000976562, 0, 0, -0.0634766, 0.337891, -9.72363, 1.28.2022 17:49:51.409
187, 2.01194, 0.30737, 165.864, 0, 0, 0, -0.0419922, 0.342773, -9.72363, 1.28.2022 17:49:51.417
188, 2.01194, 0.30737, 165.864, 0.000976562, 0, -0.000976562, -0.078125, 0.337891, -9.71094, 1.28.2022 17:49:51.425
189, 2.01194, 0.30737, 165.864, 0, 0, 0, -0.00390625, 0.322266, -9.69141, 1.28.2022 17:49:51.433
190, 2.01194, 0.30737, 165.864, 0.000976562, 0, -0.000976562, -0.0683594, 0.330078, -9.7002, 1.28.2022 17:49:51.441
191, 2.00501, 0.30823, 165.864, -0.000976562, -0.000976562, 0, -0.0732422, 0.364258, -9.72266, 1.28.2022 17:49:51.449
192, 2.01194, 0.30737, 165.864, -0.000976562, 0, 0, -0.0332031, 0.352539, -9.73047, 1.28.2022 17:49:51.457
193, 2.01194, 0.30737, 165.864, -0.000976562, 0, 0, -0.111328, 0.361328, -9.69629, 1.28.2022 17:49:51.465
194, 2.01194, 0.30737, 165.864, -0.000976562, 0, -0.000976562, -0.0537109, 0.354492, -9.71094, 1.28.2022 17:49:51.473
195, 2.01194, 0.30737, 165.864, -0.000976562, 0, 0, -0.0595703, 0.326172, -9.72852, 1.28.2022 17:49:51.481
196, 2.01194, 0.30737, 165.864, 0, 0, -0.000976562, -0.0712891, 0.357422, -9.73242, 1.28.2022 17:49:51.489
197, 2.01194, 0.30737, 165.864, 0, 0.000976562, 0, 0.000976562, 0.333008, -9.7168, 1.28.2022 17:49:51.497
198, 2.01194, 0.30737, 165.864, 0, 0, -0.000976562, -0.0898438, 0.333008, -9.71387, 1.28.2022 17:49:51.505
199, 2.01194, 0.30737, 165.864, 0, 0, -0.000976562, -0.0498047, 0.350586, -9.73926, 1.28.2022 17:49:51.513
200, 2.01194, 0.30737, 165.864, 0, 0, 0, -0.0185547, 0.301758, -9.71289, 1.28.2022 17:49:51.521
201, 2.0128, 0.31431, 165.864, -0.000976562, -0.000976562, -0.000976562, -0.111328, 0.380859, -9.70508, 1.28.2022 17:49:51.529
202, 2.0128, 0.31431, 165.864, 0, 0, -0.000976562, -0.046875, 0.352539, -9.72559, 1.28.2022 17:49:51.537
203, 2.0128, 0.31431, 165.864, 0.000976562, -0.000976562, -0.000976562, -0.0566406, 0.354492, -9.7041, 1.28.2022 17:49:51.545
204, 2.0128, 0.31431, 165.864, -0.000976562, -0.000976562, -0.000976562, -0.0927734, 0.357422, -9.73438, 1.28.2022 17:49:51.553
205, 2.01974, 0.31345, 165.864, 0, 0, -0.000976562, 0.0126953, 0.344727, -9.72461, 1.28.2022 17:49:51.561
206, 2.01974, 0.31345, 165.864, 0, 0, 0, -0.0722656, 0.361328, -9.69141, 1.28.2022 17:49:51.569
207, 2.01974, 0.31345, 165.864, 0, 0, 0, -0.0830078, 0.34668, -9.70801, 1.28.2022 17:49:51.577
208, 2.01974, 0.31345, 165.864, 0, -0.000976562, -0.000976562, -0.0302734, 0.303711, -9.71289, 1.28.2022 17:49:51.585
209, 2.0206, 0.320389, 165.864, 0, 0, -0.000976562, -0.0996094, 0.330078, -9.70117, 1.28.2022 17:49:51.593
210, 2.0206, 0.320389, 165.864, 0, 0.000976562, -0.000976562, -0.0273438, 0.303711, -9.68945, 1.28.2022 17:49:51.601
211, 2.0206, 0.320389, 165.864, 0, 0, -0.000976562, -0.0761719, 0.345703, -9.74414, 1.28.2022 17:49:51.609
212, 2.0206, 0.320389, 165.864, 0, 0, -0.000976562, -0.0419922, 0.357422, -9.72266, 1.28.2022 17:49:51.617
213, 2.0206, 0.320389, 165.864, 0, 0, -0.000976562, 0.0195312, 0.31543, -9.71094, 1.28.2022 17:49:51.625
214, 2.01366, 0.321249, 165.864, 0, -0.000976562, -0.000976562, -0.0566406, 0.316406, -9.72656, 1.28.2022 17:49:51.633
215, 2.0128, 0.31431, 165.864, 0, -0.000976562, -0.000976562, -0.0517578, 0.342773, -9.72559, 1.28.2022 17:49:51.641
216, 2.0128, 0.31431, 165.864, -0.000976562, 0, 0, -0.0214844, 0.338867, -9.75, 1.28.2022 17:49:51.649
217, 2.0128, 0.31431, 165.864, 0.000976562, -0.00195312, 0.000976562, -0.0996094, 0.328125, -9.71582, 1.28.2022 17:49:51.657
218, 2.0128, 0.31431, 165.864, 0, 0, 0, -0.0419922, 0.325195, -9.7002, 1.28.2022 17:49:51.665
219, 2.0128, 0.31431, 165.864, 0, 0, -0.000976562, -0.0664062, 0.337891, -9.71387, 1.28.2022 17:49:51.673
220, 2.0128, 0.31431, 165.864, 0, 0, 0, -0.0566406, 0.351562, -9.70215, 1.28.2022 17:49:51.681
221, 2.00587, 0.31517, 165.864, -0.000976562, 0, -0.000976562, 0.0126953, 0.306641, -9.7207, 1.28.2022 17:49:51.689
222, 2.00501, 0.30823, 165.864, -0.000976562, 0, -0.000976562, -0.0830078, 0.350586, -9.73438, 1.28.2022 17:49:51.697
223, 2.00501, 0.30823, 165.864, -0.000976562, 0, 0, -0.0351562, 0.362305, -9.72559, 1.28.2022 17:49:51.705
224, 2.00501, 0.30823, 165.864, 0, -0.000976562, -0.000976562, -0.00878906, 0.326172, -9.73145, 1.28.2022 17:49:51.713
225, 2.00501, 0.30823, 165.864, 0.000976562, 0, -0.000976562, -0.116211, 0.34082, -9.72266, 1.28.2022 17:49:51.721
226, 2.00501, 0.30823, 165.864, 0, -0.00195312, 0, -0.0322266, 0.338867, -9.67871, 1.28.2022 17:49:51.729
227, 2.00501, 0.30823, 165.864, -0.000976562, -0.000976562, -0.000976562, -0.0537109, 0.342773, -9.71094, 1.28.2022 17:49:51.737
228, 2.00501, 0.30823, 165.864, 0, 0, 0, -0.0546875, 0.37207, -9.74414, 1.28.2022 17:49:51.745
229, 2.00501, 0.30823, 165.864, 0, 0, -0.000976562, 0.00488281, 0.34082, -9.75293, 1.28.2022 17:49:51.753
230, 2.00415, 0.301291, 165.864, 0, 0, -0.000976562, -0.0947266, 0.34668, -9.70312, 1.28.2022 17:49:51.759
231, 2.00378, 0.301324, 165.864, 0.000976562, 0.000976562, -0.000976562, -0.046875, 0.344727, -9.70215, 1.28.2022 17:49:51.769
232, 2.00378, 0.301324, 165.864, 0, 0, -0.000976562, -0.0214844, 0.329102, -9.7666, 1.28.2022 17:49:51.775
233, 2.00378, 0.301324, 165.864, 0, 0, -0.000976562, -0.104492, 0.349609, -9.71973, 1.28.2022 17:49:51.783
234, 2.00378, 0.301324, 165.864, 0.000976562, 0, 0, -0.00683594, 0.331055, -9.74805, 1.28.2022 17:49:51.791
235, 2.00378, 0.301324, 165.864, 0, 0, 0, -0.0546875, 0.323242, -9.72363, 1.28.2022 17:49:51.799
236, 2.00415, 0.301291, 165.864, -0.000976562, -0.000976562, 0, -0.0488281, 0.365234, -9.68945, 1.28.2022 17:49:51.807
237, 2.00329, 0.294351, 165.865, 0, 0, 0, 0.000976562, 0.321289, -9.72461, 1.28.2022 17:49:51.815
238, 2.00329, 0.294351, 165.865, 0, 0, -0.000976562, -0.0917969, 0.339844, -9.71094, 1.28.2022 17:49:51.823
239, 2.00329, 0.294351, 165.865, 0, 0, -0.000976562, -0.0400391, 0.354492, -9.73047, 1.28.2022 17:49:51.831
240, 2.01022, 0.293491, 165.865, 0, 0, 0, -0.0214844, 0.335938, -9.74316, 1.28.2022 17:49:51.839
241, 2.01022, 0.293491, 165.865, -0.000976562, -0.000976562, -0.000976562, -0.0664062, 0.359375, -9.72266, 1.28.2022 17:49:51.847
242, 2.01022, 0.293491, 165.865, 0, -0.000976562, -0.000976562, -0.0283203, 0.350586, -9.73535, 1.28.2022 17:49:51.855
243, 2.01022, 0.293491, 165.865, 0.000976562, 0, 0, -0.0849609, 0.316406, -9.7207, 1.28.2022 17:49:51.863
244, 2.01022, 0.293491, 165.865, 0, 0, 0, -0.0791016, 0.363281, -9.77148, 1.28.2022 17:49:51.871
245, 2.01022, 0.293491, 165.865, 0.000976562, 0, 0, -0.015625, 0.320312, -9.70117, 1.28.2022 17:49:51.879
246, 2.01022, 0.293491, 165.865, 0, 0, -0.000976562, -0.0800781, 0.330078, -9.71387, 1.28.2022 17:49:51.887
247, 2.01022, 0.293491, 165.865, 0, 0, -0.000976562, -0.0517578, 0.371094, -9.70801, 1.28.2022 17:49:51.895
248, 2.01022, 0.293491, 165.865, 0, 0, -0.000976562, -0.0449219, 0.306641, -9.70801, 1.28.2022 17:49:51.903
249, 2.01022, 0.293491, 165.865, -0.000976562, 0, -0.000976562, -0.103516, 0.363281, -9.68848, 1.28.2022 17:49:51.911
250, 2.01022, 0.293491, 165.865, 0, 0, 0, -0.00878906, 0.331055, -9.72168, 1.28.2022 17:49:51.919
251, 2.01022, 0.293491, 165.865, 0, 0, 0, -0.0664062, 0.328125, -9.7168, 1.28.2022 17:49:51.927
252, 2.01022, 0.293491, 165.865, 0, -0.000976562, 0, -0.0800781, 0.339844, -9.7041, 1.28.2022 17:49:51.935
253, 2.01022, 0.293491, 165.865, 0, -0.000976562, -0.000976562, -0.0205078, 0.335938, -9.72363, 1.28.2022 17:49:51.943
254, 2.01022, 0.293491, 165.865, 0, 0, -0.000976562, -0.106445, 0.333984, -9.73242, 1.28.2022 17:49:51.951
255, 2.01022, 0.293491, 165.865, 0, -0.000976562, -0.000976562, -0.078125, 0.360352, -9.73633, 1.28.2022 17:49:51.959
256, 2.01108, 0.300431, 165.864, 0, -0.000976562, -0.000976562, -0.0371094, 0.330078, -9.71191, 1.28.2022 17:49:51.967
257, 2.01108, 0.300431, 165.864, 0.000976562, 0, 0, -0.0947266, 0.354492, -9.72656, 1.28.2022 17:49:51.975
258, 2.01108, 0.300431, 165.864, 0, -0.00195312, -0.000976562, -0.0175781, 0.338867, -9.66504, 1.28.2022 17:49:51.983
259, 2.01108, 0.300431, 165.864, 0, -0.000976562, -0.000976562, -0.0585938, 0.330078, -9.70508, 1.28.2022 17:49:51.991
260, 2.01194, 0.30737, 165.864, 0, -0.000976562, -0.000976562, -0.0732422, 0.318359, -9.71191, 1.28.2022 17:49:51.999
261, 2.00501, 0.30823, 165.864, -0.000976562, 0, 0, -0.00195312, 0.321289, -9.73145, 1.28.2022 17:49:52.007
262, 2.00501, 0.30823, 165.864, -0.000976562, 0, -0.000976562, -0.0917969, 0.371094, -9.70996, 1.28.2022 17:49:52.015
263, 2.01194, 0.30737, 165.864, -0.00195312, 0, -0.000976562, -0.0302734, 0.347656, -9.71875, 1.28.2022 17:49:52.023
264, 2.01194, 0.30737, 165.864, 0, 0, -0.000976562, -0.0234375, 0.333008, -9.70996, 1.28.2022 17:49:52.031
265, 2.01194, 0.30737, 165.864, 0.000976562, 0, -0.000976562, -0.0878906, 0.371094, -9.7168, 1.28.2022 17:49:52.039
266, 2.01194, 0.30737, 165.864, 0.000976562, 0.000976562, -0.000976562, 0.00976562, 0.334961, -9.71973, 1.28.2022 17:49:52.047
267, 2.01194, 0.30737, 165.864, 0, 0, 0, -0.0449219, 0.317383, -9.75488, 1.28.2022 17:49:52.055
268, 2.01108, 0.300431, 165.864, 0, 0, 0, -0.0566406, 0.349609, -9.7041, 1.28.2022 17:49:52.063
269, 2.01108, 0.300431, 165.864, 0, 0, -0.000976562, -0.0292969, 0.308594, -9.76953, 1.28.2022 17:49:52.071
270, 2.01108, 0.300431, 165.864, 0, 0, -0.000976562, -0.109375, 0.342773, -9.73145, 1.28.2022 17:49:52.079
271, 2.01108, 0.300431, 165.864, -0.00195312, 0.000976562, 0, -0.0517578, 0.333008, -9.70898, 1.28.2022 17:49:52.087
272, 2.00415, 0.301291, 165.864, -0.00195312, 0, 0, -0.0371094, 0.332031, -9.70215, 1.28.2022 17:49:52.095
273, 2.00415, 0.301291, 165.864, 0, 0, 0, -0.0761719, 0.338867, -9.75098, 1.28.2022 17:49:52.103
274, 2.00415, 0.301291, 165.864, 0, 0, -0.000976562, -0.0205078, 0.335938, -9.72656, 1.28.2022 17:49:52.111
275, 2.00415, 0.301291, 165.864, 0, 0, 0, -0.0761719, 0.347656, -9.72559, 1.28.2022 17:49:52.119
276, 2.00415, 0.301291, 165.864, 0, 0, 0, -0.0419922, 0.359375, -9.71094, 1.28.2022 17:49:52.127
277, 2.00415, 0.301291, 165.864, 0, -0.000976562, 0, 0.000976562, 0.317383, -9.68457, 1.28.2022 17:49:52.135
278, 2.00415, 0.301291, 165.864, 0, -0.000976562, -0.000976562, -0.0849609, 0.375977, -9.71973, 1.28.2022 17:49:52.143
279, 2.00415, 0.301291, 165.864, -0.00195312, 0, -0.000976562, -0.0527344, 0.376953, -9.7627, 1.28.2022 17:49:52.151
280, 2.01108, 0.300431, 165.864, -0.00195312, -0.000976562, -0.000976562, -0.0527344, 0.300781, -9.76172, 1.28.2022 17:49:52.159
281, 2.01108, 0.300431, 165.864, 0, 0, -0.000976562, -0.0732422, 0.351562, -9.69922, 1.28.2022 17:49:52.167
282, 2.01108, 0.300431, 165.864, -0.00195312, 0, 0, -0.0078125, 0.332031, -9.77344, 1.28.2022 17:49:52.175
283, 2.01108, 0.300431, 165.864, 0, 0, 0, -0.0634766, 0.347656, -9.73438, 1.28.2022 17:49:52.183
284, 2.01022, 0.293491, 165.865, 0.000976562, 0, -0.000976562, -0.0488281, 0.342773, -9.71387, 1.28.2022 17:49:52.191
285, 2.01022, 0.293491, 165.865, 0, 0, -0.000976562, 0.00488281, 0.34082, -9.7334, 1.28.2022 17:49:52.199
286, 2.01022, 0.293491, 165.865, 0, -0.000976562, -0.000976562, -0.111328, 0.349609, -9.70117, 1.28.2022 17:49:52.207
287, 2.01022, 0.293491, 165.865, -0.00195312, -0.000976562, 0, -0.0537109, 0.313477, -9.69336, 1.28.2022 17:49:52.215
288, 2.01022, 0.293491, 165.865, 0, -0.000976562, 0, -0.0615234, 0.317383, -9.75488, 1.28.2022 17:49:52.223
289, 2.01022, 0.293491, 165.865, -0.00195312, 0, -0.000976562, -0.0849609, 0.352539, -9.71582, 1.28.2022 17:49:52.231
290, 2.01022, 0.293491, 165.865, -0.00195312, 0, 0, -0.00195312, 0.316406, -9.72461, 1.28.2022 17:49:52.239
291, 2.01022, 0.293491, 165.865, -0.00195312, 0.000976562, -0.00195312, -0.0683594, 0.331055, -9.71875, 1.28.2022 17:49:52.247
292, 2.01022, 0.293491, 165.865, 0, 0, -0.000976562, -0.0634766, 0.351562, -9.71289, 1.28.2022 17:49:52.255
293, 2.01022, 0.293491, 165.865, 0, -0.000976562, 0, -0.00683594, 0.296875, -9.72266, 1.28.2022 17:49:52.263
294, 2.00329, 0.294351, 165.865, 0, 0, 0, -0.0654297, 0.334961, -9.6875, 1.28.2022 17:49:52.271
295, 2.00329, 0.294351, 165.865, 0, -0.000976562, 0, -0.0185547, 0.302734, -9.73242, 1.28.2022 17:49:52.279
296, 2.00329, 0.294351, 165.865, 0, -0.000976562, -0.000976562, -0.046875, 0.321289, -9.71484, 1.28.2022 17:49:52.287
297, 2.00329, 0.294351, 165.865, -0.000976562, 0, 0, -0.0830078, 0.374023, -9.7334, 1.28.2022 17:49:52.295
298, 2.00329, 0.294351, 165.865, 0, 0, 0, -0.00195312, 0.3125, -9.75098, 1.28.2022 17:49:52.303
299, 1.99635, 0.295211, 165.865, 0, -0.000976562, 0, -0.0693359, 0.345703, -9.74414, 1.28.2022 17:49:52.311
300, 1.99635, 0.295211, 165.865, 0, -0.000976562, -0.000976562, -0.0283203, 0.316406, -9.73828, 1.28.2022 17:49:52.319
301, 1.99549, 0.288272, 165.865, 0, 0, 0, 0.00292969, 0.301758, -9.71387, 1.28.2022 17:49:52.327
302, 1.99549, 0.288272, 165.865, 0, 0, -0.000976562, -0.114258, 0.347656, -9.73633, 1.28.2022 17:49:52.335
303, 1.98855, 0.289132, 165.865, 0, 0, 0, -0.0283203, 0.354492, -9.73242, 1.28.2022 17:49:52.343
304, 1.98819, 0.289165, 165.864, 0, -0.000976562, -0.000976562, -0.0371094, 0.342773, -9.71387, 1.28.2022 17:49:52.351
305, 1.98819, 0.289165, 165.864, 0, 0, 0, -0.0839844, 0.332031, -9.67383, 1.28.2022 17:49:52.359
306, 1.98819, 0.289165, 165.864, 0, 0, 0, 0.00585938, 0.328125, -9.72266, 1.28.2022 17:49:52.367
307, 1.98819, 0.289165, 165.864, 0, -0.000976562, -0.000976562, -0.0869141, 0.334961, -9.69434, 1.28.2022 17:49:52.375
308, 1.98733, 0.282225, 165.864, 0, 0, 0, -0.0498047, 0.352539, -9.74707, 1.28.2022 17:49:52.383
309, 1.98733, 0.282225, 165.864, -0.000976562, 0, 0, -0.0234375, 0.333008, -9.7334, 1.28.2022 17:49:52.391
310, 1.98733, 0.282225, 165.864, 0, 0, -0.000976562, -0.0976562, 0.333984, -9.74609, 1.28.2022 17:49:52.399
311, 1.98733, 0.282225, 165.864, -0.000976562, -0.000976562, -0.000976562, 0.00585938, 0.316406, -9.71289, 1.28.2022 17:49:52.407
312, 1.98733, 0.282225, 165.864, 0, -0.000976562, -0.000976562, -0.0546875, 0.317383, -9.74316, 1.28.2022 17:49:52.415
313, 1.98733, 0.282225, 165.864, 0.000976562, 0, -0.000976562, -0.0830078, 0.357422, -9.74121, 1.28.2022 17:49:52.423
314, 1.98039, 0.283085, 165.864, 0.000976562, -0.000976562, -0.000976562, -0.00195312, 0.337891, -9.72852, 1.28.2022 17:49:52.431
315, 1.98039, 0.283085, 165.864, 0, 0, -0.000976562, -0.0800781, 0.308594, -9.69531, 1.28.2022 17:49:52.439
316, 1.98039, 0.283085, 165.864, 0, 0, -0.000976562, -0.0605469, 0.332031, -9.7002, 1.28.2022 17:49:52.447
317, 1.98039, 0.283085, 165.864, 0.000976562, 0, 0, -0.0351562, 0.323242, -9.70508, 1.28.2022 17:49:52.455
318, 1.98039, 0.283085, 165.864, 0.000976562, 0, 0, -0.0898438, 0.352539, -9.73926, 1.28.2022 17:49:52.463
319, 1.98039, 0.283085, 165.864, 0, 0.000976562, -0.000976562, -0.046875, 0.342773, -9.70898, 1.28.2022 17:49:52.471
320, 1.98039, 0.283085, 165.864, 0, 0, 0, -0.0595703, 0.336914, -9.75684, 1.28.2022 17:49:52.479
321, 1.98039, 0.283085, 165.864, -0.000976562, 0, -0.000976562, -0.0996094, 0.360352, -9.74121, 1.28.2022 17:49:52.487
322, 1.98039, 0.283085, 165.864, -0.000976562, 0, -0.000976562, -0.0234375, 0.316406, -9.73633, 1.28.2022 17:49:52.495
323, 1.98125, 0.290025, 165.864, 0, 0, -0.000976562, -0.0996094, 0.323242, -9.71875, 1.28.2022 17:49:52.503
324, 1.98125, 0.290025, 165.864, 0, 0, -0.000976562, -0.0449219, 0.369141, -9.73926, 1.28.2022 17:49:52.511
325, 1.98125, 0.290025, 165.864, 0, 0.000976562, -0.000976562, -0.0185547, 0.321289, -9.71484, 1.28.2022 17:49:52.519
326, 1.98125, 0.290025, 165.864, 0, 0, 0, -0.0976562, 0.344727, -9.77637, 1.28.2022 17:49:52.527
327, 1.98125, 0.290025, 165.864, -0.00195312, -0.000976562, -0.000976562, -0.0273438, 0.344727, -9.70898, 1.28.2022 17:49:52.535
328, 1.98211, 0.296965, 165.864, 0, -0.000976562, -0.000976562, -0.0546875, 0.342773, -9.72754, 1.28.2022 17:49:52.543
329, 1.98211, 0.296965, 165.864, 0.000976562, 0, -0.000976562, -0.0585938, 0.382812, -9.70801, 1.28.2022 17:49:52.551
330, 1.98211, 0.296965, 165.864, 0.000976562, 0, -0.000976562, -0.0166016, 0.332031, -9.75293, 1.28.2022 17:49:52.559
331, 1.98211, 0.296965, 165.864, 0.000976562, -0.000976562, -0.000976562, -0.0898438, 0.334961, -9.69238, 1.28.2022 17:49:52.567
332, 1.98211, 0.296965, 165.864, 0.000976562, 0, -0.000976562, -0.0351562, 0.338867, -9.74023, 1.28.2022 17:49:52.575
333, 1.98211, 0.296965, 165.864, 0, 0, -0.000976562, -0.0117188, 0.337891, -9.73828, 1.28.2022 17:49:52.583
334, 1.98211, 0.296965, 165.864, 0, 0, -0.000976562, -0.0859375, 0.353516, -9.74805, 1.28.2022 17:49:52.591
335, 1.98211, 0.296965, 165.864, 0, 0, -0.000976562, -0.0117188, 0.321289, -9.74121, 1.28.2022 17:49:52.599
336, 1.98905, 0.296105, 165.864, 0, 0, 0, -0.0439453, 0.323242, -9.7002, 1.28.2022 17:49:52.607
337, 1.98905, 0.296105, 165.864, 0, 0, 0, -0.0800781, 0.333008, -9.71875, 1.28.2022 17:49:52.615
338, 1.98905, 0.296105, 165.864, -0.00195312, -0.000976562, -0.000976562, -0.0253906, 0.294922, -9.72461, 1.28.2022 17:49:52.623
339, 1.98211, 0.296965, 165.864, 0, 0, -0.000976562, -0.104492, 0.317383, -9.75391, 1.28.2022 17:49:52.631
340, 1.98211, 0.296965, 165.864, 0, 0, -0.000976562, -0.0498047, 0.323242, -9.71484, 1.28.2022 17:49:52.639
341, 1.98211, 0.296965, 165.864, 0, 0, -0.000976562, -0.0361328, 0.333984, -9.66895, 1.28.2022 17:49:52.647
342, 1.98211, 0.296965, 165.864, 0.000976562, 0, -0.000976562, -0.0947266, 0.329102, -9.73926, 1.28.2022 17:49:52.655
343, 1.98211, 0.296965, 165.864, 0, -0.000976562, 0, 0.00195312, 0.332031, -9.75781, 1.28.2022 17:49:52.663
344, 1.98211, 0.296965, 165.864, 0, -0.00195312, 0, -0.0654297, 0.339844, -9.7041, 1.28.2022 17:49:52.671
345, 1.98211, 0.296965, 165.864, -0.00195312, -0.000976562, 0, -0.0898438, 0.342773, -9.70605, 1.28.2022 17:49:52.679
346, 1.97518, 0.297825, 165.864, 0, 0, -0.000976562, -0.00976562, 0.314453, -9.74609, 1.28.2022 17:49:52.687
347, 1.97518, 0.297825, 165.864, 0, -0.000976562, -0.000976562, -0.0810547, 0.350586, -9.75293, 1.28.2022 17:49:52.695
348, 1.97518, 0.297825, 165.864, -0.00195312, 0, 0, -0.0302734, 0.342773, -9.7334, 1.28.2022 17:49:52.703
349, 1.97518, 0.297825, 165.864, 0, 0, -0.000976562, -0.0400391, 0.323242, -9.70312, 1.28.2022 17:49:52.709
350, 1.97518, 0.297825, 165.864, 0, 0, 0, -0.0712891, 0.352539, -9.7207, 1.28.2022 17:49:52.717
351, 1.97518, 0.297825, 165.864, 0, 0, 0, -0.00390625, 0.322266, -9.67969, 1.28.2022 17:49:52.725
352, 1.97518, 0.297825, 165.864, 0, 0, 0, -0.0732422, 0.335938, -9.72754, 1.28.2022 17:49:52.733
353, 1.97518, 0.297825, 165.864, -0.00195312, -0.00195312, 0, -0.0771484, 0.339844, -9.69238, 1.28.2022 17:49:52.741
354, 1.97518, 0.297825, 165.864, 0, -0.000976562, 0, 0.00195312, 0.297852, -9.76074, 1.28.2022 17:49:52.749
355, 1.97518, 0.297825, 165.864, 0, 0, 0, -0.111328, 0.34375, -9.74316, 1.28.2022 17:49:52.757
356, 1.97518, 0.297825, 165.864, 0, 0, -0.000976562, -0.0683594, 0.366211, -9.71777, 1.28.2022 17:49:52.765
357, 1.97518, 0.297825, 165.864, 0, 0, -0.00195312, -0.0449219, 0.349609, -9.72559, 1.28.2022 17:49:52.773
358, 1.97604, 0.304765, 165.864, 0, 0, -0.000976562, -0.0976562, 0.331055, -9.74414, 1.28.2022 17:49:52.781
359, 1.97604, 0.304765, 165.864, -0.000976562, 0, -0.000976562, -0.0136719, 0.333984, -9.74316, 1.28.2022 17:49:52.789
360, 1.97604, 0.304765, 165.864, -0.00195312, 0, -0.000976562, -0.0644531, 0.345703, -9.73926, 1.28.2022 17:49:52.797
361, 1.97604, 0.304765, 165.864, -0.00195312, 0, -0.000976562, -0.0585938, 0.349609, -9.71387, 1.28.2022 17:49:52.805
362, 1.97604, 0.304765, 165.864, -0.000976562, -0.000976562, -0.000976562, -0.0166016, 0.304688, -9.74609, 1.28.2022 17:49:52.813
363, 1.98297, 0.303905, 165.864, -0.00195312, 0, 0, -0.114258, 0.360352, -9.74316, 1.28.2022 17:49:52.821
364, 1.98297, 0.303905, 165.864, -0.000976562, -0.000976562, 0, -0.0517578, 0.339844, -9.7002, 1.28.2022 17:49:52.829
365, 1.98297, 0.303905, 165.864, -0.000976562, -0.000976562, -0.000976562, -0.0166016, 0.331055, -9.73145, 1.28.2022 17:49:52.837
366, 1.98297, 0.303905, 165.864, 0.000976562, 0, -0.000976562, -0.108398, 0.337891, -9.70312, 1.28.2022 17:49:52.845
367, 1.98297, 0.303905, 165.864, -0.000976562, 0, -0.000976562, -0.0322266, 0.325195, -9.69336, 1.28.2022 17:49:52.853
368, 1.98383, 0.310845, 165.864, -0.000976562, 0, -0.000976562, -0.0537109, 0.339844, -9.69531, 1.28.2022 17:49:52.861
369, 1.98383, 0.310845, 165.864, -0.000976562, 0, -0.000976562, -0.0634766, 0.354492, -9.70117, 1.28.2022 17:49:52.869
370, 1.98383, 0.310845, 165.864, -0.000976562, 0, 0, -0.00390625, 0.335938, -9.73145, 1.28.2022 17:49:52.877
371, 1.98383, 0.310845, 165.864, -0.000976562, -0.000976562, 0, -0.078125, 0.356445, -9.70801, 1.28.2022 17:49:52.885
372, 1.98383, 0.310845, 165.864, -0.00195312, -0.000976562, 0, -0.0322266, 0.337891, -9.7168, 1.28.2022 17:49:52.893
373, 1.98383, 0.310845, 165.864, -0.000976562, 0, -0.000976562, -0.0302734, 0.342773, -9.73047, 1.28.2022 17:49:52.901
374, 1.98383, 0.310845, 165.864, -0.000976562, 0, 0, -0.0830078, 0.344727, -9.70898, 1.28.2022 17:49:52.909
375, 1.99077, 0.309985, 165.864, -0.00195312, 0, -0.000976562, -0.0175781, 0.31543, -9.69141, 1.28.2022 17:49:52.917
376, 1.98991, 0.303045, 165.864, -0.000976562, 0, -0.000976562, -0.0683594, 0.328125, -9.7041, 1.28.2022 17:49:52.925
377, 1.98991, 0.303045, 165.864, -0.000976562, 0, 0, -0.0498047, 0.328125, -9.72852, 1.28.2022 17:49:52.933
378, 1.98991, 0.303045, 165.864, 0.000976562, 0, 0, -0.0283203, 0.291016, -9.75781, 1.28.2022 17:49:52.941
379, 1.98297, 0.303905, 165.864, 0.000976562, 0, 0, -0.0927734, 0.336914, -9.76953, 1.28.2022 17:49:52.949
380, 1.98297, 0.303905, 165.864, -0.000976562, -0.00195312, -0.000976562, -0.0205078, 0.335938, -9.72656, 1.28.2022 17:49:52.957
381, 1.98297, 0.303905, 165.864, -0.000976562, -0.000976562, 0, -0.0253906, 0.318359, -9.71484, 1.28.2022 17:49:52.965
382, 1.98297, 0.303905, 165.864, -0.00195312, -0.000976562, 0, -0.111328, 0.364258, -9.72168, 1.28.2022 17:49:52.973
383, 1.98297, 0.303905, 165.864, -0.00195312, 0, -0.000976562, -0.00390625, 0.328125, -9.71777, 1.28.2022 17:49:52.981
384, 1.98297, 0.303905, 165.864, -0.000976562, 0, 0, -0.0605469, 0.344727, -9.70215, 1.28.2022 17:49:52.989
385, 1.98297, 0.303905, 165.864, -0.000976562, 0, -0.000976562, -0.0419922, 0.337891, -9.73047, 1.28.2022 17:49:52.997
386, 1.98297, 0.303905, 165.864, -0.000976562, -0.000976562, 0, -0.0136719, 0.324219, -9.7334, 1.28.2022 17:49:53.005
387, 1.98297, 0.303905, 165.864, -0.00195312, -0.000976562, -0.000976562, -0.101562, 0.337891, -9.7207, 1.28.2022 17:49:53.013
388, 1.98297, 0.303905, 165.864, -0.00195312, 0, -0.000976562, -0.0351562, 0.344727, -9.69727, 1.28.2022 17:49:53.021
389, 1.98211, 0.296965, 165.864, -0.00195312, 0, -0.000976562, -0.0214844, 0.319336, -9.74316, 1.28.2022 17:49:53.029
390, 1.98211, 0.296965, 165.864, -0.000976562, -0.000976562, -0.000976562, -0.0878906, 0.335938, -9.74414, 1.28.2022 17:49:53.037
391, 1.98211, 0.296965, 165.864, -0.000976562, 0, -0.000976562, 0.0078125, 0.342773, -9.72656, 1.28.2022 17:49:53.045
392, 1.98211, 0.296965, 165.864, 0, 0, -0.000976562, -0.0664062, 0.360352, -9.75586, 1.28.2022 17:49:53.053
393, 1.98211, 0.296965, 165.864, -0.000976562, -0.000976562, -0.000976562, -0.0761719, 0.328125, -9.72754, 1.28.2022 17:49:53.061
394, 1.98211, 0.296965, 165.864, -0.000976562, -0.000976562, 0, 0.00976562, 0.333008, -9.71777, 1.28.2022 17:49:53.069
395, 1.98905, 0.296105, 165.864, 0, 0, -0.000976562, -0.0957031, 0.363281, -9.75977, 1.28.2022 17:49:53.077
396, 1.98905, 0.296105, 165.864, 0, 0, -0.000976562, -0.0224609, 0.368164, -9.68066, 1.28.2022 17:49:53.085
397, 1.98819, 0.289165, 165.864, 0, -0.000976562, 0, -0.0400391, 0.320312, -9.70996, 1.28.2022 17:49:53.093
398, 1.98819, 0.289165, 165.864, -0.000976562, 0, -0.000976562, -0.0732422, 0.345703, -9.73926, 1.28.2022 17:49:53.101
399, 1.98819, 0.289165, 165.864, -0.000976562, 0, 0, 0.0078125, 0.330078, -9.70996, 1.28.2022 17:49:53.109
400, 1.98819, 0.289165, 165.864, -0.000976562, -0.000976562, -0.000976562, -0.0800781, 0.335938, -9.72266, 1.28.2022 17:49:53.117
401, 1.98819, 0.289165, 165.864, 0, 0, -0.000976562, -0.0820312, 0.365234, -9.68945, 1.28.2022 17:49:53.125
402, 1.99513, 0.288304, 165.864, 0, 0.000976562, -0.000976562, -0.0419922, 0.313477, -9.69629, 1.28.2022 17:49:53.133
403, 1.99513, 0.288304, 165.864, 0, -0.000976562, -0.000976562, -0.0947266, 0.37207, -9.74316, 1.28.2022 17:49:53.141
404, 1.99513, 0.288304, 165.864, 0, -0.000976562, -0.000976562, -0.0166016, 0.360352, -9.75195, 1.28.2022 17:49:53.149
405, 1.99513, 0.288304, 165.864, -0.000976562, -0.000976562, -0.000976562, -0.0566406, 0.316406, -9.7168, 1.28.2022 17:49:53.157
406, 1.99513, 0.288304, 165.864, -0.000976562, -0.000976562, -0.000976562, -0.101562, 0.34668, -9.70312, 1.28.2022 17:49:53.165
407, 1.99513, 0.288304, 165.864, 0, 0, -0.000976562, -0.00195312, 0.30957, -9.73926, 1.28.2022 17:49:53.173
408, 1.99513, 0.288304, 165.864, 0.000976562, 0.000976562, -0.000976562, -0.106445, 0.359375, -9.7168, 1.28.2022 17:49:53.181
409, 1.99598, 0.295244, 165.864, 0.000976562, 0, 0, -0.0537109, 0.353516, -9.69727, 1.28.2022 17:49:53.189
410, 1.99598, 0.295244, 165.864, -0.000976562, 0, -0.000976562, -0.00878906, 0.337891, -9.72168, 1.28.2022 17:49:53.197
411, 2.00292, 0.294384, 165.864, -0.000976562, -0.000976562, 0, -0.134766, 0.378906, -9.71875, 1.28.2022 17:49:53.205
412, 2.00292, 0.294384, 165.864, 0, 0, 0, -0.0390625, 0.332031, -9.7002, 1.28.2022 17:49:53.213
413, 2.00292, 0.294384, 165.864, 0, 0, -0.000976562, -0.046875, 0.310547, -9.69629, 1.28.2022 17:49:53.221
414, 2.00292, 0.294384, 165.864, 0, 0, 0, -0.0742188, 0.34668, -9.77734, 1.28.2022 17:49:53.229
415, 2.00292, 0.294384, 165.864, 0, -0.000976562, 0, -0.00195312, 0.316406, -9.71094, 1.28.2022 17:49:53.237
416, 2.00378, 0.301324, 165.864, -0.000976562, 0, -0.000976562, -0.0644531, 0.352539, -9.7373, 1.28.2022 17:49:53.245
417, 2.00378, 0.301324, 165.864, 0, 0, 0, -0.0664062, 0.37207, -9.73438, 1.28.2022 17:49:53.253
418, 2.00378, 0.301324, 165.864, -0.000976562, 0, 0, -0.0410156, 0.34375, -9.77539, 1.28.2022 17:49:53.261
419, 2.00415, 0.301291, 165.864, -0.000976562, 0, 0, -0.113281, 0.354492, -9.71973, 1.28.2022 17:49:53.269
420, 2.01108, 0.300431, 165.864, -0.000976562, -0.000976562, -0.000976562, -0.015625, 0.351562, -9.69531, 1.28.2022 17:49:53.277
421, 2.01108, 0.300431, 165.864, 0, 0, -0.000976562, -0.03125, 0.329102, -9.75488, 1.28.2022 17:49:53.285
422, 2.01108, 0.300431, 165.864, 0, 0, -0.000976562, -0.0595703, 0.329102, -9.7334, 1.28.2022 17:49:53.293
423, 2.01108, 0.300431, 165.864, 0, 0, -0.000976562, 0.00585938, 0.305664, -9.68262, 1.28.2022 17:49:53.301
424, 2.01072, 0.300464, 165.864, 0, -0.000976562, -0.000976562, -0.106445, 0.328125, -9.71582, 1.28.2022 17:49:53.309
425, 2.01108, 0.300431, 165.864, -0.000976562, 0, 0, -0.0546875, 0.347656, -9.72559, 1.28.2022 17:49:53.317
426, 2.01108, 0.300431, 165.864, -0.000976562, -0.000976562, -0.000976562, -0.015625, 0.310547, -9.68652, 1.28.2022 17:49:53.325
427, 2.01072, 0.300464, 165.864, 0, -0.000976562, -0.000976562, -0.0917969, 0.371094, -9.70508, 1.28.2022 17:49:53.333
428, 2.01072, 0.300464, 165.864, 0, 0, -0.000976562, 0.0078125, 0.338867, -9.74805, 1.28.2022 17:49:53.341
429, 2.01072, 0.300464, 165.864, -0.000976562, 0, 0, -0.0234375, 0.339844, -9.72168, 1.28.2022 17:49:53.349
430, 2.01108, 0.300431, 165.864, -0.000976562, -0.000976562, 0, -0.0683594, 0.364258, -9.71973, 1.28.2022 17:49:53.357
431, 2.01108, 0.300431, 165.864, 0, -0.000976562, -0.000976562, -0.000976562, 0.30957, -9.66602, 1.28.2022 17:49:53.365
432, 2.01022, 0.293491, 165.865, -0.000976562, -0.000976562, 0, -0.0820312, 0.359375, -9.70605, 1.28.2022 17:49:53.373
433, 2.01022, 0.293491, 165.865, 0, 0, 0, -0.046875, 0.331055, -9.73828, 1.28.2022 17:49:53.381
434, 2.01022, 0.293491, 165.865, 0, 0.000976562, 0, -0.0400391, 0.313477, -9.70508, 1.28.2022 17:49:53.389
435, 2.01022, 0.293491, 165.865, 0, 0.000976562, -0.000976562, -0.123047, 0.381836, -9.73535, 1.28.2022 17:49:53.397
436, 2.01022, 0.293491, 165.865, -0.000976562, -0.000976562, -0.000976562, 0.00390625, 0.3125, -9.68945, 1.28.2022 17:49:53.405
437, 2.01022, 0.293491, 165.865, -0.000976562, 0, 0, -0.0566406, 0.347656, -9.73047, 1.28.2022 17:49:53.413
438, 2.01022, 0.293491, 165.865, 0, 0, 0, -0.0664062, 0.347656, -9.7207, 1.28.2022 17:49:53.421
439, 2.01022, 0.293491, 165.865, -0.000976562, 0, 0, 0.00488281, 0.326172, -9.73438, 1.28.2022 17:49:53.429
440, 2.01022, 0.293491, 165.865, -0.000976562, -0.000976562, -0.000976562, -0.0849609, 0.341797, -9.68945, 1.28.2022 17:49:53.437
441, 2.01022, 0.293491, 165.865, -0.000976562, -0.000976562, -0.000976562, -0.0419922, 0.349609, -9.72363, 1.28.2022 17:49:53.445
442, 2.01022, 0.293491, 165.865, 0, 0, -0.000976562, -0.0400391, 0.333984, -9.75, 1.28.2022 17:49:53.453
443, 2.01022, 0.293491, 165.865, 0, -0.000976562, -0.00195312, -0.0830078, 0.366211, -9.71973, 1.28.2022 17:49:53.461
444, 2.01022, 0.293491, 165.865, 0, 0, -0.000976562, -0.0322266, 0.325195, -9.70312, 1.28.2022 17:49:53.469
445, 2.01022, 0.293491, 165.865, 0, -0.000976562, 0, -0.0654297, 0.353516, -9.68262, 1.28.2022 17:49:53.477
446, 2.01022, 0.293491, 165.865, -0.000976562, -0.000976562, 0, -0.0820312, 0.348633, -9.6875, 1.28.2022 17:49:53.485
447, 2.01022, 0.293491, 165.865, 0, 0, -0.000976562, -0.0302734, 0.354492, -9.7207, 1.28.2022 17:49:53.493
448, 2.01022, 0.293491, 165.865, -0.000976562, 0, -0.000976562, -0.0878906, 0.345703, -9.72461, 1.28.2022 17:49:53.501
449, 2.01716, 0.292631, 165.865, -0.000976562, 0, -0.000976562, -0.0517578, 0.334961, -9.7168, 1.28.2022 17:49:53.509
450, 2.01716, 0.292631, 165.865, -0.000976562, 0, -0.000976562, -0.0449219, 0.316406, -9.70801, 1.28.2022 17:49:53.517
451, 2.01716, 0.292631, 165.865, -0.000976562, 0, -0.000976562, -0.109375, 0.354492, -9.72168, 1.28.2022 17:49:53.525
452, 2.01716, 0.292631, 165.865, -0.000976562, -0.000976562, -0.000976562, -0.00878906, 0.342773, -9.72852, 1.28.2022 17:49:53.533
453, 2.01802, 0.29957, 165.864, -0.000976562, -0.000976562, -0.000976562, -0.0546875, 0.30957, -9.74023, 1.28.2022 17:49:53.541
454, 2.01802, 0.29957, 165.864, 0, -0.000976562, -0.000976562, -0.0761719, 0.352539, -9.74121, 1.28.2022 17:49:53.549
455, 2.01802, 0.29957, 165.864, 0, -0.000976562, -0.000976562, -0.00195312, 0.297852, -9.74902, 1.28.2022 17:49:53.557
456, 2.01072, 0.300464, 165.864, 0.000976562, 0, -0.000976562, -0.0878906, 0.329102, -9.73926, 1.28.2022 17:49:53.565
457, 2.01072, 0.300464, 165.864, 0.000976562, 0, -0.00195312, -0.0732422, 0.374023, -9.74121, 1.28.2022 17:49:53.573
458, 2.01072, 0.300464, 165.864, 0, 0, -0.000976562, -0.0283203, 0.333984, -9.74316, 1.28.2022 17:49:53.581
459, 2.01072, 0.300464, 165.864, -0.000976562, -0.000976562, -0.000976562, -0.0869141, 0.349609, -9.70312, 1.28.2022 17:49:53.589
460, 2.01072, 0.300464, 165.864, 0, 0, 0, -0.0117188, 0.360352, -9.74902, 1.28.2022 17:49:53.597
461, 2.01072, 0.300464, 165.864, 0, -0.000976562, -0.000976562, -0.0585938, 0.337891, -9.72559, 1.28.2022 17:49:53.605
462, 2.01072, 0.300464, 165.864, 0, -0.000976562, -0.000976562, -0.0732422, 0.337891, -9.7041, 1.28.2022 17:49:53.613
463, 2.01072, 0.300464, 165.864, -0.000976562, 0.000976562, 0, -0.0136719, 0.356445, -9.7002, 1.28.2022 17:49:53.621
464, 2.01072, 0.300464, 165.864, 0.000976562, 0.000976562, 0, -0.108398, 0.356445, -9.70996, 1.28.2022 17:49:53.629
465, 2.01072, 0.300464, 165.864, 0.000976562, 0.000976562, -0.000976562, -0.0654297, 0.361328, -9.70117, 1.28.2022 17:49:53.637
466, 2.01072, 0.300464, 165.864, 0, 0, -0.000976562, -0.0283203, 0.337891, -9.72168, 1.28.2022 17:49:53.645
467, 2.01158, 0.307404, 165.863, 0.000976562, 0, 0, -0.0712891, 0.365234, -9.75781, 1.28.2022 17:49:53.653
468, 2.01072, 0.300464, 165.864, 0, 0, -0.000976562, 0.0078125, 0.325195, -9.71484, 1.28.2022 17:49:53.661
469, 2.01072, 0.300464, 165.864, 0, 0, -0.000976562, -0.0712891, 0.331055, -9.72559, 1.28.2022 17:49:53.667
470, 2.01072, 0.300464, 165.864, 0, -0.000976562, -0.000976562, -0.0683594, 0.37793, -9.69141, 1.28.2022 17:49:53.675
471, 2.01765, 0.299604, 165.864, 0, 0, -0.000976562, 0.00390625, 0.347656, -9.65039, 1.28.2022 17:49:53.683
472, 2.01765, 0.299604, 165.864, 0, 0, -0.000976562, -0.0683594, 0.337891, -9.7207, 1.28.2022 17:49:53.691
473, 2.01768, 0.299724, 165.871, 0, 0, -0.000976562, -0.0371094, 0.348633, -9.69238, 1.28.2022 17:49:53.699
474, 2.01768, 0.299724, 165.871, 0.000976562, 0, -0.000976562, -0.00683594, 0.333008, -9.7334, 1.28.2022 17:49:53.707
475, 2.01768, 0.299724, 165.871, 0.000976562, -0.000976562, 0, -0.0917969, 0.363281, -9.70312, 1.28.2022 17:49:53.715
476, 2.01765, 0.299604, 165.864, -0.000976562, -0.000976562, -0.000976562, -0.00195312, 0.321289, -9.71973, 1.28.2022 17:49:53.723
477, 2.01768, 0.299724, 165.871, -0.000976562, -0.000976562, -0.000976562, -0.0644531, 0.34082, -9.74902, 1.28.2022 17:49:53.731
478, 2.01768, 0.299724, 165.871, -0.000976562, 0, -0.000976562, -0.0878906, 0.355469, -9.73926, 1.28.2022 17:49:53.739
479, 2.01682, 0.292784, 165.871, 0, 0.000976562, -0.000976562, -0.00585938, 0.308594, -9.70801, 1.28.2022 17:49:53.747
480, 2.01682, 0.292784, 165.871, 0, 0, -0.000976562, -0.0820312, 0.348633, -9.68262, 1.28.2022 17:49:53.755
481, 2.01682, 0.292784, 165.871, 0, -0.000976562, -0.000976562, -0.0458984, 0.34082, -9.67188, 1.28.2022 17:49:53.763
482, 2.01682, 0.292784, 165.871, 0, 0, -0.000976562, -0.0371094, 0.330078, -9.71484, 1.28.2022 17:49:53.771
483, 2.01682, 0.292784, 165.871, -0.000976562, 0, -0.000976562, -0.0898438, 0.349609, -9.71777, 1.28.2022 17:49:53.779
484, 2.02376, 0.291924, 165.871, 0, 0, 0, -0.015625, 0.351562, -9.71191, 1.28.2022 17:49:53.787
485, 2.01682, 0.292784, 165.871, 0, 0, 0, -0.0546875, 0.332031, -9.77344, 1.28.2022 17:49:53.795
486, 2.01682, 0.292784, 165.871, 0, -0.00195312, -0.000976562, -0.0664062, 0.321289, -9.73047, 1.28.2022 17:49:53.803
487, 2.01682, 0.292784, 165.871, -0.000976562, -0.000976562, 0, -0.00195312, 0.335938, -9.73633, 1.28.2022 17:49:53.811
488, 2.01682, 0.292784, 165.871, -0.000976562, 0, -0.000976562, -0.106445, 0.351562, -9.70801, 1.28.2022 17:49:53.819
489, 2.01682, 0.292784, 165.871, -0.000976562, 0, 0, -0.0224609, 0.330078, -9.69824, 1.28.2022 17:49:53.827
490, 2.01679, 0.292664, 165.864, -0.00195312, 0, -0.000976562, -0.0214844, 0.316406, -9.74121, 1.28.2022 17:49:53.835
491, 2.01679, 0.292664, 165.864, -0.00195312, 0, -0.000976562, -0.0664062, 0.352539, -9.72266, 1.28.2022 17:49:53.843
492, 2.01596, 0.285844, 165.871, -0.00195312, 0, -0.00195312, 0.0214844, 0.305664, -9.76367, 1.28.2022 17:49:53.851
493, 2.01596, 0.285844, 165.871, -0.000976562, 0, -0.00195312, -0.0683594, 0.299805, -9.72461, 1.28.2022 17:49:53.859
494, 2.01596, 0.285844, 165.871, -0.000976562, -0.000976562, -0.00195312, -0.0839844, 0.348633, -9.67773, 1.28.2022 17:49:53.867
495, 2.00903, 0.286704, 165.871, -0.000976562, -0.000976562, -0.000976562, -0.0332031, 0.324219, -9.7334, 1.28.2022 17:49:53.875
496, 2.00903, 0.286704, 165.871, -0.000976562, 0, -0.000976562, -0.0869141, 0.37793, -9.70801, 1.28.2022 17:49:53.883
497, 2.00903, 0.286704, 165.871, -0.00195312, 0, 0, -0.0302734, 0.354492, -9.70703, 1.28.2022 17:49:53.891
498, 2.00903, 0.286704, 165.871, -0.00195312, 0, 0, -0.0351562, 0.357422, -9.73047, 1.28.2022 17:49:53.899
499, 2.00903, 0.286704, 165.871, -0.000976562, -0.000976562, -0.000976562, -0.102539, 0.331055, -9.74414, 1.28.2022 17:49:53.907
500, 2.00903, 0.286704, 165.871, -0.00195312, 0, -0.00195312, -0.00195312, 0.328125, -9.71289, 1.28.2022 17:49:53.915
501, 2.00903, 0.286704, 165.871, -0.00195312, 0, -0.00195312, -0.0351562, 0.330078, -9.70996, 1.28.2022 17:49:53.923
502, 2.00903, 0.286704, 165.871, -0.000976562, 0, -0.000976562, -0.0830078, 0.354492, -9.71289, 1.28.2022 17:49:53.931
503, 2.00903, 0.286704, 165.871, -0.000976562, 0, 0, -0.0166016, 0.314453, -9.73145, 1.28.2022 17:49:53.939
504, 2.00903, 0.286704, 165.871, 0.000976562, 0, -0.000976562, -0.120117, 0.373047, -9.70215, 1.28.2022 17:49:53.947
505, 2.00903, 0.286704, 165.871, -0.000976562, 0, 0, -0.0351562, 0.339844, -9.71387, 1.28.2022 17:49:53.955
506, 2.00903, 0.286704, 165.871, -0.00195312, -0.000976562, -0.000976562, -0.0351562, 0.331055, -9.7334, 1.28.2022 17:49:53.963
507, 2.00903, 0.286704, 165.871, -0.00195312, -0.000976562, -0.000976562, -0.0634766, 0.351562, -9.70117, 1.28.2022 17:49:53.971
508, 2.00903, 0.286704, 165.871, -0.000976562, -0.000976562, 0, -0.0166016, 0.306641, -9.72754, 1.28.2022 17:49:53.979
509, 2.00903, 0.286704, 165.871, -0.000976562, -0.000976562, -0.000976562, -0.0712891, 0.362305, -9.73926, 1.28.2022 17:49:53.987
510, 2.00903, 0.286704, 165.871, -0.000976562, -0.000976562, -0.000976562, -0.0634766, 0.378906, -9.72656, 1.28.2022 17:49:53.995
511, 2.00903, 0.286704, 165.871, -0.000976562, 0, 0, -0.00878906, 0.333984, -9.74121, 1.28.2022 17:49:54.003
512, 2.00903, 0.286704, 165.871, 0.000976562, 0, 0, -0.0878906, 0.347656, -9.71582, 1.28.2022 17:49:54.011
513, 2.00903, 0.286704, 165.871, -0.000976562, -0.000976562, -0.000976562, -0.0302734, 0.334961, -9.70996, 1.28.2022 17:49:54.019
514, 2.00903, 0.286704, 165.871, -0.000976562, 0, -0.000976562, -0.015625, 0.328125, -9.72168, 1.28.2022 17:49:54.027
515, 2.00903, 0.286704, 165.871, 0.000976562, 0, -0.000976562, -0.0751953, 0.34082, -9.72266, 1.28.2022 17:49:54.035
516, 2.00903, 0.286704, 165.871, -0.000976562, -0.000976562, -0.000976562, -0.00195312, 0.298828, -9.7041, 1.28.2022 17:49:54.043
517, 2.00903, 0.286704, 165.871, -0.00195312, 0, -0.000976562, -0.0517578, 0.357422, -9.72559, 1.28.2022 17:49:54.051
518, 2.00903, 0.286704, 165.871, 0.000976562, 0, -0.000976562, -0.0664062, 0.369141, -9.72266, 1.28.2022 17:49:54.059
519, 2.00817, 0.279764, 165.871, 0.000976562, -0.000976562, -0.000976562, -0.00683594, 0.311523, -9.72461, 1.28.2022 17:49:54.067
520, 2.00903, 0.286704, 165.871, 0, -0.000976562, 0, -0.109375, 0.357422, -9.7334, 1.28.2022 17:49:54.075
521, 2.00817, 0.279764, 165.871, 0, -0.000976562, 0.00195312, -0.0205078, 0.335938, -9.72363, 1.28.2022 17:49:54.083
522, 2.00817, 0.279764, 165.871, 0, 0.000976562, -0.000976562, -0.0380859, 0.332031, -9.76855, 1.28.2022 17:49:54.091
523, 2.00817, 0.279764, 165.871, 0, 0, -0.000976562, -0.0830078, 0.349609, -9.72266, 1.28.2022 17:49:54.099
524, 2.00817, 0.279764, 165.871, 0, 0, -0.000976562, 0.0107422, 0.323242, -9.70117, 1.28.2022 17:49:54.107
525, 2.00817, 0.279764, 165.871, -0.000976562, -0.000976562, -0.000976562, -0.0683594, 0.337891, -9.71094, 1.28.2022 17:49:54.115
526, 2.00817, 0.279764, 165.871, -0.000976562, -0.000976562, 0, -0.0449219, 0.364258, -9.73438, 1.28.2022 17:49:54.123
527, 2.00814, 0.279644, 165.864, 0, 0, 0.000976562, -0.0205078, 0.333008, -9.72168, 1.28.2022 17:49:54.131
528, 2.00814, 0.279644, 165.864, 0, -0.000976562, -0.000976562, -0.0917969, 0.356445, -9.70117, 1.28.2022 17:49:54.139
529, 2.00814, 0.279644, 165.864, 0, 0, 0.000976562, 0.00585938, 0.341797, -9.70508, 1.28.2022 17:49:54.147
530, 2.00728, 0.272704, 165.864, 0, 0.000976562, -0.000976562, -0.0234375, 0.311523, -9.70605, 1.28.2022 17:49:54.155
531, 2.00728, 0.272704, 165.864, 0, 0, -0.000976562, -0.0654297, 0.368164, -9.69141, 1.28.2022 17:49:54.163
532, 2.00728, 0.272704, 165.864, -0.000976562, 0, 0.000976562, -0.00585938, 0.31543, -9.70605, 1.28.2022 17:49:54.171
533, 2.00728, 0.272704, 165.864, 0.000976562, -0.000976562, -0.000976562, -0.0908203, 0.348633, -9.75781, 1.28.2022 17:49:54.179
534, 2.00728, 0.272704, 165.864, 0, 0, 0.000976562, -0.0761719, 0.331055, -9.73242, 1.28.2022 17:49:54.187
535, 2.00728, 0.272704, 165.864, 0, 0, -0.000976562, -0.0380859, 0.327148, -9.75977, 1.28.2022 17:49:54.195
536, 2.00728, 0.272704, 165.864, 0, -0.000976562, -0.000976562, -0.0917969, 0.365234, -9.66797, 1.28.2022 17:49:54.203
537, 2.00728, 0.272704, 165.864, -0.000976562, 0, -0.00195312, -0.0146484, 0.322266, -9.66504, 1.28.2022 17:49:54.211
538, 2.00728, 0.272704, 165.864, -0.000976562, -0.000976562, -0.00195312, -0.0566406, 0.320312, -9.7002, 1.28.2022 17:49:54.219
539, 2.00728, 0.272704, 165.864, 0, 0, -0.000976562, -0.0898438, 0.366211, -9.69629, 1.28.2022 17:49:54.227
540, 2.00728, 0.272704, 165.864, 0, 0, 0.000976562, -0.0429688, 0.333984, -9.75, 1.28.2022 17:49:54.235
541, 2.00728, 0.272704, 165.864, -0.000976562, 0, 0.000976562, -0.111328, 0.321289, -9.73438, 1.28.2022 17:49:54.243
542, 2.00814, 0.279644, 165.864, 0, 0, -0.000976562, -0.0683594, 0.330078, -9.71191, 1.28.2022 17:49:54.251
543, 2.00814, 0.279644, 165.864, 0, -0.000976562, -0.000976562, -0.0263672, 0.322266, -9.74512, 1.28.2022 17:49:54.259
544, 2.00814, 0.279644, 165.864, 0, -0.000976562, -0.000976562, -0.106445, 0.339844, -9.71582, 1.28.2022 17:49:54.267
545, 2.009, 0.286584, 165.864, 0, 0, -0.000976562, -0.0214844, 0.34082, -9.73535, 1.28.2022 17:49:54.275
546, 2.00206, 0.287444, 165.864, 0.000976562, 0, -0.000976562, -0.0253906, 0.313477, -9.72168, 1.28.2022 17:49:54.283
547, 2.00206, 0.287444, 165.864, 0, 0, -0.000976562, -0.0712891, 0.362305, -9.72754, 1.28.2022 17:49:54.291
548, 2.00206, 0.287444, 165.864, -0.000976562, -0.000976562, -0.000976562, 0.0146484, 0.326172, -9.74121, 1.28.2022 17:49:54.299
549, 2.00206, 0.287444, 165.864, -0.00195312, -0.000976562, 0, -0.0820312, 0.375977, -9.7002, 1.28.2022 17:49:54.307
550, 2.00206, 0.287444, 165.864, -0.000976562, 0, -0.000976562, -0.0654297, 0.359375, -9.70801, 1.28.2022 17:49:54.315
551, 2.00206, 0.287444, 165.864, 0, 0, 0, -0.0498047, 0.34082, -9.74902, 1.28.2022 17:49:54.323
552, 2.00206, 0.287444, 165.864, 0, 0, 0, -0.111328, 0.348633, -9.74121, 1.28.2022 17:49:54.331
553, 2.00292, 0.294384, 165.864, -0.000976562, 0, -0.000976562, -0.0371094, 0.326172, -9.71875, 1.28.2022 17:49:54.339
554, 2.00986, 0.293524, 165.864, 0, -0.000976562, -0.000976562, -0.046875, 0.344727, -9.72363, 1.28.2022 17:49:54.347
555, 2.00986, 0.293524, 165.864, 0, 0, -0.000976562, -0.0566406, 0.34668, -9.7041, 1.28.2022 17:49:54.355
556, 2.00986, 0.293524, 165.864, 0, 0, -0.000976562, -0.0107422, 0.328125, -9.71484, 1.28.2022 17:49:54.363
557, 2.00986, 0.293524, 165.864, 0, 0, 0, -0.0849609, 0.344727, -9.69238, 1.28.2022 17:49:54.371
558, 2.00986, 0.293524, 165.864, 0, 0, -0.000976562, -0.0712891, 0.342773, -9.7207, 1.28.2022 17:49:54.379
559, 2.00986, 0.293524, 165.864, 0, 0, -0.000976562, -0.0253906, 0.34082, -9.72852, 1.28.2022 17:49:54.387
560, 2.01072, 0.300464, 165.864, -0.000976562, -0.000976562, -0.000976562, -0.108398, 0.374023, -9.70996, 1.28.2022 17:49:54.395
561, 2.01072, 0.300464, 165.864, 0, 0, 0, -0.0302734, 0.333008, -9.70996, 1.28.2022 17:49:54.403
562, 2.01072, 0.300464, 165.864, 0, 0, 0, -0.0732422, 0.354492, -9.70801, 1.28.2022 17:49:54.411
563, 2.01072, 0.300464, 165.864, -0.000976562, -0.000976562, -0.000976562, -0.0878906, 0.354492, -9.72266, 1.28.2022 17:49:54.419
564, 2.01072, 0.300464, 165.864, 0, -0.000976562, -0.000976562, -0.00390625, 0.328125, -9.72168, 1.28.2022 17:49:54.427
565, 2.01158, 0.307404, 165.863, 0.000976562, 0, -0.000976562, -0.0898438, 0.349609, -9.70605, 1.28.2022 17:49:54.435
566, 2.01158, 0.307404, 165.863, 0, -0.000976562, 0, -0.0556641, 0.361328, -9.68945, 1.28.2022 17:49:54.443
567, 2.01194, 0.30737, 165.864, 0, 0, -0.000976562, -0.0371094, 0.313477, -9.71484, 1.28.2022 17:49:54.451
568, 2.01158, 0.307404, 165.863, 0, -0.000976562, -0.000976562, -0.0986328, 0.349609, -9.69434, 1.28.2022 17:49:54.459
569, 2.01158, 0.307404, 165.863, 0, 0, -0.000976562, -0.0546875, 0.328125, -9.72559, 1.28.2022 17:49:54.467
570, 2.01244, 0.314344, 165.863, 0, -0.000976562, -0.000976562, -0.0449219, 0.347656, -9.74023, 1.28.2022 17:49:54.475
571, 2.01244, 0.314344, 165.863, 0, -0.000976562, -0.000976562, -0.0810547, 0.360352, -9.74121, 1.28.2022 17:49:54.483
572, 2.01244, 0.314344, 165.863, -0.000976562, -0.000976562, -0.000976562, -0.0185547, 0.301758, -9.72461, 1.28.2022 17:49:54.491
573, 2.01246, 0.314463, 165.87, -0.000976562, -0.000976562, -0.00195312, -0.0898438, 0.352539, -9.74316, 1.28.2022 17:49:54.499
574, 2.02026, 0.320544, 165.87, -0.000976562, 0, -0.000976562, -0.0537109, 0.361328, -9.71094, 1.28.2022 17:49:54.507
575, 2.02026, 0.320544, 165.87, 0, -0.000976562, -0.000976562, -0.0136719, 0.321289, -9.72168, 1.28.2022 17:49:54.515
576, 2.02026, 0.320544, 165.87, -0.000976562, 0, -0.000976562, -0.0849609, 0.339844, -9.68945, 1.28.2022 17:49:54.523
577, 2.02026, 0.320544, 165.87, 0, 0, 0, -0.0488281, 0.330078, -9.70215, 1.28.2022 17:49:54.531
578, 2.02026, 0.320544, 165.87, 0, -0.000976562, 0, -0.0634766, 0.347656, -9.72266, 1.28.2022 17:49:54.539
579, 2.02026, 0.320544, 165.87, 0, -0.000976562, 0, -0.0683594, 0.345703, -9.73926, 1.28.2022 17:49:54.547
580, 2.01332, 0.321404, 165.87, 0, 0, 0, -0.0263672, 0.319336, -9.73828, 1.28.2022 17:49:54.555
581, 2.0133, 0.321284, 165.863, 0, 0, 0, -0.104492, 0.34082, -9.72949, 1.28.2022 17:49:54.563
582, 2.0133, 0.321284, 165.863, -0.000976562, 0, -0.000976562, -0.0390625, 0.344727, -9.69727, 1.28.2022 17:49:54.571
583, 2.01366, 0.321249, 165.864, 0, 0, 0, -0.0371094, 0.344727, -9.69727, 1.28.2022 17:49:54.579
584, 2.01366, 0.321249, 165.864, 0, -0.000976562, 0, -0.0800781, 0.369141, -9.71777, 1.28.2022 17:49:54.587
585, 2.01366, 0.321249, 165.864, -0.000976562, 0, -0.000976562, -0.0253906, 0.320312, -9.70801, 1.28.2022 17:49:54.595
586, 2.01366, 0.321249, 165.864, -0.000976562, 0, -0.000976562, -0.0458984, 0.320312, -9.76367, 1.28.2022 17:49:54.603
587, 2.01366, 0.321249, 165.864, 0, -0.000976562, 0, -0.0664062, 0.362305, -9.72266, 1.28.2022 17:49:54.611
588, 2.01366, 0.321249, 165.864, -0.000976562, -0.000976562, -0.000976562, -0.0195312, 0.31543, -9.7627, 1.28.2022 17:49:54.617
589, 2.01366, 0.321249, 165.864, -0.000976562, 0, -0.00195312, -0.109375, 0.347656, -9.71973, 1.28.2022 17:49:54.625
590, 2.01366, 0.321249, 165.864, -0.000976562, -0.000976562, 0, -0.0400391, 0.349609, -9.72363, 1.28.2022 17:49:54.633
591, 2.01366, 0.321249, 165.864, 0, 0, 0, -0.0263672, 0.317383, -9.75, 1.28.2022 17:49:54.641
592, 2.01366, 0.321249, 165.864, 0, 0, -0.000976562, -0.101562, 0.349609, -9.70117, 1.28.2022 17:49:54.649
593, 2.01366, 0.321249, 165.864, 0, 0, -0.000976562, -0.00585938, 0.334961, -9.69629, 1.28.2022 17:49:54.657
594, 2.0133, 0.321284, 165.863, 0, 0, -0.000976562, -0.0429688, 0.329102, -9.75488, 1.28.2022 17:49:54.665
595, 2.0133, 0.321284, 165.863, 0, 0, -0.000976562, -0.0722656, 0.351562, -9.69238, 1.28.2022 17:49:54.673
596, 2.0133, 0.321284, 165.863, 0, -0.000976562, 0, -0.0136719, 0.31543, -9.69629, 1.28.2022 17:49:54.681
597, 2.0133, 0.321284, 165.863, -0.000976562, -0.000976562, 0, -0.0761719, 0.34082, -9.7373, 1.28.2022 17:49:54.689
598, 2.01244, 0.314344, 165.863, 0, 0, 0, -0.0400391, 0.330078, -9.70996, 1.28.2022 17:49:54.697
599, 2.01244, 0.314344, 165.863, 0, 0, -0.000976562, -0.0185547, 0.342773, -9.72852, 1.28.2022 17:49:54.705
600, 2.01244, 0.314344, 165.863, 0, 0, -0.000976562, -0.0664062, 0.342773, -9.73047, 1.28.2022 17:49:54.713
601, 2.0055, 0.315204, 165.863, -0.000976562, 0, -0.00195312, 0.0195312, 0.323242, -9.71289, 1.28.2022 17:49:54.721
602, 2.00464, 0.308264, 165.863, 0, 0, -0.000976562, -0.0654297, 0.349609, -9.70117, 1.28.2022 17:49:54.729
603, 2.00464, 0.308264, 165.863, 0, -0.000976562, -0.000976562, -0.0761719, 0.355469, -9.73633, 1.28.2022 17:49:54.737
604, 2.00464, 0.308264, 165.863, 0, 0, -0.000976562, -0.0205078, 0.328125, -9.7002, 1.28.2022 17:49:54.745
605, 2.00467, 0.308383, 165.871, 0, 0, -0.00195312, -0.106445, 0.362305, -9.72461, 1.28.2022 17:49:54.753
606, 2.00467, 0.308383, 165.871, 0, 0, -0.000976562, -0.0449219, 0.322266, -9.75195, 1.28.2022 17:49:54.761
607, 2.00381, 0.301443, 165.871, -0.000976562, 0, -0.000976562, -0.0205078, 0.349609, -9.70703, 1.28.2022 17:49:54.769
608, 2.00381, 0.301443, 165.871, 0, 0, 0, -0.0947266, 0.351562, -9.70312, 1.28.2022 17:49:54.777
609, 2.00381, 0.301443, 165.871, 0, -0.000976562, -0.000976562, -0.0253906, 0.337891, -9.72363, 1.28.2022 17:49:54.785
610, 2.01074, 0.300584, 165.871, -0.000976562, 0, -0.00195312, -0.0732422, 0.345703, -9.73242, 1.28.2022 17:49:54.793
611, 2.01074, 0.300584, 165.871, 0, 0, -0.000976562, -0.0849609, 0.344727, -9.72266, 1.28.2022 17:49:54.801
612, 2.01074, 0.300584, 165.871, -0.000976562, 0, -0.000976562, -0.0136719, 0.326172, -9.74316, 1.28.2022 17:49:54.809
613, 2.01074, 0.300584, 165.871, 0, 0, -0.000976562, -0.104492, 0.348633, -9.75293, 1.28.2022 17:49:54.817
614, 2.01074, 0.300584, 165.871, 0, 0.000976562, -0.000976562, -0.0419922, 0.334961, -9.71875, 1.28.2022 17:49:54.825
615, 2.01074, 0.300584, 165.871, 0, 0, 0, -0.0400391, 0.311523, -9.73145, 1.28.2022 17:49:54.833
616, 2.01074, 0.300584, 165.871, -0.000976562, -0.000976562, -0.000976562, -0.0917969, 0.366211, -9.69824, 1.28.2022 17:49:54.841
617, 2.01074, 0.300584, 165.871, -0.000976562, -0.000976562, 0, -0.0234375, 0.333008, -9.71973, 1.28.2022 17:49:54.849
618, 2.0116, 0.307523, 165.871, -0.000976562, -0.000976562, 0, -0.0732422, 0.366211, -9.70801, 1.28.2022 17:49:54.857
619, 2.0116, 0.307523, 165.871, 0, 0, -0.000976562, -0.0566406, 0.333008, -9.71191, 1.28.2022 17:49:54.865
620, 2.0116, 0.307523, 165.871, 0, -0.000976562, 0, -0.015625, 0.328125, -9.71484, 1.28.2022 17:49:54.873
621, 2.0116, 0.307523, 165.871, -0.000976562, 0, -0.000976562, -0.0830078, 0.344727, -9.70605, 1.28.2022 17:49:54.881
622, 2.0116, 0.307523, 165.871, 0, 0, -0.000976562, -0.0400391, 0.320312, -9.70312, 1.28.2022 17:49:54.889
623, 2.0116, 0.307523, 165.871, 0.00195312, 0, -0.000976562, -0.0234375, 0.342773, -9.72559, 1.28.2022 17:49:54.897
624, 2.0116, 0.307523, 165.871, 0.000976562, 0, 0, -0.0703125, 0.361328, -9.71094, 1.28.2022 17:49:54.905
625, 2.01074, 0.300584, 165.871, 0, 0, 0, 0.0224609, 0.323242, -9.72266, 1.28.2022 17:49:54.913
626, 2.00378, 0.301324, 165.864, 0, -0.000976562, 0, -0.0517578, 0.333008, -9.7334, 1.28.2022 17:49:54.921
627, 2.00378, 0.301324, 165.864, 0.000976562, -0.000976562, -0.000976562, -0.0566406, 0.356445, -9.7041, 1.28.2022 17:49:54.929
628, 2.00378, 0.301324, 165.864, 0, -0.000976562, -0.00195312, -0.00878906, 0.336914, -9.70312, 1.28.2022 17:49:54.937
629, 2.00381, 0.301443, 165.871, 0, -0.000976562, -0.000976562, -0.0888672, 0.345703, -9.67578, 1.28.2022 17:49:54.945
630, 2.01074, 0.300584, 165.871, 0, 0, -0.000976562, -0.0537109, 0.338867, -9.68555, 1.28.2022 17:49:54.953
631, 2.01072, 0.300464, 165.864, 0, 0, 0, -0.0537109, 0.330078, -9.70703, 1.28.2022 17:49:54.961
632, 2.01072, 0.300464, 165.864, 0, 0, 0, -0.0996094, 0.345703, -9.72949, 1.28.2022 17:49:54.969
633, 2.01072, 0.300464, 165.864, -0.000976562, -0.000976562, -0.000976562, -0.00878906, 0.349609, -9.73047, 1.28.2022 17:49:54.977
634, 2.01072, 0.300464, 165.864, 0, -0.000976562, 0, -0.0703125, 0.336914, -9.6875, 1.28.2022 17:49:54.985
635, 2.01072, 0.300464, 165.864, -0.000976562, -0.000976562, 0, -0.0683594, 0.344727, -9.72559, 1.28.2022 17:49:54.993
636, 2.01072, 0.300464, 165.864, 0, -0.000976562, -0.000976562, -0.00390625, 0.337891, -9.72168, 1.28.2022 17:49:55.001
637, 2.01072, 0.300464, 165.864, 0, -0.000976562, -0.000976562, -0.119141, 0.370117, -9.74512, 1.28.2022 17:49:55.009
638, 2.01072, 0.300464, 165.864, -0.000976562, 0, -0.000976562, -0.0595703, 0.317383, -9.74707, 1.28.2022 17:49:55.017
639, 2.01072, 0.300464, 165.864, -0.000976562, -0.000976562, -0.000976562, -0.0371094, 0.326172, -9.72168, 1.28.2022 17:49:55.025
640, 2.01072, 0.300464, 165.864, -0.000976562, -0.000976562, -0.000976562, -0.0654297, 0.339844, -9.69434, 1.28.2022 17:49:55.033
641, 2.01072, 0.300464, 165.864, -0.000976562, 0, -0.000976562, 0.00585938, 0.333008, -9.70996, 1.28.2022 17:49:55.041
642, 2.01072, 0.300464, 165.864, -0.000976562, 0, 0, -0.0449219, 0.338867, -9.74219, 1.28.2022 17:49:55.049
643, 2.01072, 0.300464, 165.864, -0.000976562, 0, -0.000976562, -0.0566406, 0.356445, -9.71094, 1.28.2022 17:49:55.057
644, 2.01072, 0.300464, 165.864, 0, -0.000976562, -0.000976562, -0.0253906, 0.330078, -9.70508, 1.28.2022 17:49:55.065
645, 2.01072, 0.300464, 165.864, 0, 0, -0.00195312, -0.119141, 0.350586, -9.72949, 1.28.2022 17:49:55.073
646, 2.01072, 0.300464, 165.864, 0, 0, -0.000976562, -0.0449219, 0.34082, -9.74512, 1.28.2022 17:49:55.081
647, 2.01072, 0.300464, 165.864, 0, 0, -0.000976562, -0.0654297, 0.333008, -9.7041, 1.28.2022 17:49:55.089
648, 2.01072, 0.300464, 165.864, 0, -0.000976562, -0.000976562, -0.101562, 0.371094, -9.7002, 1.28.2022 17:49:55.097
649, 2.01072, 0.300464, 165.864, -0.000976562, -0.000976562, -0.000976562, 0.00488281, 0.338867, -9.74316, 1.28.2022 17:49:55.105
650, 2.01072, 0.300464, 165.864, -0.00195312, -0.000976562, -0.000976562, -0.0732422, 0.348633, -9.74414, 1.28.2022 17:49:55.113
651, 2.01074, 0.300584, 165.871, 0, 0, -0.000976562, -0.0527344, 0.355469, -9.75586, 1.28.2022 17:49:55.121
652, 2.01768, 0.299724, 165.871, -0.000976562, -0.000976562, 0, -0.00878906, 0.351562, -9.7168, 1.28.2022 17:49:55.129
653, 2.01765, 0.299604, 165.864, -0.000976562, 0, 0, -0.101562, 0.354492, -9.70801, 1.28.2022 17:49:55.137
654, 2.01765, 0.299604, 165.864, 0, 0, -0.000976562, -0.0146484, 0.336914, -9.7666, 1.28.2022 17:49:55.145
655, 2.01802, 0.29957, 165.864, 0, 0, 0, -0.0712891, 0.34082, -9.73438, 1.28.2022 17:49:55.153
656, 2.01802, 0.29957, 165.864, -0.000976562, 0, -0.000976562, -0.0761719, 0.342773, -9.72559, 1.28.2022 17:49:55.161
657, 2.01802, 0.29957, 165.864, -0.000976562, 0, 0, 0.0078125, 0.304688, -9.72559, 1.28.2022 17:49:55.169
658, 2.01802, 0.29957, 165.864, -0.000976562, 0, -0.000976562, -0.0576172, 0.338867, -9.76562, 1.28.2022 17:49:55.177
659, 2.01802, 0.29957, 165.864, -0.000976562, -0.000976562, -0.000976562, -0.0419922, 0.333008, -9.72168, 1.28.2022 17:49:55.185
660, 2.01802, 0.29957, 165.864, 0, -0.000976562, -0.000976562, -0.0332031, 0.333984, -9.74316, 1.28.2022 17:49:55.193
661, 2.01802, 0.29957, 165.864, -0.000976562, 0, -0.000976562, -0.0966797, 0.349609, -9.70117, 1.28.2022 17:49:55.201
662, 2.01802, 0.29957, 165.864, -0.000976562, 0, -0.000976562, -0.0302734, 0.357422, -9.73926, 1.28.2022 17:49:55.209
663, 2.01802, 0.29957, 165.864, -0.000976562, 0, 0, -0.0556641, 0.317383, -9.68164, 1.28.2022 17:49:55.217
664, 2.01802, 0.29957, 165.864, -0.000976562, 0, -0.000976562, -0.0869141, 0.356445, -9.71289, 1.28.2022 17:49:55.225
665, 2.01802, 0.29957, 165.864, -0.000976562, 0, -0.000976562, 0.0126953, 0.321289, -9.72754, 1.28.2022 17:49:55.233
666, 2.01802, 0.29957, 165.864, -0.000976562, 0, -0.000976562, -0.0634766, 0.362305, -9.73438, 1.28.2022 17:49:55.241
667, 2.01802, 0.29957, 165.864, 0, 0, 0, -0.0585938, 0.342773, -9.72266, 1.28.2022 17:49:55.249
668, 2.01716, 0.292631, 165.865, -0.000976562, -0.000976562, -0.000976562, -0.0205078, 0.308594, -9.71484, 1.28.2022 17:49:55.257
669, 2.01716, 0.292631, 165.865, -0.000976562, 0, -0.000976562, -0.114258, 0.353516, -9.75977, 1.28.2022 17:49:55.265
670, 2.01716, 0.292631, 165.865, -0.000976562, 0, 0, -0.0146484, 0.329102, -9.75, 1.28.2022 17:49:55.273
671, 2.01716, 0.292631, 165.865, -0.000976562, 0, -0.000976562, -0.0595703, 0.306641, -9.72656, 1.28.2022 17:49:55.281
672, 2.01679, 0.292664, 165.864, -0.000976562, -0.000976562, -0.000976562, -0.0810547, 0.37207, -9.73633, 1.28.2022 17:49:55.289
673, 2.01679, 0.292664, 165.864, -0.000976562, -0.000976562, -0.000976562, -0.0283203, 0.337891, -9.71875, 1.28.2022 17:49:55.297
674, 2.01765, 0.299604, 165.864, -0.000976562, -0.000976562, 0, -0.101562, 0.347656, -9.72656, 1.28.2022 17:49:55.305
675, 2.01802, 0.29957, 165.864, -0.000976562, 0, 0, -0.0400391, 0.347656, -9.74219, 1.28.2022 17:49:55.313
676, 2.01802, 0.29957, 165.864, -0.000976562, -0.000976562, -0.000976562, -0.0214844, 0.332031, -9.75488, 1.28.2022 17:49:55.321
677, 2.01802, 0.29957, 165.864, 0, 0, -0.000976562, -0.0986328, 0.336914, -9.69629, 1.28.2022 17:49:55.329
678, 2.01802, 0.29957, 165.864, 0, -0.000976562, -0.000976562, -0.0429688, 0.352539, -9.73535, 1.28.2022 17:49:55.337
679, 2.01765, 0.299604, 165.864, -0.000976562, -0.000976562, -0.000976562, -0.0527344, 0.329102, -9.76172, 1.28.2022 17:49:55.345
680, 2.01765, 0.299604, 165.864, -0.000976562, -0.00195312, 0, -0.0644531, 0.335938, -9.7373, 1.28.2022 17:49:55.353
681, 2.01765, 0.299604, 165.864, 0, -0.000976562, -0.000976562, 0.00292969, 0.328125, -9.72949, 1.28.2022 17:49:55.361
682, 2.01765, 0.299604, 165.864, -0.000976562, 0, -0.000976562, -0.0917969, 0.331055, -9.71582, 1.28.2022 17:49:55.369
683, 2.01072, 0.300464, 165.864, 0, -0.00195312, -0.000976562, -0.0615234, 0.357422, -9.7207, 1.28.2022 17:49:55.377
684, 2.01072, 0.300464, 165.864, -0.000976562, 0, -0.000976562, -0.0253906, 0.34082, -9.72852, 1.28.2022 17:49:55.385
685, 2.01072, 0.300464, 165.864, 0, 0, -0.000976562, -0.09375, 0.365234, -9.68164, 1.28.2022 17:49:55.393
686, 2.0116, 0.307523, 165.871, -0.000976562, -0.000976562, -0.000976562, -0.0322266, 0.339844, -9.71387, 1.28.2022 17:49:55.401
687, 2.0116, 0.307523, 165.871, -0.00195312, 0, -0.000976562, -0.0498047, 0.352539, -9.74219, 1.28.2022 17:49:55.409
688, 2.01854, 0.306664, 165.871, -0.000976562, -0.000976562, 0, -0.0830078, 0.331055, -9.72266, 1.28.2022 17:49:55.417
689, 2.01851, 0.306544, 165.863, -0.000976562, 0, -0.000976562, -0.0185547, 0.329102, -9.74023, 1.28.2022 17:49:55.425
690, 2.0116, 0.307523, 165.871, 0.000976562, -0.000976562, -0.000976562, -0.101562, 0.351562, -9.70801, 1.28.2022 17:49:55.433
691, 2.0116, 0.307523, 165.871, 0, -0.000976562, 0, -0.0546875, 0.342773, -9.72754, 1.28.2022 17:49:55.441
692, 2.01158, 0.307404, 165.863, 0, 0, 0, -0.0322266, 0.333008, -9.70703, 1.28.2022 17:49:55.449
693, 2.01158, 0.307404, 165.863, 0, -0.000976562, -0.000976562, -0.104492, 0.354492, -9.71973, 1.28.2022 17:49:55.457
694, 2.0116, 0.307523, 165.871, -0.000976562, 0, -0.00195312, -0.0117188, 0.349609, -9.73047, 1.28.2022 17:49:55.465
695, 2.0116, 0.307523, 165.871, -0.000976562, 0, -0.000976562, -0.0546875, 0.324219, -9.75195, 1.28.2022 17:49:55.473
696, 2.0116, 0.307523, 165.871, 0, 0, -0.000976562, -0.0595703, 0.337891, -9.73047, 1.28.2022 17:49:55.481
697, 2.0116, 0.307523, 165.871, 0, 0, 0, -0.0117188, 0.331055, -9.71973, 1.28.2022 17:49:55.489
698, 2.0116, 0.307523, 165.871, -0.000976562, 0.000976562, 0, -0.0917969, 0.358398, -9.69824, 1.28.2022 17:49:55.497
699, 2.0116, 0.307523, 165.871, -0.000976562, 0.000976562, -0.000976562, -0.0556641, 0.365234, -9.6875, 1.28.2022 17:49:55.505
700, 2.0116, 0.307523, 165.871, 0, -0.000976562, -0.000976562, -0.0498047, 0.352539, -9.74707, 1.28.2022 17:49:55.513
701, 2.0116, 0.307523, 165.871, 0.000976562, -0.000976562, -0.000976562, -0.101562, 0.361328, -9.69141, 1.28.2022 17:49:55.521
702, 2.0116, 0.307523, 165.871, 0.000976562, 0, -0.000976562, -0.0185547, 0.337891, -9.71191, 1.28.2022 17:49:55.529
703, 2.01246, 0.314463, 165.87, 0, 0, 0, -0.0644531, 0.327148, -9.76367, 1.28.2022 17:49:55.537
704, 2.01246, 0.314463, 165.87, -0.000976562, 0, -0.000976562, -0.0498047, 0.329102, -9.74023, 1.28.2022 17:49:55.545
705, 2.0194, 0.313604, 165.87, -0.000976562, 0, -0.000976562, -0.015625, 0.331055, -9.72461, 1.28.2022 17:49:55.553
706, 2.0194, 0.313604, 165.87, -0.000976562, 0, -0.000976562, -0.0898438, 0.341797, -9.7041, 1.28.2022 17:49:55.559
707, 2.01854, 0.306664, 165.871, 0, 0, 0, -0.0429688, 0.332031, -9.77051, 1.28.2022 17:49:55.569
708, 2.0116, 0.307523, 165.871, -0.000976562, 0, 0, -0.0380859, 0.319336, -9.75488, 1.28.2022 17:49:55.575
709, 2.01158, 0.307404, 165.863, 0, 0, -0.000976562, -0.0966797, 0.349609, -9.72461, 1.28.2022 17:49:55.583
710, 2.01158, 0.307404, 165.863, -0.000976562, 0, 0, -0.0273438, 0.318359, -9.70801, 1.28.2022 17:49:55.591
711, 2.01158, 0.307404, 165.863, 0, 0, -0.000976562, -0.0566406, 0.369141, -9.71094, 1.28.2022 17:49:55.601
712, 2.01158, 0.307404, 165.863, -0.000976562, 0.000976562, 0, -0.0673828, 0.348633, -9.67285, 1.28.2022 17:49:55.607
713, 2.01158, 0.307404, 165.863, -0.000976562, 0, 0, -0.0185547, 0.331055, -9.73633, 1.28.2022 17:49:55.615
714, 2.01158, 0.307404, 165.863, 0, 0, -0.000976562, -0.0947266, 0.344727, -9.70605, 1.28.2022 17:49:55.623
715, 2.01158, 0.307404, 165.863, -0.000976562, -0.000976562, -0.000976562, -0.0615234, 0.342773, -9.72559, 1.28.2022 17:49:55.631
716, 2.01158, 0.307404, 165.863, 0, 0, -0.000976562, -0.0185547, 0.364258, -9.74219, 1.28.2022 17:49:55.639
717, 2.01158, 0.307404, 165.863, 0, -0.000976562, 0, -0.0644531, 0.357422, -9.74414, 1.28.2022 17:49:55.647
718, 2.01194, 0.30737, 165.864, -0.000976562, -0.000976562, 0, 0.00976562, 0.327148, -9.76953, 1.28.2022 17:49:55.655
719, 2.01194, 0.30737, 165.864, 0.000976562, -0.000976562, 0, -0.0761719, 0.345703, -9.72754, 1.28.2022 17:49:55.663
720, 2.01888, 0.30651, 165.864, 0, 0, 0, -0.0751953, 0.368164, -9.69336, 1.28.2022 17:49:55.671
721, 2.01888, 0.30651, 165.864, 0, 0, -0.000976562, 0.00292969, 0.345703, -9.74512, 1.28.2022 17:49:55.679
722, 2.01888, 0.30651, 165.864, -0.000976562, 0, -0.000976562, -0.111328, 0.347656, -9.71289, 1.28.2022 17:49:55.687
723, 2.01888, 0.30651, 165.864, 0, 0, -0.000976562, -0.0634766, 0.342773, -9.72559, 1.28.2022 17:49:55.695
724, 2.01888, 0.30651, 165.864, -0.000976562, 0, -0.000976562, -0.0380859, 0.331055, -9.7334, 1.28.2022 17:49:55.703
725, 2.01888, 0.30651, 165.864, -0.000976562, 0, -0.000976562, -0.101562, 0.361328, -9.70508, 1.28.2022 17:49:55.711
726, 2.01888, 0.30651, 165.864, 0, 0, -0.000976562, -0.0214844, 0.326172, -9.74805, 1.28.2022 17:49:55.719
727, 2.01888, 0.30651, 165.864, 0, 0, -0.000976562, -0.0830078, 0.335938, -9.72266, 1.28.2022 17:49:55.727
728, 2.01974, 0.31345, 165.864, 0, -0.000976562, -0.000976562, -0.101562, 0.357422, -9.71484, 1.28.2022 17:49:55.735
729, 2.01974, 0.31345, 165.864, 0, -0.000976562, -0.000976562, 0, 0.329102, -9.74121, 1.28.2022 17:49:55.743
730, 2.01974, 0.31345, 165.864, -0.000976562, 0, 0, -0.0800781, 0.369141, -9.72461, 1.28.2022 17:49:55.751
731, 2.01974, 0.31345, 165.864, 0, 0, -0.000976562, -0.0478516, 0.348633, -9.75586, 1.28.2022 17:49:55.759
732, 2.01974, 0.31345, 165.864, 0, 0, 0, -0.0498047, 0.321289, -9.74316, 1.28.2022 17:49:55.767
733, 2.01974, 0.31345, 165.864, 0, -0.000976562, 0, -0.0966797, 0.361328, -9.69141, 1.28.2022 17:49:55.775
734, 2.01974, 0.31345, 165.864, -0.000976562, 0, -0.000976562, -0.0302734, 0.322266, -9.68848, 1.28.2022 17:49:55.783
735, 2.02668, 0.312589, 165.864, 0, 0, -0.000976562, -0.046875, 0.347656, -9.73242, 1.28.2022 17:49:55.791
736, 2.02668, 0.312589, 165.864, 0.000976562, 0, -0.000976562, -0.0693359, 0.367188, -9.74609, 1.28.2022 17:49:55.799
737, 2.02668, 0.312589, 165.864, 0, -0.000976562, -0.000976562, 0, 0.3125, -9.75098, 1.28.2022 17:49:55.807
738, 2.02668, 0.312589, 165.864, -0.000976562, -0.000976562, 0.000976562, -0.104492, 0.361328, -9.71484, 1.28.2022 17:49:55.815
739, 2.02754, 0.319529, 165.864, 0, -0.000976562, -0.000976562, -0.0634766, 0.337891, -9.71582, 1.28.2022 17:49:55.823
740, 2.02754, 0.319529, 165.864, 0, 0, -0.000976562, -0.0537109, 0.334961, -9.71875, 1.28.2022 17:49:55.831
741, 2.02754, 0.319529, 165.864, 0, -0.000976562, 0, -0.0849609, 0.345703, -9.73633, 1.28.2022 17:49:55.839
742, 2.0206, 0.320389, 165.864, 0, -0.000976562, -0.000976562, -0.0205078, 0.323242, -9.72656, 1.28.2022 17:49:55.847
743, 2.0206, 0.320389, 165.864, 0, -0.000976562, -0.000976562, -0.0546875, 0.304688, -9.71973, 1.28.2022 17:49:55.855
744, 2.0206, 0.320389, 165.864, 0, -0.000976562, -0.000976562, -0.0761719, 0.326172, -9.72363, 1.28.2022 17:49:55.863
745, 2.0206, 0.320389, 165.864, 0, 0, -0.000976562, -0.0273438, 0.325195, -9.7002, 1.28.2022 17:49:55.871
746, 2.0206, 0.320389, 165.864, 0, -0.000976562, -0.000976562, -0.0898438, 0.357422, -9.72461, 1.28.2022 17:49:55.879
747, 2.0206, 0.320389, 165.864, -0.000976562, -0.000976562, -0.000976562, -0.0214844, 0.350586, -9.75684, 1.28.2022 17:49:55.887
748, 2.01366, 0.321249, 165.864, 0, 0, -0.000976562, -0.0566406, 0.327148, -9.75195, 1.28.2022 17:49:55.895
749, 2.0133, 0.321284, 165.863, -0.000976562, -0.000976562, -0.000976562, -0.0664062, 0.348633, -9.76074, 1.28.2022 17:49:55.903
750, 2.0133, 0.321284, 165.863, -0.000976562, -0.000976562, -0.000976562, 0, 0.333984, -9.75293, 1.28.2022 17:49:55.911
751, 2.01332, 0.321404, 165.87, 0, 0, -0.000976562, -0.078125, 0.351562, -9.70117, 1.28.2022 17:49:55.919
752, 2.01332, 0.321404, 165.87, -0.000976562, -0.000976562, -0.000976562, -0.0810547, 0.369141, -9.73828, 1.28.2022 17:49:55.927
753, 2.01332, 0.321404, 165.87, -0.000976562, 0, -0.000976562, -0.0351562, 0.328125, -9.73145, 1.28.2022 17:49:55.935
754, 2.01332, 0.321404, 165.87, -0.000976562, -0.000976562, 0, -0.107422, 0.375, -9.75, 1.28.2022 17:49:55.943
755, 2.02026, 0.320544, 165.87, -0.000976562, 0, -0.000976562, -0.0400391, 0.350586, -9.73242, 1.28.2022 17:49:55.951
756, 2.02026, 0.320544, 165.87, 0, 0, -0.000976562, -0.0517578, 0.307617, -9.73828, 1.28.2022 17:49:55.959
757, 2.02026, 0.320544, 165.87, -0.000976562, -0.000976562, -0.000976562, -0.101562, 0.333008, -9.72461, 1.28.2022 17:49:55.967
758, 2.02026, 0.320544, 165.87, 0, 0, 0, -0.00195312, 0.333008, -9.70996, 1.28.2022 17:49:55.975
759, 2.01332, 0.321404, 165.87, -0.000976562, 0, 0, -0.0800781, 0.326172, -9.71191, 1.28.2022 17:49:55.983
760, 2.01332, 0.321404, 165.87, 0, -0.000976562, -0.000976562, -0.0703125, 0.341797, -9.69922, 1.28.2022 17:49:55.991
761, 2.01332, 0.321404, 165.87, 0, -0.000976562, 0, -0.00488281, 0.294922, -9.73438, 1.28.2022 17:49:55.999
762, 2.01416, 0.328224, 165.863, 0, -0.000976562, 0, -0.0898438, 0.359375, -9.70605, 1.28.2022 17:49:56.007
763, 2.01416, 0.328224, 165.863, 0, -0.000976562, -0.000976562, -0.046875, 0.367188, -9.72754, 1.28.2022 17:49:56.015
764, 2.01418, 0.328344, 165.87, -0.000976562, -0.000976562, -0.000976562, -0.046875, 0.341797, -9.70703, 1.28.2022 17:49:56.023
765, 2.01418, 0.328344, 165.87, 0, -0.000976562, 0, -0.0771484, 0.368164, -9.69824, 1.28.2022 17:49:56.031
766, 2.01418, 0.328344, 165.87, 0, 0, -0.000976562, 0.000976562, 0.337891, -9.71484, 1.28.2022 17:49:56.039
767, 2.0133, 0.321284, 165.863, -0.000976562, 0, 0, -0.0664062, 0.342773, -9.7373, 1.28.2022 17:49:56.047
768, 2.0133, 0.321284, 165.863, 0, 0, 0, -0.0605469, 0.348633, -9.69238, 1.28.2022 17:49:56.055
769, 2.01366, 0.321249, 165.864, 0, 0, 0, -0.00195312, 0.335938, -9.74121, 1.28.2022 17:49:56.063
770, 2.01366, 0.321249, 165.864, -0.000976562, 0, 0, -0.0849609, 0.369141, -9.72461, 1.28.2022 17:49:56.071
771, 2.0206, 0.320389, 165.864, 0, 0, -0.000976562, -0.0332031, 0.342773, -9.72559, 1.28.2022 17:49:56.079
772, 2.0206, 0.320389, 165.864, -0.000976562, 0, -0.000976562, -0.0371094, 0.313477, -9.7002, 1.28.2022 17:49:56.087
773, 2.0206, 0.320389, 165.864, -0.000976562, 0, -0.000976562, -0.101562, 0.336914, -9.69922, 1.28.2022 17:49:56.095
774, 2.01974, 0.31345, 165.864, -0.000976562, -0.000976562, 0, 0.000976562, 0.318359, -9.69922, 1.28.2022 17:49:56.103
775, 2.01974, 0.31345, 165.864, 0, -0.000976562, -0.000976562, -0.0761719, 0.345703, -9.72754, 1.28.2022 17:49:56.111
776, 2.01974, 0.31345, 165.864, -0.000976562, -0.000976562, 0, -0.0175781, 0.332031, -9.67188, 1.28.2022 17:49:56.119
777, 2.01974, 0.31345, 165.864, -0.000976562, -0.000976562, -0.000976562, -0.00195312, 0.318359, -9.70605, 1.28.2022 17:49:56.127
778, 2.01974, 0.31345, 165.864, -0.000976562, -0.000976562, 0, -0.0888672, 0.358398, -9.6748, 1.28.2022 17:49:56.135
779, 2.0128, 0.31431, 165.864, 0, -0.000976562, 0, -0.0615234, 0.323242, -9.70996, 1.28.2022 17:49:56.143
780, 2.01194, 0.30737, 165.864, 0, -0.000976562, -0.000976562, -0.046875, 0.328125, -9.7168, 1.28.2022 17:49:56.151
781, 2.01194, 0.30737, 165.864, 0.000976562, -0.000976562, -0.000976562, -0.0878906, 0.347656, -9.71777, 1.28.2022 17:49:56.159
782, 2.01158, 0.307404, 165.863, 0, 0, -0.00195312, 0.0224609, 0.328125, -9.72461, 1.28.2022 17:49:56.167
783, 2.01158, 0.307404, 165.863, -0.000976562, 0, -0.000976562, -0.0712891, 0.333008, -9.72559, 1.28.2022 17:49:56.175
784, 2.01158, 0.307404, 165.863, -0.000976562, 0, -0.000976562, -0.0488281, 0.351562, -9.70605, 1.28.2022 17:49:56.183
785, 2.01072, 0.300464, 165.864, -0.000976562, 0, -0.000976562, -0.0449219, 0.342773, -9.71387, 1.28.2022 17:49:56.191
786, 2.01072, 0.300464, 165.864, -0.000976562, 0, -0.000976562, -0.106445, 0.345703, -9.73145, 1.28.2022 17:49:56.199
787, 2.01072, 0.300464, 165.864, 0, -0.000976562, 0, -0.00585938, 0.327148, -9.69824, 1.28.2022 17:49:56.207
788, 2.01072, 0.300464, 165.864, -0.000976562, 0, 0, -0.0351562, 0.337891, -9.7334, 1.28.2022 17:49:56.215
789, 2.01072, 0.300464, 165.864, 0, 0, 0, -0.0664062, 0.342773, -9.7373, 1.28.2022 17:49:56.223
790, 2.01072, 0.300464, 165.864, 0, 0, 0, 0.0175781, 0.308594, -9.70215, 1.28.2022 17:49:56.231
791, 2.00986, 0.293524, 165.864, 0, 0, -0.000976562, -0.0830078, 0.335938, -9.73926, 1.28.2022 17:49:56.239
792, 2.00292, 0.294384, 165.864, 0, 0, -0.000976562, -0.0322266, 0.360352, -9.67773, 1.28.2022 17:49:56.247
793, 2.00292, 0.294384, 165.864, 0, -0.000976562, -0.000976562, -0.0136719, 0.331055, -9.7334, 1.28.2022 17:49:56.255
794, 2.00292, 0.294384, 165.864, 0.000976562, -0.000976562, -0.000976562, -0.0976562, 0.364258, -9.73633, 1.28.2022 17:49:56.263
795, 2.00206, 0.287444, 165.864, 0, 0, -0.000976562, -0.00683594, 0.342773, -9.72852, 1.28.2022 17:49:56.271
796, 2.00206, 0.287444, 165.864, 0, 0, -0.000976562, -0.0537109, 0.328125, -9.70508, 1.28.2022 17:49:56.279
797, 2.00206, 0.287444, 165.864, 0, -0.000976562, 0, -0.0595703, 0.369141, -9.73438, 1.28.2022 17:49:56.287
798, 2.00206, 0.287444, 165.864, 0, 0, -0.000976562, -0.015625, 0.303711, -9.71094, 1.28.2022 17:49:56.295
799, 2.00206, 0.287444, 165.864, -0.000976562, -0.000976562, -0.000976562, -0.0800781, 0.351562, -9.70117, 1.28.2022 17:49:56.303
800, 2.00206, 0.287444, 165.864, -0.000976562, 0, -0.000976562, -0.0634766, 0.342773, -9.7207, 1.28.2022 17:49:56.311
801, 2.0012, 0.280504, 165.864, 0, -0.000976562, -0.000976562, -0.0185547, 0.330078, -9.71191, 1.28.2022 17:49:56.319
802, 2.00206, 0.287444, 165.864, -0.000976562, -0.000976562, -0.000976562, -0.116211, 0.355469, -9.74512, 1.28.2022 17:49:56.327
803, 2.00903, 0.286704, 165.871, 0, 0, -0.00195312, -0.0117188, 0.352539, -9.72559, 1.28.2022 17:49:56.335
804, 2.00817, 0.279764, 165.871, 0, -0.000976562, -0.000976562, -0.0517578, 0.333008, -9.7207, 1.28.2022 17:49:56.343
805, 2.00903, 0.286704, 165.871, 0, 0, -0.000976562, -0.0927734, 0.378906, -9.73535, 1.28.2022 17:49:56.351
806, 2.00903, 0.286704, 165.871, -0.000976562, -0.00195312, -0.000976562, -0.00390625, 0.316406, -9.71484, 1.28.2022 17:49:56.359
807, 2.00903, 0.286704, 165.871, -0.000976562, -0.000976562, -0.000976562, -0.0957031, 0.325195, -9.77539, 1.28.2022 17:49:56.367
808, 2.00903, 0.286704, 165.871, 0, -0.000976562, -0.000976562, -0.0634766, 0.349609, -9.69922, 1.28.2022 17:49:56.375
809, 2.00903, 0.286704, 165.871, 0, -0.000976562, -0.000976562, -0.0136719, 0.308594, -9.71582, 1.28.2022 17:49:56.383
810, 2.00903, 0.286704, 165.871, 0, -0.000976562, 0, -0.108398, 0.354492, -9.70117, 1.28.2022 17:49:56.391
811, 2.00903, 0.286704, 165.871, -0.000976562, -0.00195312, -0.000976562, -0.0185547, 0.329102, -9.73633, 1.28.2022 17:49:56.399
812, 2.00903, 0.286704, 165.871, 0, 0, 0, -0.0136719, 0.311523, -9.71484, 1.28.2022 17:49:56.407
813, 2.00209, 0.287563, 165.871, 0, -0.000976562, -0.000976562, -0.0683594, 0.332031, -9.69238, 1.28.2022 17:49:56.415
814, 2.00209, 0.287563, 165.871, 0, -0.000976562, -0.000976562, 0.00292969, 0.319336, -9.75098, 1.28.2022 17:49:56.423
815, 2.00209, 0.287563, 165.871, 0, -0.000976562, -0.000976562, -0.078125, 0.34082, -9.72559, 1.28.2022 17:49:56.431
816, 2.00209, 0.287563, 165.871, 0, 0, 0, -0.0322266, 0.34668, -9.68848, 1.28.2022 17:49:56.439
817, 2.00209, 0.287563, 165.871, 0, 0, -0.000976562, -0.00585938, 0.336914, -9.70801, 1.28.2022 17:49:56.447
818, 2.00209, 0.287563, 165.871, -0.000976562, -0.000976562, -0.000976562, -0.0908203, 0.360352, -9.74805, 1.28.2022 17:49:56.455
819, 2.00123, 0.280623, 165.871, 0, 0, -0.000976562, -0.00683594, 0.331055, -9.74805, 1.28.2022 17:49:56.463
820, 2.00123, 0.280623, 165.871, 0, 0, -0.000976562, -0.0585938, 0.337891, -9.70703, 1.28.2022 17:49:56.471
821, 2.00123, 0.280623, 165.871, 0, 0, -0.000976562, -0.0566406, 0.333008, -9.71387, 1.28.2022 17:49:56.479
822, 2.00123, 0.280623, 165.871, 0, 0, -0.00195312, 0.0224609, 0.356445, -9.71973, 1.28.2022 17:49:56.487
823, 2.00123, 0.280623, 165.871, -0.000976562, -0.000976562, 0, -0.0849609, 0.352539, -9.71973, 1.28.2022 17:49:56.495
824, 2.00037, 0.273683, 165.871, -0.000976562, 0, -0.000976562, -0.0566406, 0.364258, -9.70801, 1.28.2022 17:49:56.503
825, 2.00037, 0.273683, 165.871, 0, 0, -0.000976562, -0.0361328, 0.335938, -9.75195, 1.28.2022 17:49:56.511
826, 2.00037, 0.273683, 165.871, -0.000976562, -0.000976562, -0.000976562, -0.0966797, 0.364258, -9.7168, 1.28.2022 17:49:56.519
827, 2.00037, 0.273683, 165.871, 0, 0, -0.000976562, 0, 0.34082, -9.74512, 1.28.2022 17:49:56.525
828, 2.00731, 0.272824, 165.871, 0, -0.000976562, -0.000976562, -0.0332031, 0.331055, -9.74316, 1.28.2022 17:49:56.533
829, 2.00731, 0.272824, 165.871, 0.000976562, 0, -0.000976562, -0.0683594, 0.324219, -9.7373, 1.28.2022 17:49:56.541
830, 2.00731, 0.272824, 165.871, 0.000976562, -0.000976562, -0.000976562, -0.0263672, 0.331055, -9.74023, 1.28.2022 17:49:56.549
831, 2.00037, 0.273683, 165.871, 0.000976562, -0.000976562, -0.000976562, -0.0898438, 0.357422, -9.73438, 1.28.2022 17:49:56.557
832, 2.00731, 0.272824, 165.871, 0, 0.000976562, -0.000976562, -0.0478516, 0.345703, -9.75195, 1.28.2022 17:49:56.565
833, 2.00731, 0.272824, 165.871, 0, 0, -0.00195312, -0.0332031, 0.335938, -9.73047, 1.28.2022 17:49:56.573
834, 2.00731, 0.272824, 165.871, 0, -0.000976562, -0.000976562, -0.0917969, 0.349609, -9.70312, 1.28.2022 17:49:56.581
835, 2.00731, 0.272824, 165.871, -0.000976562, -0.000976562, -0.000976562, -0.0117188, 0.336914, -9.76465, 1.28.2022 17:49:56.589
836, 2.00731, 0.272824, 165.871, -0.000976562, 0, -0.000976562, -0.0253906, 0.337891, -9.7168, 1.28.2022 17:49:56.597
837, 2.00731, 0.272824, 165.871, 0, -0.000976562, -0.000976562, -0.0634766, 0.339844, -9.71387, 1.28.2022 17:49:56.605
838, 2.00731, 0.272824, 165.871, 0, -0.000976562, -0.000976562, 0.00488281, 0.333008, -9.7334, 1.28.2022 17:49:56.613
839, 2.00731, 0.272824, 165.871, 0.000976562, -0.000976562, -0.000976562, -0.0996094, 0.357422, -9.71973, 1.28.2022 17:49:56.621
840, 2.00731, 0.272824, 165.871, 0, 0, 0.000976562, -0.0400391, 0.342773, -9.72559, 1.28.2022 17:49:56.629
841, 2.00731, 0.272824, 165.871, 0, -0.000976562, -0.000976562, -0.0400391, 0.328125, -9.72168, 1.28.2022 17:49:56.637
842, 2.00731, 0.272824, 165.871, -0.000976562, 0, -0.000976562, -0.0869141, 0.356445, -9.68945, 1.28.2022 17:49:56.645
843, 2.00731, 0.272824, 165.871, 0, 0.000976562, 0.000976562, -0.0107422, 0.334961, -9.71484, 1.28.2022 17:49:56.653
844, 2.00731, 0.272824, 165.871, 0, 0, -0.000976562, -0.046875, 0.349609, -9.70215, 1.28.2022 17:49:56.661
845, 2.00731, 0.272824, 165.871, 0, 0, -0.000976562, -0.0703125, 0.313477, -9.69824, 1.28.2022 17:49:56.669
846, 2.00731, 0.272824, 165.871, -0.000976562, 0, -0.000976562, -0.00878906, 0.321289, -9.71777, 1.28.2022 17:49:56.677
847, 2.00731, 0.272824, 165.871, -0.000976562, -0.000976562, -0.000976562, -0.102539, 0.382812, -9.76855, 1.28.2022 17:49:56.685
848, 2.00731, 0.272824, 165.871, -0.000976562, -0.000976562, -0.000976562, -0.0546875, 0.354492, -9.72754, 1.28.2022 17:49:56.693
849, 2.01424, 0.271964, 165.871, 0, -0.000976562, 0.000976562, -0.0302734, 0.344727, -9.71191, 1.28.2022 17:49:56.701
850, 2.01424, 0.271964, 165.871, 0.000976562, -0.000976562, -0.00195312, -0.078125, 0.362305, -9.71973, 1.28.2022 17:49:56.709
851, 2.01424, 0.271964, 165.871, 0.000976562, -0.000976562, -0.000976562, 0.00585938, 0.320312, -9.70312, 1.28.2022 17:49:56.717
852, 2.01424, 0.271964, 165.871, 0, -0.000976562, -0.000976562, -0.0830078, 0.323242, -9.71582, 1.28.2022 17:49:56.725
853, 2.01424, 0.271964, 165.871, 0, 0, 0.000976562, -0.0712891, 0.362305, -9.75098, 1.28.2022 17:49:56.733
854, 2.01424, 0.271964, 165.871, -0.000976562, -0.000976562, 0.000976562, 0.00488281, 0.326172, -9.72656, 1.28.2022 17:49:56.741
855, 2.01424, 0.271964, 165.871, 0.000976562, -0.000976562, -0.000976562, -0.0898438, 0.374023, -9.7168, 1.28.2022 17:49:56.749
856, 2.01424, 0.271964, 165.871, 0, -0.000976562, -0.000976562, -0.0517578, 0.350586, -9.74219, 1.28.2022 17:49:56.757
857, 2.0151, 0.278904, 165.871, 0, -0.000976562, 0.000976562, -0.0419922, 0.345703, -9.67871, 1.28.2022 17:49:56.765
858, 2.0151, 0.278904, 165.871, -0.000976562, 0, -0.000976562, -0.120117, 0.336914, -9.68652, 1.28.2022 17:49:56.773
859, 2.0151, 0.278904, 165.871, 0, -0.000976562, -0.000976562, -0.0263672, 0.342773, -9.74219, 1.28.2022 17:49:56.781
860, 2.0151, 0.278904, 165.871, -0.000976562, -0.000976562, -0.000976562, -0.0517578, 0.329102, -9.74023, 1.28.2022 17:49:56.789
861, 2.0151, 0.278904, 165.871, 0, 0, 0.000976562, -0.0595703, 0.352539, -9.73242, 1.28.2022 17:49:56.797
862, 2.0229, 0.284984, 165.871, -0.000976562, -0.000976562, -0.000976562, -0.00585938, 0.318359, -9.70605, 1.28.2022 17:49:56.805
863, 2.0229, 0.284984, 165.871, -0.000976562, -0.000976562, -0.000976562, -0.108398, 0.34668, -9.68457, 1.28.2022 17:49:56.813
864, 2.0229, 0.284984, 165.871, 0, -0.000976562, -0.000976562, -0.0488281, 0.330078, -9.68555, 1.28.2022 17:49:56.821
865, 2.01596, 0.285844, 165.871, 0, -0.000976562, 0.000976562, -0.0234375, 0.326172, -9.7168, 1.28.2022 17:49:56.829
866, 2.01596, 0.285844, 165.871, 0, -0.000976562, -0.000976562, -0.0898438, 0.339844, -9.68945, 1.28.2022 17:49:56.837
867, 2.01596, 0.285844, 165.871, 0, 0, -0.000976562, 0.000976562, 0.339844, -9.70996, 1.28.2022 17:49:56.845
868, 2.01596, 0.285844, 165.871, 0, -0.000976562, 0.000976562, -0.0742188, 0.34668, -9.75781, 1.28.2022 17:49:56.853
869, 2.01593, 0.285724, 165.864, -0.000976562, 0, 0.000976562, -0.0634766, 0.354492, -9.72754, 1.28.2022 17:49:56.861
870, 2.01593, 0.285724, 165.864, -0.000976562, 0, -0.000976562, -0.0195312, 0.327148, -9.7666, 1.28.2022 17:49:56.869
871, 2.01679, 0.292664, 165.864, -0.000976562, 0, 0, -0.0966797, 0.354492, -9.70996, 1.28.2022 17:49:56.877
872, 2.01679, 0.292664, 165.864, 0, 0, -0.000976562, -0.0419922, 0.358398, -9.69922, 1.28.2022 17:49:56.885
873, 2.01679, 0.292664, 165.864, 0, 0, -0.000976562, -0.0771484, 0.330078, -9.69531, 1.28.2022 17:49:56.893
874, 2.01679, 0.292664, 165.864, 0.000976562, 0, -0.000976562, -0.0966797, 0.334961, -9.69629, 1.28.2022 17:49:56.901
875, 2.01679, 0.292664, 165.864, 0, 0, 0, -0.0107422, 0.328125, -9.70508, 1.28.2022 17:49:56.909
876, 2.01679, 0.292664, 165.864, 0, 0, -0.000976562, -0.0546875, 0.347656, -9.74414, 1.28.2022 17:49:56.917
877, 2.01679, 0.292664, 165.864, 0, 0, -0.000976562, -0.0537109, 0.328125, -9.70703, 1.28.2022 17:49:56.925
878, 2.01679, 0.292664, 165.864, -0.000976562, 0, -0.000976562, -0.0283203, 0.314453, -9.74316, 1.28.2022 17:49:56.933
879, 2.01682, 0.292784, 165.871, -0.000976562, -0.000976562, -0.000976562, -0.0927734, 0.331055, -9.7207, 1.28.2022 17:49:56.941
880, 2.01682, 0.292784, 165.871, -0.000976562, -0.000976562, -0.000976562, -0.00878906, 0.331055, -9.73828, 1.28.2022 17:49:56.949
881, 2.01682, 0.292784, 165.871, 0, -0.000976562, -0.000976562, -0.0234375, 0.328125, -9.73145, 1.28.2022 17:49:56.957
882, 2.00988, 0.293644, 165.871, 0, -0.000976562, -0.000976562, -0.0800781, 0.352539, -9.72461, 1.28.2022 17:49:56.965
883, 2.00988, 0.293644, 165.871, 0, -0.000976562, -0.000976562, 0.0244141, 0.320312, -9.70898, 1.28.2022 17:49:56.973
884, 2.00988, 0.293644, 165.871, 0.000976562, 0, -0.000976562, -0.078125, 0.339844, -9.71777, 1.28.2022 17:49:56.981
885, 2.00988, 0.293644, 165.871, 0, 0, -0.000976562, -0.0830078, 0.349609, -9.70801, 1.28.2022 17:49:56.989
886, 2.00988, 0.293644, 165.871, 0, 0, 0, 0.00292969, 0.329102, -9.74805, 1.28.2022 17:49:56.997
887, 2.00988, 0.293644, 165.871, 0, -0.000976562, -0.000976562, -0.0693359, 0.358398, -9.75586, 1.28.2022 17:49:57.005
888, 2.00988, 0.293644, 165.871, 0.000976562, 0, -0.000976562, -0.0400391, 0.326172, -9.74316, 1.28.2022 17:49:57.013
889, 2.00209, 0.287563, 165.871, 0.000976562, -0.000976562, 0, -0.0371094, 0.317383, -9.67676, 1.28.2022 17:49:57.021
890, 2.00209, 0.287563, 165.871, 0, 0, -0.000976562, -0.0966797, 0.375, -9.69336, 1.28.2022 17:49:57.029
891, 2.00209, 0.287563, 165.871, 0, 0.000976562, -0.000976562, -0.0283203, 0.34082, -9.73828, 1.28.2022 17:49:57.037
892, 2.00209, 0.287563, 165.871, 0, -0.000976562, -0.000976562, -0.0683594, 0.310547, -9.69824, 1.28.2022 17:49:57.045
893, 2.00209, 0.287563, 165.871, 0, -0.000976562, -0.000976562, -0.0878906, 0.319336, -9.74902, 1.28.2022 17:49:57.053
894, 2.00209, 0.287563, 165.871, 0, 0, -0.000976562, -0.046875, 0.304688, -9.73145, 1.28.2022 17:49:57.061
895, 1.99601, 0.295363, 165.871, 0, 0, 0, -0.103516, 0.34668, -9.68945, 1.28.2022 17:49:57.069
896, 1.99601, 0.295363, 165.871, 0, 0, 0, -0.0429688, 0.322266, -9.76855, 1.28.2022 17:49:57.077
897, 1.99601, 0.295363, 165.871, 0.000976562, 0, 0, -0.0253906, 0.326172, -9.73145, 1.28.2022 17:49:57.085
898, 1.99601, 0.295363, 165.871, 0, -0.000976562, 0, -0.078125, 0.352539, -9.72461, 1.28.2022 17:49:57.093
899, 1.99601, 0.295363, 165.871, 0, 0, -0.000976562, -0.00390625, 0.317383, -9.68652, 1.28.2022 17:49:57.101
900, 1.98908, 0.296223, 165.871, 0, 0, -0.000976562, -0.0732422, 0.347656, -9.71777, 1.28.2022 17:49:57.109
901, 1.98908, 0.296223, 165.871, 0, 0, 0, -0.0966797, 0.371094, -9.7002, 1.28.2022 17:49:57.117
902, 1.98908, 0.296223, 165.871, -0.00195312, 0, -0.000976562, -0.0332031, 0.322266, -9.74805, 1.28.2022 17:49:57.125
903, 1.98908, 0.296223, 165.871, -0.00195312, 0, 0, -0.129883, 0.358398, -9.68848, 1.28.2022 17:49:57.133
904, 1.98994, 0.303163, 165.871, 0, -0.000976562, -0.000976562, -0.0429688, 0.34082, -9.75195, 1.28.2022 17:49:57.141
905, 1.98994, 0.303163, 165.871, 0, -0.000976562, -0.000976562, -0.0380859, 0.34082, -9.73535, 1.28.2022 17:49:57.149
906, 1.98994, 0.303163, 165.871, 0, 0, -0.00195312, -0.101562, 0.359375, -9.72461, 1.28.2022 17:49:57.157
907, 1.98994, 0.303163, 165.871, -0.00195312, 0, -0.000976562, 0, 0.319336, -9.74609, 1.28.2022 17:49:57.165
908, 1.99079, 0.310103, 165.871, 0, 0, -0.000976562, -0.0849609, 0.339844, -9.70605, 1.28.2022 17:49:57.173
909, 1.99079, 0.310103, 165.871, 0.000976562, 0, -0.000976562, -0.0712891, 0.331055, -9.73047, 1.28.2022 17:49:57.181
910, 1.99079, 0.310103, 165.871, 0, 0, -0.000976562, -0.0166016, 0.326172, -9.74121, 1.28.2022 17:49:57.189
911, 1.99079, 0.310103, 165.871, -0.00195312, -0.000976562, -0.000976562, -0.116211, 0.341797, -9.69824, 1.28.2022 17:49:57.197
912, 1.99079, 0.310103, 165.871, 0, 0, -0.000976562, -0.0283203, 0.333008, -9.72363, 1.28.2022 17:49:57.205
913, 1.99165, 0.317043, 165.871, 0, 0, -0.000976562, -0.0585938, 0.294922, -9.70996, 1.28.2022 17:49:57.213
914, 1.99165, 0.317043, 165.871, -0.00195312, 0, -0.000976562, -0.0771484, 0.341797, -9.6875, 1.28.2022 17:49:57.221
915, 1.99165, 0.317043, 165.871, 0, -0.000976562, 0, 0.0107422, 0.332031, -9.67969, 1.28.2022 17:49:57.229
916, 1.99165, 0.317043, 165.871, 0, -0.000976562, 0, -0.0634766, 0.323242, -9.7002, 1.28.2022 17:49:57.237
917, 1.99165, 0.317043, 165.871, 0, -0.000976562, -0.000976562, -0.0449219, 0.357422, -9.73926, 1.28.2022 17:49:57.245
918, 1.99165, 0.317043, 165.871, 0, -0.000976562, 0, -0.0253906, 0.337891, -9.7168, 1.28.2022 17:49:57.253
919, 1.99165, 0.317043, 165.871, 0, -0.000976562, 0, -0.0957031, 0.336914, -9.75098, 1.28.2022 17:49:57.261
920, 1.99165, 0.317043, 165.871, -0.00195312, 0, -0.00195312, 0.0195312, 0.325195, -9.70605, 1.28.2022 17:49:57.269
921, 1.99165, 0.317043, 165.871, 0, 0, -0.000976562, -0.0585938, 0.334961, -9.6875, 1.28.2022 17:49:57.277
922, 1.99079, 0.310103, 165.871, 0, -0.000976562, 0, -0.0800781, 0.369141, -9.72168, 1.28.2022 17:49:57.285
923, 1.99079, 0.310103, 165.871, 0, 0, -0.000976562, 0.00488281, 0.335938, -9.7334, 1.28.2022 17:49:57.293
924, 1.99079, 0.310103, 165.871, -0.00195312, -0.000976562, -0.000976562, -0.0908203, 0.365234, -9.75977, 1.28.2022 17:49:57.301
925, 1.99079, 0.310103, 165.871, -0.00195312, 0, -0.000976562, -0.0566406, 0.341797, -9.69727, 1.28.2022 17:49:57.309
926, 1.99079, 0.310103, 165.871, 0.000976562, -0.000976562, -0.000976562, -0.0498047, 0.324219, -9.73047, 1.28.2022 17:49:57.317
927, 1.99079, 0.310103, 165.871, 0, -0.000976562, 0, -0.108398, 0.355469, -9.67676, 1.28.2022 17:49:57.325
928, 1.99079, 0.310103, 165.871, 0, -0.000976562, -0.000976562, -0.0126953, 0.345703, -9.66016, 1.28.2022 17:49:57.333
929, 1.99079, 0.310103, 165.871, 0.000976562, 0, -0.000976562, -0.0507812, 0.327148, -9.68848, 1.28.2022 17:49:57.341
930, 1.99079, 0.310103, 165.871, 0, 0, 0, -0.0556641, 0.358398, -9.68262, 1.28.2022 17:49:57.349
931, 1.99773, 0.309243, 165.871, 0, -0.000976562, 0, 0.00976562, 0.342773, -9.74316, 1.28.2022 17:49:57.357
932, 1.99773, 0.309243, 165.871, 0, -0.000976562, -0.000976562, -0.0917969, 0.334961, -9.70117, 1.28.2022 17:49:57.365
933, 1.99773, 0.309243, 165.871, 0, -0.000976562, -0.00195312, -0.0664062, 0.330078, -9.71387, 1.28.2022 17:49:57.373
934, 1.99773, 0.309243, 165.871, -0.00195312, -0.000976562, -0.000976562, -0.0380859, 0.335938, -9.73047, 1.28.2022 17:49:57.381
935, 1.99773, 0.309243, 165.871, -0.000976562, -0.000976562, -0.000976562, -0.0996094, 0.367188, -9.73828, 1.28.2022 17:49:57.389
936, 1.99773, 0.309243, 165.871, 0, -0.000976562, -0.000976562, -0.015625, 0.348633, -9.69727, 1.28.2022 17:49:57.397
937, 1.99773, 0.309243, 165.871, 0.000976562, -0.000976562, -0.000976562, -0.0654297, 0.338867, -9.68066, 1.28.2022 17:49:57.405
938, 2.00467, 0.308383, 165.871, 0, -0.00195312, 0, -0.0751953, 0.349609, -9.70898, 1.28.2022 17:49:57.413
939, 2.00467, 0.308383, 165.871, 0, -0.000976562, 0, -0.0185547, 0.334961, -9.7168, 1.28.2022 17:49:57.421
940, 2.00467, 0.308383, 165.871, 0, -0.000976562, 0, -0.101562, 0.357422, -9.72168, 1.28.2022 17:49:57.429
941, 2.00553, 0.315323, 165.871, 0, -0.000976562, -0.000976562, -0.0527344, 0.34668, -9.78027, 1.28.2022 17:49:57.437
942, 2.00553, 0.315323, 165.871, 0, -0.000976562, -0.000976562, -0.0478516, 0.30957, -9.73828, 1.28.2022 17:49:57.445
943, 2.00553, 0.315323, 165.871, 0, -0.000976562, -0.000976562, -0.113281, 0.369141, -9.71875, 1.28.2022 17:49:57.453
944, 2.00553, 0.315323, 165.871, 0, -0.000976562, -0.000976562, -0.0390625, 0.330078, -9.69824, 1.28.2022 17:49:57.461
945, 2.00553, 0.315323, 165.871, -0.000976562, 0, -0.000976562, -0.0371094, 0.323242, -9.71484, 1.28.2022 17:49:57.469
946, 2.00553, 0.315323, 165.871, -0.000976562, 0, 0, -0.0761719, 0.357422, -9.73926, 1.28.2022 17:49:57.475
947, 2.00553, 0.315323, 165.871, 0, 0, -0.000976562, 0.0078125, 0.332031, -9.70312, 1.28.2022 17:49:57.483
948, 2.01246, 0.314463, 165.87, 0, 0.000976562, 0, -0.0976562, 0.355469, -9.73438, 1.28.2022 17:49:57.491
949, 2.01246, 0.314463, 165.87, 0, 0, 0, -0.0332031, 0.355469, -9.74902, 1.28.2022 17:49:57.499
950, 2.01246, 0.314463, 165.87, 0, 0, -0.000976562, -0.0488281, 0.325195, -9.71191, 1.28.2022 17:49:57.507
951, 2.01246, 0.314463, 165.87, 0, 0, -0.000976562, -0.0849609, 0.337891, -9.72266, 1.28.2022 17:49:57.515
952, 2.01246, 0.314463, 165.87, 0, 0, -0.000976562, -0.0107422, 0.344727, -9.70703, 1.28.2022 17:49:57.523
953, 2.01246, 0.314463, 165.87, 0.000976562, -0.000976562, 0, -0.0419922, 0.333008, -9.71387, 1.28.2022 17:49:57.531
954, 2.01246, 0.314463, 165.87, 0, -0.000976562, 0, -0.0517578, 0.359375, -9.72559, 1.28.2022 17:49:57.539
955, 2.01244, 0.314344, 165.863, 0.000976562, -0.000976562, -0.000976562, -0.0107422, 0.332031, -9.69824, 1.28.2022 17:49:57.547
956, 2.01244, 0.314344, 165.863, 0, -0.000976562, 0, -0.0800781, 0.334961, -9.70898, 1.28.2022 17:49:57.555
957, 2.01244, 0.314344, 165.863, 0, -0.000976562, -0.00195312, -0.0517578, 0.327148, -9.69727, 1.28.2022 17:49:57.563
958, 2.0116, 0.307523, 165.871, 0, -0.000976562, -0.000976562, -0.0419922, 0.338867, -9.67871, 1.28.2022 17:49:57.571
959, 2.0116, 0.307523, 165.871, -0.000976562, 0, -0.000976562, -0.106445, 0.350586, -9.72949, 1.28.2022 17:49:57.579
960, 2.0116, 0.307523, 165.871, -0.000976562, 0, -0.000976562, -0.0185547, 0.323242, -9.70117, 1.28.2022 17:49:57.587
961, 2.0116, 0.307523, 165.871, -0.000976562, 0, -0.000976562, -0.046875, 0.318359, -9.71484, 1.28.2022 17:49:57.595
962, 2.0116, 0.307523, 165.871, -0.000976562, -0.00195312, 0, -0.0849609, 0.354492, -9.71973, 1.28.2022 17:49:57.603
963, 2.01158, 0.307404, 165.863, -0.000976562, 0, -0.000976562, -0.00878906, 0.333008, -9.71484, 1.28.2022 17:49:57.611
964, 2.01158, 0.307404, 165.863, 0, 0, 0, -0.0996094, 0.349609, -9.70312, 1.28.2022 17:49:57.619
965, 2.01158, 0.307404, 165.863, 0, 0, 0, -0.0371094, 0.369141, -9.72559, 1.28.2022 17:49:57.627
966, 2.01158, 0.307404, 165.863, -0.000976562, 0, 0, -0.0302734, 0.332031, -9.69336, 1.28.2022 17:49:57.635
967, 2.01194, 0.30737, 165.864, -0.000976562, 0, -0.000976562, -0.0800781, 0.333008, -9.72559, 1.28.2022 17:49:57.643
968, 2.01158, 0.307404, 165.863, 0, -0.000976562, -0.000976562, -0.0283203, 0.304688, -9.74121, 1.28.2022 17:49:57.651
969, 2.01158, 0.307404, 165.863, -0.000976562, 0, -0.000976562, -0.0429688, 0.345703, -9.74414, 1.28.2022 17:49:57.659
970, 2.01158, 0.307404, 165.863, -0.000976562, 0, -0.000976562, -0.0712891, 0.351562, -9.77246, 1.28.2022 17:49:57.667
971, 2.01158, 0.307404, 165.863, 0, -0.000976562, 0, -0.0166016, 0.324219, -9.75488, 1.28.2022 17:49:57.675
972, 2.01158, 0.307404, 165.863, -0.000976562, -0.000976562, 0, -0.0898438, 0.347656, -9.71582, 1.28.2022 17:49:57.683
973, 2.01158, 0.307404, 165.863, 0, 0, -0.000976562, -0.0449219, 0.345703, -9.74023, 1.28.2022 17:49:57.691
974, 2.01158, 0.307404, 165.863, -0.000976562, 0, -0.00195312, -0.0351562, 0.330078, -9.71191, 1.28.2022 17:49:57.699
975, 2.01072, 0.300464, 165.864, 0, 0, 0, -0.0820312, 0.360352, -9.67773, 1.28.2022 17:49:57.707
976, 2.01072, 0.300464, 165.864, 0, 0, 0, -0.0332031, 0.34082, -9.72559, 1.28.2022 17:49:57.715
977, 2.01072, 0.300464, 165.864, -0.000976562, -0.000976562, 0, -0.0361328, 0.348633, -9.75684, 1.28.2022 17:49:57.723
978, 2.01072, 0.300464, 165.864, 0, -0.000976562, -0.000976562, -0.0732422, 0.374023, -9.72656, 1.28.2022 17:49:57.731
979, 2.01072, 0.300464, 165.864, 0, -0.000976562, -0.000976562, -0.00878906, 0.317383, -9.69141, 1.28.2022 17:49:57.739
980, 2.01072, 0.300464, 165.864, 0, -0.000976562, -0.000976562, -0.0917969, 0.348633, -9.6875, 1.28.2022 17:49:57.747
981, 2.01072, 0.300464, 165.864, -0.000976562, -0.000976562, -0.000976562, -0.0429688, 0.345703, -9.74023, 1.28.2022 17:49:57.755
982, 2.01765, 0.299604, 165.864, -0.000976562, 0, -0.000976562, -0.0488281, 0.328125, -9.7002, 1.28.2022 17:49:57.763
983, 2.01765, 0.299604, 165.864, 0, -0.000976562, -0.000976562, -0.0800781, 0.358398, -9.69922, 1.28.2022 17:49:57.771
984, 2.01765, 0.299604, 165.864, -0.000976562, 0, -0.000976562, -0.0205078, 0.336914, -9.69531, 1.28.2022 17:49:57.779
985, 2.01765, 0.299604, 165.864, -0.000976562, -0.000976562, 0, -0.0634766, 0.333008, -9.71191, 1.28.2022 17:49:57.787
986, 2.01765, 0.299604, 165.864, 0, -0.000976562, 0, -0.0849609, 0.349609, -9.72266, 1.28.2022 17:49:57.795
987, 2.01802, 0.29957, 165.864, 0, -0.000976562, 0, -0.0273438, 0.325195, -9.70508, 1.28.2022 17:49:57.803
988, 2.01888, 0.30651, 165.864, 0, -0.000976562, -0.000976562, -0.101562, 0.337891, -9.71582, 1.28.2022 17:49:57.811
989, 2.01888, 0.30651, 165.864, -0.000976562, -0.000976562, -0.000976562, -0.0488281, 0.342773, -9.70898, 1.28.2022 17:49:57.819
990, 2.01851, 0.306544, 165.863, 0, -0.000976562, -0.000976562, -0.0556641, 0.338867, -9.68555, 1.28.2022 17:49:57.827
991, 2.01851, 0.306544, 165.863, 0, 0, -0.000976562, -0.0966797, 0.364258, -9.72656, 1.28.2022 17:49:57.835
992, 2.01854, 0.306664, 165.871, -0.000976562, 0, -0.000976562, -0.0214844, 0.311523, -9.73633, 1.28.2022 17:49:57.843
993, 2.01851, 0.306544, 165.863, -0.000976562, -0.000976562, 0, -0.0400391, 0.323242, -9.72168, 1.28.2022 17:49:57.851
994, 2.01851, 0.306544, 165.863, 0, -0.000976562, -0.000976562, -0.0654297, 0.339844, -9.70898, 1.28.2022 17:49:57.859
995, 2.01854, 0.306664, 165.871, 0, -0.000976562, -0.000976562, -0.00585938, 0.314453, -9.6543, 1.28.2022 17:49:57.867
996, 2.01854, 0.306664, 165.871, 0, -0.000976562, -0.000976562, -0.0927734, 0.365234, -9.75488, 1.28.2022 17:49:57.875
997, 2.01854, 0.306664, 165.871, -0.000976562, 0, -0.000976562, -0.046875, 0.373047, -9.69629, 1.28.2022 17:49:57.883
998, 2.01854, 0.306664, 165.871, 0, 0.000976562, 0, -0.0439453, 0.325195, -9.69824, 1.28.2022 17:49:57.891
999, 2.0116, 0.307523, 165.871, 0, -0.000976562, -0.000976562, -0.106445, 0.311523, -9.70703, 1.28.2022 17:49:57.899
1000, 2.0116, 0.307523, 165.871, 0, -0.000976562, 0, -0.0107422, 0.303711, -9.71289, 1.28.2022 17:49:57.907
1001, 2.01158, 0.307404, 165.863, 0, -0.000976562, 0, -0.0429688, 0.314453, -9.73145, 1.28.2022 17:49:57.915
1002, 2.01158, 0.307404, 165.863, -0.000976562, -0.000976562, 0, -0.0585938, 0.342773, -9.72266, 1.28.2022 17:49:57.923
1003, 2.01158, 0.307404, 165.863, 0, 0, 0, -0.0185547, 0.325195, -9.71484, 1.28.2022 17:49:57.931
1004, 2.00464, 0.308264, 165.863, 0, 0, -0.000976562, -0.0966797, 0.342773, -9.71973, 1.28.2022 17:49:57.939
1005, 2.00464, 0.308264, 165.863, 0, 0, 0, -0.0205078, 0.336914, -9.70508, 1.28.2022 17:49:57.947
1006, 2.00464, 0.308264, 165.863, 0, 0, -0.000976562, -0.0351562, 0.328125, -9.70508, 1.28.2022 17:49:57.955
1007, 2.00464, 0.308264, 165.863, 0, 0, 0, -0.0898438, 0.367188, -9.72656, 1.28.2022 17:49:57.963
1008, 2.00464, 0.308264, 165.863, -0.000976562, -0.000976562, -0.000976562, -0.0234375, 0.362305, -9.73047, 1.28.2022 17:49:57.971
1009, 2.00464, 0.308264, 165.863, 0.000976562, 0.000976562, -0.000976562, -0.078125, 0.333984, -9.74902, 1.28.2022 17:49:57.979
1010, 2.00464, 0.308264, 165.863, 0, 0, 0, -0.0849609, 0.361328, -9.71777, 1.28.2022 17:49:57.987
1011, 2.00464, 0.308264, 165.863, -0.000976562, 0, -0.000976562, -0.0117188, 0.30957, -9.75098, 1.28.2022 17:49:57.995
1012, 2.00464, 0.308264, 165.863, 0, -0.000976562, -0.00195312, -0.114258, 0.367188, -9.75, 1.28.2022 17:49:58.003
1013, 2.00464, 0.308264, 165.863, 0, -0.000976562, 0, -0.0419922, 0.34082, -9.73047, 1.28.2022 17:49:58.011
1014, 2.00464, 0.308264, 165.863, 0, -0.000976562, -0.000976562, -0.0322266, 0.342773, -9.71387, 1.28.2022 17:49:58.019
1015, 2.00464, 0.308264, 165.863, 0, 0, -0.000976562, -0.0830078, 0.331055, -9.73535, 1.28.2022 17:49:58.027
1016, 2.00464, 0.308264, 165.863, 0, -0.000976562, -0.000976562, 0.000976562, 0.326172, -9.72266, 1.28.2022 17:49:58.035
1017, 2.00464, 0.308264, 165.863, -0.000976562, 0, -0.000976562, -0.0615234, 0.348633, -9.76074, 1.28.2022 17:49:58.043
1018, 2.00464, 0.308264, 165.863, 0, -0.000976562, 0, -0.0878906, 0.333008, -9.71777, 1.28.2022 17:49:58.051
1019, 2.00464, 0.308264, 165.863, -0.000976562, -0.000976562, -0.000976562, -0.0175781, 0.322266, -9.69141, 1.28.2022 17:49:58.059
1020, 2.00464, 0.308264, 165.863, 0, -0.000976562, -0.000976562, -0.0908203, 0.355469, -9.65625, 1.28.2022 17:49:58.067
1021, 2.00464, 0.308264, 165.863, -0.000976562, 0, -0.000976562, -0.0712891, 0.345703, -9.73242, 1.28.2022 17:49:58.075
1022, 2.00464, 0.308264, 165.863, -0.000976562, 0, -0.000976562, -0.0537109, 0.331055, -9.71875, 1.28.2022 17:49:58.083
1023, 2.00464, 0.308264, 165.863, 0, 0, 0, -0.0917969, 0.332031, -9.69727, 1.28.2022 17:49:58.091
1024, 2.0055, 0.315204, 165.863, 0, 0, -0.000976562, -0.0205078, 0.334961, -9.70508, 1.28.2022 17:49:58.099
1025, 2.0055, 0.315204, 165.863, 0, -0.000976562, -0.000976562, -0.0664062, 0.34082, -9.73047, 1.28.2022 17:49:58.107
1026, 2.0055, 0.315204, 165.863, -0.000976562, 0, 0, -0.0615234, 0.359375, -9.72754, 1.28.2022 17:49:58.115
1027, 2.0055, 0.315204, 165.863, -0.000976562, -0.000976562, 0, 0.0078125, 0.326172, -9.72656, 1.28.2022 17:49:58.123
1028, 2.0055, 0.315204, 165.863, -0.000976562, -0.000976562, -0.000976562, -0.0917969, 0.349609, -9.70605, 1.28.2022 17:49:58.131
1029, 2.0055, 0.315204, 165.863, -0.000976562, 0, -0.000976562, -0.00390625, 0.356445, -9.72168, 1.28.2022 17:49:58.139
1030, 2.00464, 0.308264, 165.863, 0, 0, -0.000976562, -0.0302734, 0.332031, -9.69824, 1.28.2022 17:49:58.147
1031, 2.00464, 0.308264, 165.863, -0.000976562, -0.000976562, 0, -0.101562, 0.349609, -9.70312, 1.28.2022 17:49:58.155
1032, 2.00464, 0.308264, 165.863, 0, 0, -0.000976562, -0.00195312, 0.299805, -9.7207, 1.28.2022 17:49:58.163
1033, 2.00464, 0.308264, 165.863, -0.000976562, 0, 0, -0.0800781, 0.339844, -9.71777, 1.28.2022 17:49:58.171
1034, 2.00464, 0.308264, 165.863, 0, 0, -0.000976562, -0.0566406, 0.376953, -9.73633, 1.28.2022 17:49:58.179
1035, 2.00464, 0.308264, 165.863, 0, 0, -0.000976562, -0.0302734, 0.330078, -9.70312, 1.28.2022 17:49:58.187
1036, 2.00464, 0.308264, 165.863, 0, -0.000976562, -0.000976562, -0.0917969, 0.362305, -9.66992, 1.28.2022 17:49:58.195
1037, 2.00464, 0.308264, 165.863, 0, -0.000976562, -0.000976562, -0.0234375, 0.339844, -9.71191, 1.28.2022 17:49:58.203
1038, 2.00464, 0.308264, 165.863, -0.000976562, 0, -0.000976562, -0.0449219, 0.336914, -9.75391, 1.28.2022 17:49:58.211
1039, 2.00464, 0.308264, 165.863, 0, -0.000976562, 0, -0.0800781, 0.356445, -9.71094, 1.28.2022 17:49:58.219
1040, 2.01158, 0.307404, 165.863, 0, 0, -0.000976562, -0.0136719, 0.324219, -9.74316, 1.28.2022 17:49:58.227
1041, 2.01158, 0.307404, 165.863, -0.000976562, 0, -0.000976562, -0.100586, 0.351562, -9.76953, 1.28.2022 17:49:58.235
1042, 2.01158, 0.307404, 165.863, 0, 0, -0.000976562, -0.0664062, 0.367188, -9.72754, 1.28.2022 17:49:58.243
1043, 2.0116, 0.307523, 165.871, -0.000976562, -0.000976562, -0.000976562, -0.0117188, 0.321289, -9.72461, 1.28.2022 17:49:58.251
1044, 2.0116, 0.307523, 165.871, -0.000976562, -0.000976562, -0.000976562, -0.0947266, 0.371094, -9.69824, 1.28.2022 17:49:58.259
1045, 2.0116, 0.307523, 165.871, 0, -0.00195312, -0.000976562, -0.0234375, 0.347656, -9.74219, 1.28.2022 17:49:58.267
1046, 2.0116, 0.307523, 165.871, 0, -0.000976562, -0.000976562, -0.0205078, 0.321289, -9.72656, 1.28.2022 17:49:58.275
1047, 2.0116, 0.307523, 165.871, 0, 0, 0, -0.0664062, 0.349609, -9.71582, 1.28.2022 17:49:58.283
1048, 2.0116, 0.307523, 165.871, -0.000976562, -0.000976562, 0, -0.0117188, 0.333008, -9.72461, 1.28.2022 17:49:58.291
1049, 2.01854, 0.306664, 165.871, -0.000976562, 0, -0.000976562, -0.0810547, 0.357422, -9.73145, 1.28.2022 17:49:58.299
1050, 2.01854, 0.306664, 165.871, -0.000976562, 0, -0.000976562, -0.0400391, 0.349609, -9.73047, 1.28.2022 17:49:58.307
1051, 2.01768, 0.299724, 165.871, 0, 0, 0, -0.0273438, 0.327148, -9.67969, 1.28.2022 17:49:58.315
1052, 2.01768, 0.299724, 165.871, 0.000976562, -0.000976562, -0.000976562, -0.0957031, 0.355469, -9.65625, 1.28.2022 17:49:58.323
1053, 2.01768, 0.299724, 165.871, 0, -0.000976562, -0.000976562, -0.0136719, 0.344727, -9.69824, 1.28.2022 17:49:58.331
1054, 2.01768, 0.299724, 165.871, 0, 0, -0.000976562, -0.0488281, 0.344727, -9.70703, 1.28.2022 17:49:58.339
