Seq, Rot x, Rot y, Rot z, Vel x, Vel y, Vel z, Acc x, Acc y, Acc z, Time(m.d.y h:m:s.ms)
0, 2.19636, 0.171314, 188.918, 0, -0.000976562, 0, 0.00292969, 0.361328, -9.70703, 1.28.2022 18:11:52.555
1, 2.19636, 0.171314, 188.918, -0.000976562, -0.000976562, 0, -0.0419922, 0.380859, -9.71289, 1.28.2022 18:11:52.561
2, 2.19636, 0.171314, 188.918, 0, 0, 0.000976562, -0.0292969, 0.375, -9.69238, 1.28.2022 18:11:52.569
3, 2.19636, 0.171314, 188.918, -0.000976562, 0, 0, 0.015625, 0.371094, -9.70703, 1.28.2022 18:11:52.577
4, 2.19636, 0.171314, 188.918, -0.000976562, 0, 0.000976562, -0.0683594, 0.387695, -9.69824, 1.28.2022 18:11:52.585
5, 2.19636, 0.171314, 188.918, -0.000976562, 0, 0, -0.0322266, 0.375977, -9.7041, 1.28.2022 18:11:52.593
6, 2.19636, 0.171314, 188.918, -0.000976562, 0, 0, 0.0136719, 0.378906, -9.65918, 1.28.2022 18:11:52.601
7, 2.19636, 0.171314, 188.918, 0, -0.000976562, 0, -0.0683594, 0.400391, -9.74512, 1.28.2022 18:11:52.609
8, 2.19581, 0.178286, 188.918, 0, 0, 0, 0.0322266, 0.370117, -9.7002, 1.28.2022 18:11:52.617
9, 2.19636, 0.171314, 188.918, 0, 0, 0, -0.0185547, 0.357422, -9.74902, 1.28.2022 18:11:52.625
10, 2.1964, 0.17118, 188.911, 0, 0, 0, -0.0419922, 0.37793, -9.70117, 1.28.2022 18:11:52.633
11, 2.1964, 0.17118, 188.911, 0, 0.000976562, 0.000976562, 0.0234375, 0.332031, -9.75586, 1.28.2022 18:11:52.641
12, 2.1964, 0.17118, 188.911, 0, 0, 0, -0.0703125, 0.366211, -9.71289, 1.28.2022 18:11:52.649
13, 2.1964, 0.17118, 188.911, -0.000976562, 0, -0.000976562, -0.0371094, 0.394531, -9.68652, 1.28.2022 18:11:52.657
14, 2.1964, 0.17118, 188.911, -0.000976562, 0, -0.000976562, 0.00292969, 0.352539, -9.71875, 1.28.2022 18:11:52.663
15, 2.19636, 0.171314, 188.918, 0, -0.000976562, 0, -0.0751953, 0.375977, -9.72461, 1.28.2022 18:11:52.671
16, 2.19636, 0.171314, 188.918, -0.000976562, 0, -0.000976562, -0.00683594, 0.380859, -9.73438, 1.28.2022 18:11:52.679
17, 2.19636, 0.171314, 188.918, 0, 0, -0.000976562, -0.0449219, 0.375977, -9.71777, 1.28.2022 18:11:52.687
18, 2.19636, 0.171314, 188.918, -0.000976562, 0, -0.000976562, -0.0595703, 0.381836, -9.74121, 1.28.2022 18:11:52.695
19, 2.19636, 0.171314, 188.918, 0, 0, -0.000976562, 0.0273438, 0.351562, -9.69141, 1.28.2022 18:11:52.703
20, 2.19636, 0.171314, 188.918, -0.000976562, 0, 0, -0.0517578, 0.367188, -9.73926, 1.28.2022 18:11:52.711
21, 2.19636, 0.171314, 188.918, -0.000976562, 0.000976562, -0.000976562, -0.0283203, 0.360352, -9.73926, 1.28.2022 18:11:52.719
22, 2.19636, 0.171314, 188.918, -0.000976562, 0, 0, -0.0136719, 0.361328, -9.71387, 1.28.2022 18:11:52.727
23, 2.19636, 0.171314, 188.918, 0, 0, 0, -0.0820312, 0.389648, -9.7002, 1.28.2022 18:11:52.735
24, 2.1969, 0.164342, 188.918, 0, 0.000976562, 0, -0.00195312, 0.398438, -9.73438, 1.28.2022 18:11:52.743
25, 2.1969, 0.164342, 188.918, 0, 0, 0, -0.0390625, 0.373047, -9.7041, 1.28.2022 18:11:52.751
26, 2.1969, 0.164342, 188.918, 0, -0.000976562, 0, -0.0654297, 0.390625, -9.71191, 1.28.2022 18:11:52.759
27, 2.1969, 0.164342, 188.918, -0.000976562, -0.000976562, -0.000976562, 0.03125, 0.362305, -9.74316, 1.28.2022 18:11:52.767
28, 2.1969, 0.164342, 188.918, -0.00195312, 0.000976562, 0, -0.0664062, 0.392578, -9.72168, 1.28.2022 18:11:52.775
29, 2.1969, 0.164342, 188.918, -0.000976562, -0.000976562, -0.000976562, -0.0185547, 0.404297, -9.71777, 1.28.2022 18:11:52.783
30, 2.1969, 0.164342, 188.918, -0.000976562, -0.00195312, 0, 0.00585938, 0.380859, -9.71387, 1.28.2022 18:11:52.791
31, 2.19636, 0.171314, 188.918, -0.000976562, -0.000976562, 0, -0.0566406, 0.370117, -9.74609, 1.28.2022 18:11:52.799
32, 2.19636, 0.171314, 188.918, -0.00195312, -0.000976562, -0.000976562, 0.00292969, 0.385742, -9.71777, 1.28.2022 18:11:52.807
33, 2.20387, 0.164886, 188.918, -0.00195312, -0.000976562, -0.000976562, -0.0224609, 0.358398, -9.69922, 1.28.2022 18:11:52.815
34, 2.20387, 0.164886, 188.918, -0.000976562, -0.000976562, -0.000976562, -0.0439453, 0.404297, -9.71191, 1.28.2022 18:11:52.823
35, 2.20387, 0.164886, 188.918, -0.000976562, -0.00195312, 0, 0.0341797, 0.354492, -9.71484, 1.28.2022 18:11:52.831
36, 2.20387, 0.164886, 188.918, -0.000976562, -0.000976562, -0.000976562, -0.0683594, 0.373047, -9.70117, 1.28.2022 18:11:52.839
37, 2.20387, 0.164886, 188.918, -0.000976562, -0.000976562, 0, -0.0615234, 0.376953, -9.73828, 1.28.2022 18:11:52.847
38, 2.20387, 0.164886, 188.918, -0.000976562, 0.000976562, 0, 0.00488281, 0.375977, -9.73047, 1.28.2022 18:11:52.855
39, 2.20387, 0.164886, 188.918, -0.000976562, -0.000976562, 0.000976562, -0.0898438, 0.354492, -9.71484, 1.28.2022 18:11:52.863
40, 2.20387, 0.164886, 188.918, -0.000976562, 0.000976562, 0, -0.015625, 0.347656, -9.71387, 1.28.2022 18:11:52.871
41, 2.20387, 0.164886, 188.918, -0.000976562, 0.000976562, -0.000976562, -0.0253906, 0.371094, -9.71387, 1.28.2022 18:11:52.879
42, 2.20387, 0.164886, 188.918, 0, -0.000976562, -0.000976562, -0.0488281, 0.366211, -9.7041, 1.28.2022 18:11:52.887
43, 2.20387, 0.164886, 188.918, -0.000976562, -0.000976562, -0.000976562, 0.0292969, 0.362305, -9.7334, 1.28.2022 18:11:52.895
44, 2.20387, 0.164886, 188.918, -0.000976562, -0.000976562, 0.000976562, -0.046875, 0.368164, -9.68945, 1.28.2022 18:11:52.903
45, 2.21083, 0.16543, 188.918, -0.00195312, -0.000976562, 0.000976562, -0.0449219, 0.390625, -9.72656, 1.28.2022 18:11:52.911
46, 2.21083, 0.16543, 188.918, -0.000976562, -0.000976562, 0, -0.00195312, 0.369141, -9.7207, 1.28.2022 18:11:52.919
47, 2.21083, 0.16543, 188.918, -0.00195312, -0.000976562, 0, -0.0683594, 0.40918, -9.71875, 1.28.2022 18:11:52.927
48, 2.21083, 0.16543, 188.918, -0.000976562, -0.000976562, -0.000976562, -0.0273438, 0.361328, -9.71387, 1.28.2022 18:11:52.935
49, 2.21083, 0.16543, 188.918, -0.000976562, -0.000976562, 0, -0.0205078, 0.375977, -9.70898, 1.28.2022 18:11:52.943
50, 2.21083, 0.16543, 188.918, -0.000976562, -0.000976562, 0, -0.0732422, 0.37793, -9.70801, 1.28.2022 18:11:52.951
51, 2.21083, 0.16543, 188.918, -0.000976562, -0.000976562, 0, 0.0263672, 0.352539, -9.72852, 1.28.2022 18:11:52.959
52, 2.21083, 0.16543, 188.918, 0, 0.000976562, 0, -0.0654297, 0.380859, -9.70996, 1.28.2022 18:11:52.967
53, 2.21083, 0.16543, 188.918, -0.000976562, -0.000976562, -0.000976562, -0.0429688, 0.398438, -9.75488, 1.28.2022 18:11:52.975
54, 2.21083, 0.16543, 188.918, -0.000976562, -0.000976562, -0.000976562, 0, 0.360352, -9.76172, 1.28.2022 18:11:52.983
55, 2.21029, 0.172402, 188.918, 0, -0.000976562, 0, -0.0683594, 0.392578, -9.69336, 1.28.2022 18:11:52.991
56, 2.21029, 0.172402, 188.918, 0, -0.000976562, -0.000976562, -0.0205078, 0.371094, -9.70898, 1.28.2022 18:11:52.999
57, 2.21029, 0.172402, 188.918, -0.000976562, -0.000976562, 0, -0.0283203, 0.355469, -9.76367, 1.28.2022 18:11:53.007
58, 2.21029, 0.172402, 188.918, 0.000976562, -0.000976562, 0, -0.0351562, 0.375977, -9.7207, 1.28.2022 18:11:53.015
59, 2.21029, 0.172402, 188.918, 0.000976562, -0.000976562, 0.000976562, 0.0224609, 0.371094, -9.70508, 1.28.2022 18:11:53.023
60, 2.20332, 0.171858, 188.918, 0.000976562, -0.000976562, 0, -0.0673828, 0.394531, -9.68652, 1.28.2022 18:11:53.031
61, 2.20332, 0.171858, 188.918, -0.000976562, -0.000976562, -0.000976562, -0.0488281, 0.368164, -9.6875, 1.28.2022 18:11:53.039
62, 2.20332, 0.171858, 188.918, 0, -0.000976562, 0, 0.00488281, 0.352539, -9.75, 1.28.2022 18:11:53.047
63, 2.20332, 0.171858, 188.918, 0, -0.000976562, 0, -0.0703125, 0.387695, -9.70508, 1.28.2022 18:11:53.055
64, 2.20332, 0.171858, 188.918, 0.000976562, -0.000976562, 0, 0.0126953, 0.369141, -9.71875, 1.28.2022 18:11:53.063
65, 2.20332, 0.171858, 188.918, 0, -0.000976562, 0, -0.00683594, 0.350586, -9.7334, 1.28.2022 18:11:53.071
66, 2.20332, 0.171858, 188.918, 0, 0, 0, -0.0751953, 0.389648, -9.68164, 1.28.2022 18:11:53.079
67, 2.20332, 0.171858, 188.918, -0.000976562, -0.000976562, -0.000976562, 0.0126953, 0.331055, -9.73633, 1.28.2022 18:11:53.087
68, 2.20332, 0.171858, 188.918, -0.000976562, -0.000976562, -0.000976562, -0.0400391, 0.359375, -9.7207, 1.28.2022 18:11:53.095
69, 2.20332, 0.171858, 188.918, 0, -0.00195312, 0, -0.0449219, 0.365234, -9.74414, 1.28.2022 18:11:53.103
70, 2.20332, 0.171858, 188.918, 0.000976562, -0.000976562, 0, -0.00878906, 0.374023, -9.74707, 1.28.2022 18:11:53.111
71, 2.20332, 0.171858, 188.918, -0.00195312, -0.000976562, 0, -0.0703125, 0.404297, -9.70703, 1.28.2022 18:11:53.119
72, 2.20332, 0.171858, 188.918, -0.000976562, 0.000976562, -0.000976562, -0.0234375, 0.369141, -9.73047, 1.28.2022 18:11:53.127
73, 2.20332, 0.171858, 188.918, -0.000976562, 0.000976562, -0.000976562, -0.0136719, 0.374023, -9.73438, 1.28.2022 18:11:53.135
74, 2.20332, 0.171858, 188.918, -0.000976562, -0.000976562, -0.000976562, -0.0634766, 0.364258, -9.72754, 1.28.2022 18:11:53.143
75, 2.20332, 0.171858, 188.918, 0, -0.000976562, 0, 0.00390625, 0.34668, -9.69531, 1.28.2022 18:11:53.151
76, 2.19636, 0.171314, 188.918, 0, -0.000976562, 0, -0.0273438, 0.375, -9.69238, 1.28.2022 18:11:53.159
77, 2.19636, 0.171314, 188.918, 0.000976562, -0.00195312, 0, -0.0449219, 0.388672, -9.72656, 1.28.2022 18:11:53.167
78, 2.19636, 0.171314, 188.918, 0, -0.000976562, 0, 0.0107422, 0.344727, -9.7002, 1.28.2022 18:11:53.175
79, 2.19636, 0.171314, 188.918, 0, 0, 0.000976562, -0.0771484, 0.389648, -9.69336, 1.28.2022 18:11:53.183
80, 2.19636, 0.171314, 188.918, -0.00195312, -0.000976562, 0, -0.0136719, 0.414062, -9.70312, 1.28.2022 18:11:53.191
81, 2.19636, 0.171314, 188.918, 0, -0.000976562, 0, -0.00878906, 0.37793, -9.71387, 1.28.2022 18:11:53.199
82, 2.19636, 0.171314, 188.918, -0.000976562, -0.00195312, -0.000976562, -0.0683594, 0.362305, -9.73438, 1.28.2022 18:11:53.207
83, 2.19581, 0.178286, 188.918, 0, -0.00195312, 0, 0.0175781, 0.367188, -9.73047, 1.28.2022 18:11:53.215
84, 2.19581, 0.178286, 188.918, 0, -0.000976562, 0, -0.0234375, 0.375, -9.75391, 1.28.2022 18:11:53.223
85, 2.19581, 0.178286, 188.918, -0.000976562, -0.000976562, -0.000976562, -0.0205078, 0.387695, -9.70605, 1.28.2022 18:11:53.231
86, 2.19636, 0.171314, 188.918, 0.000976562, 0, 0, 0.0507812, 0.351562, -9.71094, 1.28.2022 18:11:53.239
87, 2.19636, 0.171314, 188.918, 0.000976562, 0, 0, -0.0849609, 0.392578, -9.69727, 1.28.2022 18:11:53.247
88, 2.19636, 0.171314, 188.918, 0.000976562, -0.000976562, 0, -0.0078125, 0.384766, -9.68945, 1.28.2022 18:11:53.255
89, 2.19636, 0.171314, 188.918, 0, -0.000976562, 0.000976562, -0.000976562, 0.368164, -9.68555, 1.28.2022 18:11:53.263
90, 2.19636, 0.171314, 188.918, -0.000976562, -0.000976562, 0, -0.0849609, 0.37793, -9.70312, 1.28.2022 18:11:53.271
91, 2.19636, 0.171314, 188.918, -0.000976562, -0.000976562, 0, 0.0146484, 0.359375, -9.72656, 1.28.2022 18:11:53.279
92, 2.19636, 0.171314, 188.918, -0.000976562, -0.00292969, 0, -0.0253906, 0.361328, -9.71387, 1.28.2022 18:11:53.287
93, 2.19636, 0.171314, 188.918, 0, -0.00195312, 0, -0.0205078, 0.375977, -9.71582, 1.28.2022 18:11:53.295
94, 2.19636, 0.171314, 188.918, -0.000976562, -0.000976562, 0, 0.015625, 0.371094, -9.70215, 1.28.2022 18:11:53.303
95, 2.19636, 0.171314, 188.918, 0, -0.000976562, 0, -0.0605469, 0.394531, -9.7002, 1.28.2022 18:11:53.311
96, 2.19636, 0.171314, 188.918, 0, -0.000976562, 0, -0.015625, 0.364258, -9.7207, 1.28.2022 18:11:53.319
97, 2.1969, 0.164342, 188.918, 0, -0.00292969, 0, -0.00390625, 0.366211, -9.70703, 1.28.2022 18:11:53.327
98, 2.1969, 0.164342, 188.918, 0, -0.000976562, 0, -0.0751953, 0.380859, -9.72461, 1.28.2022 18:11:53.335
99, 2.1969, 0.164342, 188.918, 0, -0.000976562, 0.000976562, 0.0576172, 0.337891, -9.71289, 1.28.2022 18:11:53.343
100, 2.1969, 0.164342, 188.918, 0, -0.00195312, 0.000976562, -0.0166016, 0.374023, -9.74609, 1.28.2022 18:11:53.351
101, 2.18998, 0.163664, 188.911, -0.000976562, 0, 0.000976562, -0.0273438, 0.352539, -9.66211, 1.28.2022 18:11:53.359
102, 2.18998, 0.163664, 188.911, -0.000976562, 0, 0.000976562, 0.00390625, 0.352539, -9.66211, 1.28.2022 18:11:53.367
103, 2.19052, 0.156692, 188.911, 0, -0.000976562, 0, -0.0605469, 0.359375, -9.7041, 1.28.2022 18:11:53.375
104, 2.19052, 0.156692, 188.911, 0, 0.000976562, 0, -0.00585938, 0.37207, -9.6709, 1.28.2022 18:11:53.383
105, 2.19052, 0.156692, 188.911, -0.000976562, -0.000976562, 0, -0.00585938, 0.363281, -9.67871, 1.28.2022 18:11:53.391
106, 2.19052, 0.156692, 188.911, 0, -0.00195312, 0, -0.0898438, 0.402344, -9.72852, 1.28.2022 18:11:53.399
107, 2.19052, 0.156692, 188.911, 0, -0.000976562, 0, -0.015625, 0.384766, -9.69629, 1.28.2022 18:11:53.407
108, 2.19052, 0.156692, 188.911, -0.000976562, -0.000976562, 0, -0.0537109, 0.332031, -9.69531, 1.28.2022 18:11:53.415
109, 2.19106, 0.14972, 188.912, -0.000976562, -0.000976562, 0, -0.0703125, 0.392578, -9.71875, 1.28.2022 18:11:53.423
110, 2.19106, 0.14972, 188.912, -0.000976562, -0.000976562, 0, -0.000976562, 0.365234, -9.69238, 1.28.2022 18:11:53.431
111, 2.19106, 0.14972, 188.912, 0, -0.000976562, -0.000976562, -0.0771484, 0.396484, -9.68555, 1.28.2022 18:11:53.439
112, 2.19106, 0.14972, 188.912, 0, -0.00195312, 0, -0.0400391, 0.37207, -9.73242, 1.28.2022 18:11:53.447
113, 2.18355, 0.156149, 188.911, 0, -0.000976562, -0.000976562, -0.00195312, 0.361328, -9.71875, 1.28.2022 18:11:53.455
114, 2.18355, 0.156149, 188.911, 0, 0.000976562, 0, -0.0820312, 0.380859, -9.7002, 1.28.2022 18:11:53.463
115, 2.18355, 0.156149, 188.911, -0.00195312, 0.000976562, 0.000976562, 0.0273438, 0.353516, -9.70312, 1.28.2022 18:11:53.471
116, 2.18355, 0.156149, 188.911, -0.00195312, -0.000976562, 0.000976562, -0.0273438, 0.358398, -9.69727, 1.28.2022 18:11:53.479
117, 2.18355, 0.156149, 188.911, 0, -0.000976562, 0, -0.0546875, 0.388672, -9.7334, 1.28.2022 18:11:53.487
118, 2.18355, 0.156149, 188.911, 0, -0.000976562, 0, 0.0175781, 0.349609, -9.71484, 1.28.2022 18:11:53.495
119, 2.18355, 0.156149, 188.911, 0, -0.000976562, 0, -0.0996094, 0.351562, -9.70312, 1.28.2022 18:11:53.503
120, 2.18355, 0.156149, 188.911, 0, -0.000976562, 0.000976562, -0.0253906, 0.363281, -9.69238, 1.28.2022 18:11:53.511
121, 2.18355, 0.156149, 188.911, 0, -0.000976562, 0, 0.0263672, 0.347656, -9.73828, 1.28.2022 18:11:53.519
122, 2.18355, 0.156149, 188.911, -0.000976562, -0.000976562, 0, -0.0488281, 0.363281, -9.70605, 1.28.2022 18:11:53.527
123, 2.18355, 0.156149, 188.911, -0.000976562, 0, -0.000976562, 0.0253906, 0.368164, -9.68555, 1.28.2022 18:11:53.535
124, 2.18355, 0.156149, 188.911, -0.000976562, 0, 0, -0.0302734, 0.361328, -9.71582, 1.28.2022 18:11:53.543
125, 2.18355, 0.156149, 188.911, -0.000976562, 0, -0.000976562, -0.0869141, 0.40918, -9.71582, 1.28.2022 18:11:53.551
126, 2.18301, 0.163121, 188.911, -0.000976562, 0, -0.000976562, 0.0146484, 0.37207, -9.74512, 1.28.2022 18:11:53.559
127, 2.18301, 0.163121, 188.911, -0.000976562, 0, -0.000976562, -0.0673828, 0.353516, -9.68262, 1.28.2022 18:11:53.567
128, 2.18301, 0.163121, 188.911, 0, 0.000976562, -0.000976562, -0.0205078, 0.371094, -9.73047, 1.28.2022 18:11:53.575
129, 2.18301, 0.163121, 188.911, -0.000976562, 0, -0.000976562, 0.0078125, 0.354492, -9.70508, 1.28.2022 18:11:53.583
130, 2.18301, 0.163121, 188.911, -0.000976562, -0.000976562, -0.000976562, -0.0849609, 0.402344, -9.72852, 1.28.2022 18:11:53.591
131, 2.18301, 0.163121, 188.911, -0.000976562, -0.000976562, -0.000976562, 0.00878906, 0.37207, -9.68359, 1.28.2022 18:11:53.599
132, 2.18301, 0.163121, 188.911, -0.000976562, 0, -0.000976562, -0.0253906, 0.369141, -9.7207, 1.28.2022 18:11:53.607
133, 2.18301, 0.163121, 188.911, -0.00195312, -0.000976562, -0.000976562, -0.0351562, 0.387695, -9.71289, 1.28.2022 18:11:53.615
134, 2.18301, 0.163121, 188.911, -0.00195312, 0, -0.000976562, 0.0195312, 0.354492, -9.72168, 1.28.2022 18:11:53.623
135, 2.18301, 0.163121, 188.911, -0.000976562, 0, 0, -0.0654297, 0.373047, -9.70605, 1.28.2022 18:11:53.631
136, 2.18301, 0.163121, 188.911, -0.000976562, 0, -0.000976562, -0.0488281, 0.389648, -9.69824, 1.28.2022 18:11:53.637
137, 2.18301, 0.163121, 188.911, -0.000976562, 0, -0.000976562, -0.000976562, 0.331055, -9.6582, 1.28.2022 18:11:53.645
138, 2.18301, 0.163121, 188.911, -0.000976562, -0.000976562, -0.000976562, -0.0800781, 0.404297, -9.70215, 1.28.2022 18:11:53.653
139, 2.18301, 0.163121, 188.911, -0.000976562, 0, -0.00195312, 0.0126953, 0.371094, -9.7168, 1.28.2022 18:11:53.661
140, 2.18301, 0.163121, 188.911, 0, 0, -0.000976562, -0.0302734, 0.375977, -9.71582, 1.28.2022 18:11:53.669
141, 2.18301, 0.163121, 188.911, 0, 0, -0.000976562, -0.0615234, 0.405273, -9.73535, 1.28.2022 18:11:53.677
142, 2.18301, 0.163121, 188.911, 0, 0, -0.000976562, 0.0224609, 0.358398, -9.7002, 1.28.2022 18:11:53.685
143, 2.18301, 0.163121, 188.911, -0.000976562, 0, -0.000976562, -0.0517578, 0.356445, -9.69922, 1.28.2022 18:11:53.693
144, 2.18301, 0.163121, 188.911, -0.000976562, 0.000976562, -0.000976562, -0.0195312, 0.381836, -9.67773, 1.28.2022 18:11:53.701
145, 2.18301, 0.163121, 188.911, -0.000976562, 0, -0.000976562, 0.0175781, 0.363281, -9.70508, 1.28.2022 18:11:53.709
146, 2.18301, 0.163121, 188.911, 0, 0, -0.00195312, -0.0683594, 0.392578, -9.70508, 1.28.2022 18:11:53.717
147, 2.18301, 0.163121, 188.911, -0.000976562, -0.000976562, 0, -0.0078125, 0.351562, -9.68555, 1.28.2022 18:11:53.725
148, 2.18998, 0.163664, 188.911, -0.000976562, -0.000976562, -0.000976562, -0.0244141, 0.360352, -9.68066, 1.28.2022 18:11:53.733
149, 2.18998, 0.163664, 188.911, 0, -0.000976562, -0.00195312, -0.0537109, 0.392578, -9.69629, 1.28.2022 18:11:53.741
150, 2.18998, 0.163664, 188.911, -0.000976562, 0, -0.00195312, 0.0146484, 0.364258, -9.71875, 1.28.2022 18:11:53.749
151, 2.18998, 0.163664, 188.911, -0.000976562, 0, -0.000976562, -0.0449219, 0.387695, -9.71484, 1.28.2022 18:11:53.757
152, 2.18998, 0.163664, 188.911, -0.000976562, 0, -0.000976562, -0.0205078, 0.371094, -9.72754, 1.28.2022 18:11:53.765
153, 2.18998, 0.163664, 188.911, 0, 0, 0, 0.0107422, 0.361328, -9.71191, 1.28.2022 18:11:53.773
154, 2.18998, 0.163664, 188.911, 0, 0, 0.000976562, -0.09375, 0.391602, -9.68359, 1.28.2022 18:11:53.781
155, 2.18998, 0.163664, 188.911, -0.000976562, 0, 0.000976562, 0.0126953, 0.364258, -9.74219, 1.28.2022 18:11:53.789
156, 2.18998, 0.163664, 188.911, -0.000976562, 0, -0.000976562, -0.0351562, 0.345703, -9.72852, 1.28.2022 18:11:53.797
157, 2.18998, 0.163664, 188.911, -0.000976562, -0.000976562, 0.000976562, -0.0800781, 0.394531, -9.68359, 1.28.2022 18:11:53.805
158, 2.18998, 0.163664, 188.911, -0.000976562, -0.000976562, 0.000976562, 0.0107422, 0.344727, -9.70801, 1.28.2022 18:11:53.813
159, 2.18998, 0.163664, 188.911, -0.000976562, 0, -0.000976562, -0.0585938, 0.370117, -9.69141, 1.28.2022 18:11:53.821
160, 2.18998, 0.163664, 188.911, -0.00195312, 0, -0.00195312, -0.0566406, 0.379883, -9.70117, 1.28.2022 18:11:53.829
161, 2.18998, 0.163664, 188.911, -0.00195312, 0.000976562, -0.00195312, 0, 0.357422, -9.74707, 1.28.2022 18:11:53.837
162, 2.18998, 0.163664, 188.911, -0.000976562, 0, -0.000976562, -0.0703125, 0.375, -9.69629, 1.28.2022 18:11:53.845
163, 2.18998, 0.163664, 188.911, 0, -0.000976562, -0.000976562, 0.0224609, 0.367188, -9.67676, 1.28.2022 18:11:53.853
164, 2.18998, 0.163664, 188.911, -0.000976562, -0.000976562, -0.000976562, -0.0371094, 0.355469, -9.68262, 1.28.2022 18:11:53.861
165, 2.18998, 0.163664, 188.911, 0, 0, 0.000976562, -0.0537109, 0.381836, -9.6748, 1.28.2022 18:11:53.869
166, 2.18998, 0.163664, 188.911, -0.000976562, -0.000976562, -0.000976562, 0.0361328, 0.371094, -9.72363, 1.28.2022 18:11:53.877
167, 2.18998, 0.163664, 188.911, 0, 0, -0.000976562, -0.0419922, 0.359375, -9.72559, 1.28.2022 18:11:53.885
168, 2.18998, 0.163664, 188.911, 0, 0.000976562, 0.000976562, -0.0273438, 0.351562, -9.71387, 1.28.2022 18:11:53.893
169, 2.18998, 0.163664, 188.911, -0.000976562, -0.000976562, 0.000976562, -0.00390625, 0.336914, -9.70312, 1.28.2022 18:11:53.901
170, 2.18998, 0.163664, 188.911, 0, 0, -0.000976562, -0.078125, 0.381836, -9.74316, 1.28.2022 18:11:53.909
171, 2.18998, 0.163664, 188.911, -0.000976562, 0, -0.000976562, -0.00390625, 0.366211, -9.70898, 1.28.2022 18:11:53.917
172, 2.18998, 0.163664, 188.911, -0.000976562, 0, -0.000976562, -0.00585938, 0.387695, -9.71582, 1.28.2022 18:11:53.925
173, 2.18998, 0.163664, 188.911, 0, 0, -0.000976562, -0.0820312, 0.407227, -9.70898, 1.28.2022 18:11:53.933
174, 2.18998, 0.163664, 188.911, 0, 0, -0.00195312, 0.0224609, 0.363281, -9.69336, 1.28.2022 18:11:53.941
175, 2.18301, 0.163121, 188.911, -0.000976562, 0, -0.000976562, -0.0537109, 0.356445, -9.68945, 1.28.2022 18:11:53.949
176, 2.18301, 0.163121, 188.911, 0, 0, -0.000976562, -0.0537109, 0.354492, -9.70898, 1.28.2022 18:11:53.957
177, 2.18301, 0.163121, 188.911, 0, 0, -0.000976562, 0.0126953, 0.34668, -9.70996, 1.28.2022 18:11:53.965
178, 2.18301, 0.163121, 188.911, -0.000976562, 0, -0.000976562, -0.0683594, 0.392578, -9.71191, 1.28.2022 18:11:53.973
179, 2.18301, 0.163121, 188.911, -0.000976562, 0, -0.000976562, -0.0322266, 0.386719, -9.67285, 1.28.2022 18:11:53.981
180, 2.18301, 0.163121, 188.911, 0, -0.000976562, -0.00195312, -0.0234375, 0.374023, -9.73242, 1.28.2022 18:11:53.989
181, 2.18301, 0.163121, 188.911, 0, 0, -0.00195312, -0.078125, 0.400391, -9.7334, 1.28.2022 18:11:53.997
182, 2.18301, 0.163121, 188.911, -0.00195312, 0, -0.000976562, 0.0244141, 0.362305, -9.7334, 1.28.2022 18:11:54.005
183, 2.18301, 0.163121, 188.911, -0.000976562, 0, -0.000976562, -0.0302734, 0.385742, -9.71484, 1.28.2022 18:11:54.013
184, 2.18301, 0.163121, 188.911, -0.00195312, 0, -0.000976562, -0.046875, 0.385742, -9.72461, 1.28.2022 18:11:54.021
185, 2.18301, 0.163121, 188.911, 0, -0.000976562, -0.00195312, 0.00585938, 0.360352, -9.68848, 1.28.2022 18:11:54.029
186, 2.18247, 0.170093, 188.911, 0, 0, -0.000976562, -0.0683594, 0.379883, -9.69824, 1.28.2022 18:11:54.037
187, 2.18247, 0.170093, 188.911, -0.000976562, 0, 0.000976562, -0.0126953, 0.394531, -9.68262, 1.28.2022 18:11:54.045
188, 2.18247, 0.170093, 188.911, -0.00195312, 0, -0.00195312, -0.00585938, 0.361328, -9.70215, 1.28.2022 18:11:54.053
189, 2.18247, 0.170093, 188.911, 0, 0, -0.00195312, -0.0703125, 0.392578, -9.70703, 1.28.2022 18:11:54.061
190, 2.18243, 0.170226, 188.918, 0, 0, -0.000976562, 0.0253906, 0.358398, -9.67871, 1.28.2022 18:11:54.069
191, 2.18939, 0.17077, 188.918, 0, -0.000976562, -0.000976562, -0.0185547, 0.380859, -9.71777, 1.28.2022 18:11:54.077
192, 2.18939, 0.17077, 188.918, 0, -0.000976562, -0.000976562, -0.0205078, 0.388672, -9.73633, 1.28.2022 18:11:54.085
193, 2.18939, 0.17077, 188.918, -0.000976562, -0.000976562, -0.000976562, 0.0224609, 0.334961, -9.71289, 1.28.2022 18:11:54.093
194, 2.18939, 0.17077, 188.918, -0.000976562, 0, 0, -0.0810547, 0.374023, -9.73828, 1.28.2022 18:11:54.101
195, 2.18939, 0.17077, 188.918, -0.000976562, 0, 0, -0.015625, 0.361328, -9.70703, 1.28.2022 18:11:54.109
196, 2.18998, 0.163664, 188.911, -0.000976562, 0.000976562, 0, -0.0136719, 0.371094, -9.72266, 1.28.2022 18:11:54.117
197, 2.18998, 0.163664, 188.911, 0, 0, -0.000976562, -0.0634766, 0.378906, -9.73633, 1.28.2022 18:11:54.125
198, 2.18998, 0.163664, 188.911, -0.000976562, 0.000976562, 0, -0.00585938, 0.368164, -9.70703, 1.28.2022 18:11:54.133
199, 2.18998, 0.163664, 188.911, -0.000976562, 0, 0.000976562, -0.0527344, 0.375, -9.75293, 1.28.2022 18:11:54.141
200, 2.18998, 0.163664, 188.911, -0.000976562, -0.000976562, 0.000976562, -0.0732422, 0.360352, -9.73633, 1.28.2022 18:11:54.149
201, 2.18998, 0.163664, 188.911, -0.000976562, -0.000976562, -0.000976562, 0.0292969, 0.347656, -9.72949, 1.28.2022 18:11:54.157
202, 2.18998, 0.163664, 188.911, 0, 0, -0.000976562, -0.0517578, 0.392578, -9.71289, 1.28.2022 18:11:54.165
203, 2.18998, 0.163664, 188.911, 0, 0, -0.000976562, -0.0371094, 0.393555, -9.73145, 1.28.2022 18:11:54.173
204, 2.18998, 0.163664, 188.911, 0, 0, 0.000976562, -0.00390625, 0.382812, -9.71094, 1.28.2022 18:11:54.181
205, 2.18998, 0.163664, 188.911, 0, 0, -0.000976562, -0.0751953, 0.387695, -9.70703, 1.28.2022 18:11:54.189
206, 2.18998, 0.163664, 188.911, -0.000976562, 0, 0, 0.0273438, 0.382812, -9.69531, 1.28.2022 18:11:54.197
207, 2.18998, 0.163664, 188.911, -0.00195312, 0, 0, -0.0341797, 0.391602, -9.67969, 1.28.2022 18:11:54.205
208, 2.18998, 0.163664, 188.911, -0.00195312, -0.000976562, -0.000976562, -0.0488281, 0.370117, -9.6709, 1.28.2022 18:11:54.213
209, 2.18998, 0.163664, 188.911, -0.000976562, 0, 0.000976562, 0.0078125, 0.385742, -9.71582, 1.28.2022 18:11:54.221
210, 2.19694, 0.164208, 188.911, -0.000976562, -0.000976562, -0.000976562, -0.0664062, 0.359375, -9.73242, 1.28.2022 18:11:54.229
211, 2.19694, 0.164208, 188.911, -0.00195312, 0, 0, -0.0185547, 0.390625, -9.71973, 1.28.2022 18:11:54.237
212, 2.19694, 0.164208, 188.911, -0.000976562, 0, 0.000976562, 0.000976562, 0.349609, -9.73145, 1.28.2022 18:11:54.245
213, 2.19694, 0.164208, 188.911, 0, 0, -0.000976562, -0.0634766, 0.405273, -9.71875, 1.28.2022 18:11:54.253
214, 2.19694, 0.164208, 188.911, -0.000976562, 0, 0, 0.0126953, 0.362305, -9.72852, 1.28.2022 18:11:54.261
215, 2.19694, 0.164208, 188.911, -0.00195312, -0.000976562, -0.00195312, -0.0400391, 0.393555, -9.72949, 1.28.2022 18:11:54.269
216, 2.19694, 0.164208, 188.911, -0.000976562, -0.000976562, -0.000976562, -0.046875, 0.402344, -9.7334, 1.28.2022 18:11:54.277
217, 2.20391, 0.164751, 188.911, 0, 0, -0.000976562, 0.0273438, 0.368164, -9.7002, 1.28.2022 18:11:54.285
218, 2.20391, 0.164751, 188.911, 0, 0.000976562, -0.000976562, -0.0654297, 0.37793, -9.70312, 1.28.2022 18:11:54.293
219, 2.20391, 0.164751, 188.911, 0, 0.000976562, 0.000976562, -0.0185547, 0.374023, -9.73438, 1.28.2022 18:11:54.301
220, 2.20391, 0.164751, 188.911, -0.000976562, 0, -0.000976562, 0.0107422, 0.361328, -9.69824, 1.28.2022 18:11:54.309
221, 2.20391, 0.164751, 188.911, -0.000976562, 0.000976562, -0.000976562, -0.0800781, 0.380859, -9.72852, 1.28.2022 18:11:54.317
222, 2.20391, 0.164751, 188.911, -0.000976562, 0, -0.000976562, 0.0273438, 0.366211, -9.7168, 1.28.2022 18:11:54.325
223, 2.20391, 0.164751, 188.911, -0.000976562, -0.000976562, -0.000976562, -0.0478516, 0.350586, -9.74219, 1.28.2022 18:11:54.333
224, 2.20391, 0.164751, 188.911, -0.000976562, -0.000976562, -0.000976562, -0.0751953, 0.385742, -9.7168, 1.28.2022 18:11:54.341
225, 2.20391, 0.164751, 188.911, -0.000976562, -0.000976562, -0.000976562, 0.00488281, 0.359375, -9.72559, 1.28.2022 18:11:54.349
226, 2.20391, 0.164751, 188.911, -0.000976562, 0, -0.000976562, -0.0400391, 0.390625, -9.73633, 1.28.2022 18:11:54.357
227, 2.20391, 0.164751, 188.911, -0.000976562, 0.000976562, -0.000976562, -0.0302734, 0.385742, -9.72266, 1.28.2022 18:11:54.365
228, 2.20445, 0.157779, 188.911, -0.000976562, 0, 0.000976562, -0.00390625, 0.349609, -9.72168, 1.28.2022 18:11:54.373
229, 2.21142, 0.158323, 188.911, -0.000976562, -0.000976562, -0.000976562, -0.0947266, 0.390625, -9.70898, 1.28.2022 18:11:54.381
230, 2.21142, 0.158323, 188.911, -0.000976562, 0.000976562, -0.000976562, 0.0224609, 0.351562, -9.70312, 1.28.2022 18:11:54.389
231, 2.21142, 0.158323, 188.911, -0.000976562, 0.000976562, 0.000976562, -0.0107422, 0.370117, -9.69238, 1.28.2022 18:11:54.397
232, 2.21142, 0.158323, 188.911, -0.00195312, 0, -0.000976562, -0.0517578, 0.382812, -9.71289, 1.28.2022 18:11:54.405
233, 2.21142, 0.158323, 188.911, -0.00195312, 0.000976562, -0.000976562, 0.00976562, 0.359375, -9.73047, 1.28.2022 18:11:54.413
234, 2.21142, 0.158323, 188.911, -0.000976562, 0, -0.000976562, -0.0517578, 0.354492, -9.70215, 1.28.2022 18:11:54.421
235, 2.21142, 0.158323, 188.911, 0, 0.000976562, -0.000976562, -0.0117188, 0.378906, -9.72266, 1.28.2022 18:11:54.429
236, 2.21142, 0.158323, 188.911, 0, 0, -0.000976562, 0.0078125, 0.390625, -9.72754, 1.28.2022 18:11:54.437
237, 2.21142, 0.158323, 188.911, -0.000976562, 0, -0.00195312, -0.0898438, 0.384766, -9.69336, 1.28.2022 18:11:54.445
238, 2.21142, 0.158323, 188.911, -0.000976562, 0.000976562, -0.000976562, 0.0224609, 0.373047, -9.69727, 1.28.2022 18:11:54.453
239, 2.21142, 0.158323, 188.911, -0.000976562, 0, 0.000976562, 0.0078125, 0.370117, -9.75195, 1.28.2022 18:11:54.461
240, 2.20445, 0.157779, 188.911, 0, 0.000976562, 0.000976562, -0.0615234, 0.402344, -9.70996, 1.28.2022 18:11:54.469
241, 2.20445, 0.157779, 188.911, -0.000976562, 0, -0.000976562, -0.0136719, 0.354492, -9.72363, 1.28.2022 18:11:54.477
242, 2.20445, 0.157779, 188.911, -0.000976562, 0, -0.000976562, -0.0703125, 0.375, -9.68945, 1.28.2022 18:11:54.485
243, 2.20445, 0.157779, 188.911, 0, -0.000976562, -0.000976562, -0.0253906, 0.366211, -9.69727, 1.28.2022 18:11:54.493
244, 2.20445, 0.157779, 188.911, 0, 0, -0.000976562, 0.0107422, 0.363281, -9.69727, 1.28.2022 18:11:54.501
245, 2.20445, 0.157779, 188.911, 0, 0, -0.000976562, -0.0654297, 0.381836, -9.67969, 1.28.2022 18:11:54.509
246, 2.20445, 0.157779, 188.911, -0.00195312, 0, -0.000976562, -0.00195312, 0.375, -9.75586, 1.28.2022 18:11:54.517
247, 2.20499, 0.150807, 188.912, -0.000976562, -0.000976562, -0.000976562, 0, 0.350586, -9.76172, 1.28.2022 18:11:54.525
248, 2.20499, 0.150807, 188.912, -0.000976562, 0, -0.000976562, -0.0849609, 0.398438, -9.74023, 1.28.2022 18:11:54.533
249, 2.20499, 0.150807, 188.912, 0, 0, -0.000976562, 0.0195312, 0.354492, -9.71191, 1.28.2022 18:11:54.541
250, 2.20499, 0.150807, 188.912, 0, -0.000976562, -0.000976562, -0.0664062, 0.380859, -9.72168, 1.28.2022 18:11:54.549
251, 2.20499, 0.150807, 188.912, 0, -0.000976562, -0.000976562, -0.0341797, 0.379883, -9.68457, 1.28.2022 18:11:54.557
252, 2.20499, 0.150807, 188.912, 0, -0.000976562, 0, 0.0166016, 0.348633, -9.77148, 1.28.2022 18:11:54.565
253, 2.20445, 0.157779, 188.911, -0.000976562, -0.000976562, 0, -0.0722656, 0.386719, -9.68652, 1.28.2022 18:11:54.573
254, 2.20445, 0.157779, 188.911, 0, -0.000976562, 0, 0.0195312, 0.366211, -9.72656, 1.28.2022 18:11:54.581
255, 2.20499, 0.150807, 188.912, 0, 0, 0, -0.0214844, 0.381836, -9.75781, 1.28.2022 18:11:54.589
256, 2.20499, 0.150807, 188.912, -0.000976562, -0.000976562, -0.000976562, -0.0683594, 0.383789, -9.71973, 1.28.2022 18:11:54.597
257, 2.20499, 0.150807, 188.912, -0.000976562, -0.000976562, -0.00195312, 0.00488281, 0.352539, -9.74316, 1.28.2022 18:11:54.605
258, 2.20445, 0.157779, 188.911, -0.000976562, -0.00195312, -0.000976562, -0.0351562, 0.359375, -9.72559, 1.28.2022 18:11:54.611
259, 2.20445, 0.157779, 188.911, -0.00195312, -0.00195312, -0.000976562, -0.0400391, 0.388672, -9.74805, 1.28.2022 18:11:54.619
260, 2.20445, 0.157779, 188.911, -0.000976562, 0, -0.000976562, -0.0117188, 0.349609, -9.72168, 1.28.2022 18:11:54.627
261, 2.20445, 0.157779, 188.911, -0.000976562, -0.000976562, 0, -0.0429688, 0.400391, -9.74805, 1.28.2022 18:11:54.635
262, 2.19748, 0.157236, 188.911, 0, -0.000976562, -0.00195312, -0.0185547, 0.380859, -9.7373, 1.28.2022 18:11:54.643
263, 2.19748, 0.157236, 188.911, 0, 0, -0.000976562, -0.00585938, 0.37793, -9.70605, 1.28.2022 18:11:54.651
264, 2.19748, 0.157236, 188.911, -0.000976562, -0.000976562, -0.000976562, -0.046875, 0.402344, -9.71973, 1.28.2022 18:11:54.659
265, 2.19748, 0.157236, 188.911, -0.000976562, -0.000976562, -0.000976562, -0.00585938, 0.361328, -9.71191, 1.28.2022 18:11:54.667
266, 2.19748, 0.157236, 188.911, -0.000976562, -0.00195312, -0.000976562, -0.0712891, 0.375, -9.75488, 1.28.2022 18:11:54.675
267, 2.19748, 0.157236, 188.911, 0, -0.00195312, -0.00195312, -0.0439453, 0.390625, -9.71289, 1.28.2022 18:11:54.683
268, 2.19748, 0.157236, 188.911, 0, -0.000976562, -0.00195312, 0.000976562, 0.335938, -9.72656, 1.28.2022 18:11:54.691
269, 2.19748, 0.157236, 188.911, -0.000976562, 0, -0.000976562, -0.078125, 0.37793, -9.71484, 1.28.2022 18:11:54.699
270, 2.19748, 0.157236, 188.911, -0.000976562, -0.000976562, -0.00195312, -0.00585938, 0.349609, -9.7002, 1.28.2022 18:11:54.707
271, 2.19748, 0.157236, 188.911, -0.00195312, -0.000976562, -0.00195312, -0.0166016, 0.349609, -9.72852, 1.28.2022 18:11:54.715
272, 2.19748, 0.157236, 188.911, -0.000976562, -0.000976562, 0, -0.0634766, 0.384766, -9.68652, 1.28.2022 18:11:54.723
273, 2.19748, 0.157236, 188.911, -0.000976562, -0.000976562, -0.000976562, 0.0292969, 0.349609, -9.71289, 1.28.2022 18:11:54.731
274, 2.19748, 0.157236, 188.911, -0.000976562, -0.000976562, -0.000976562, -0.0634766, 0.384766, -9.69336, 1.28.2022 18:11:54.739
275, 2.19748, 0.157236, 188.911, 0, -0.000976562, -0.00195312, -0.0546875, 0.375, -9.75586, 1.28.2022 18:11:54.747
276, 2.19748, 0.157236, 188.911, -0.000976562, -0.00195312, -0.000976562, 0.0224609, 0.371094, -9.70996, 1.28.2022 18:11:54.755
277, 2.19748, 0.157236, 188.911, -0.000976562, -0.000976562, -0.00195312, -0.0849609, 0.380859, -9.71484, 1.28.2022 18:11:54.763
278, 2.1969, 0.164342, 188.918, -0.000976562, 0, -0.000976562, -0.0224609, 0.387695, -9.69922, 1.28.2022 18:11:54.771
279, 2.1969, 0.164342, 188.918, -0.000976562, -0.00195312, -0.00195312, -0.0234375, 0.376953, -9.7373, 1.28.2022 18:11:54.779
280, 2.1969, 0.164342, 188.918, 0, -0.00195312, -0.000976562, -0.046875, 0.393555, -9.73828, 1.28.2022 18:11:54.787
281, 2.1969, 0.164342, 188.918, 0.000976562, -0.000976562, -0.000976562, 0.0488281, 0.354492, -9.71289, 1.28.2022 18:11:54.795
282, 2.1969, 0.164342, 188.918, 0, 0, 0, -0.0351562, 0.374023, -9.7207, 1.28.2022 18:11:54.803
283, 2.1969, 0.164342, 188.918, -0.000976562, 0, -0.000976562, -0.0537109, 0.375, -9.68262, 1.28.2022 18:11:54.811
284, 2.1969, 0.164342, 188.918, -0.000976562, 0, 0, 0.0136719, 0.335938, -9.66504, 1.28.2022 18:11:54.819
285, 2.1969, 0.164342, 188.918, -0.00195312, 0, 0.000976562, -0.078125, 0.385742, -9.71191, 1.28.2022 18:11:54.827
286, 2.1969, 0.164342, 188.918, -0.000976562, 0, 0, -0.00585938, 0.330078, -9.70117, 1.28.2022 18:11:54.835
287, 2.1969, 0.164342, 188.918, 0, 0, -0.00195312, 0.00390625, 0.353516, -9.69824, 1.28.2022 18:11:54.843
288, 2.1969, 0.164342, 188.918, -0.000976562, 0, 0, -0.0615234, 0.398438, -9.73145, 1.28.2022 18:11:54.851
289, 2.1969, 0.164342, 188.918, -0.000976562, 0, 0, 0.0175781, 0.351562, -9.7168, 1.28.2022 18:11:54.859
290, 2.1969, 0.164342, 188.918, -0.000976562, 0.000976562, 0, -0.0703125, 0.359375, -9.70605, 1.28.2022 18:11:54.867
291, 2.18993, 0.163798, 188.918, 0, 0.000976562, 0, -0.0615234, 0.392578, -9.71484, 1.28.2022 18:11:54.875
292, 2.18993, 0.163798, 188.918, 0, 0, 0, 0.0292969, 0.352539, -9.73828, 1.28.2022 18:11:54.883
293, 2.18993, 0.163798, 188.918, 0, 0, 0, -0.0830078, 0.369141, -9.74121, 1.28.2022 18:11:54.891
294, 2.18993, 0.163798, 188.918, 0, 0, 0, 0.0107422, 0.392578, -9.71777, 1.28.2022 18:11:54.899
295, 2.18993, 0.163798, 188.918, -0.000976562, 0, -0.000976562, -0.0253906, 0.359375, -9.73242, 1.28.2022 18:11:54.907
296, 2.18993, 0.163798, 188.918, -0.000976562, 0, -0.000976562, -0.0849609, 0.396484, -9.68848, 1.28.2022 18:11:54.915
297, 2.18993, 0.163798, 188.918, 0, 0, 0.000976562, 0.0224609, 0.376953, -9.68848, 1.28.2022 18:11:54.923
298, 2.18993, 0.163798, 188.918, 0, 0, 0, -0.0185547, 0.364258, -9.73926, 1.28.2022 18:11:54.931
299, 2.18993, 0.163798, 188.918, -0.000976562, 0, 0, -0.0400391, 0.397461, -9.71484, 1.28.2022 18:11:54.939
300, 2.18993, 0.163798, 188.918, 0, 0, -0.00195312, 0.0126953, 0.364258, -9.71191, 1.28.2022 18:11:54.947
301, 2.18993, 0.163798, 188.918, -0.000976562, -0.00292969, 0, -0.0585938, 0.395508, -9.71191, 1.28.2022 18:11:54.955
302, 2.18993, 0.163798, 188.918, -0.000976562, 0, 0, -0.0136719, 0.392578, -9.71582, 1.28.2022 18:11:54.963
303, 2.18993, 0.163798, 188.918, -0.000976562, 0, 0, 0.00585938, 0.366211, -9.71387, 1.28.2022 18:11:54.971
304, 2.18993, 0.163798, 188.918, -0.000976562, 0, 0, -0.0449219, 0.388672, -9.74609, 1.28.2022 18:11:54.979
305, 2.18993, 0.163798, 188.918, -0.000976562, 0, -0.000976562, 0.0224609, 0.348633, -9.69629, 1.28.2022 18:11:54.987
306, 2.18993, 0.163798, 188.918, -0.000976562, 0, 0, -0.0253906, 0.385742, -9.71973, 1.28.2022 18:11:54.995
307, 2.18993, 0.163798, 188.918, -0.000976562, 0, 0, -0.0322266, 0.390625, -9.71289, 1.28.2022 18:11:55.003
308, 2.18993, 0.163798, 188.918, -0.000976562, -0.00195312, 0, 0.00292969, 0.359375, -9.73047, 1.28.2022 18:11:55.011
309, 2.18993, 0.163798, 188.918, 0, 0, -0.00195312, -0.0869141, 0.380859, -9.7002, 1.28.2022 18:11:55.019
310, 2.19048, 0.156826, 188.918, -0.000976562, 0, -0.000976562, -0.0332031, 0.367188, -9.72754, 1.28.2022 18:11:55.027
311, 2.19048, 0.156826, 188.918, -0.000976562, 0, 0, -0.00878906, 0.337891, -9.70996, 1.28.2022 18:11:55.035
312, 2.19048, 0.156826, 188.918, -0.000976562, 0.000976562, 0, -0.0615234, 0.366211, -9.71094, 1.28.2022 18:11:55.043
313, 2.19048, 0.156826, 188.918, 0, 0, 0, 0.0195312, 0.345703, -9.74805, 1.28.2022 18:11:55.051
314, 2.19048, 0.156826, 188.918, 0, -0.000976562, 0, -0.0234375, 0.351562, -9.71191, 1.28.2022 18:11:55.059
315, 2.19048, 0.156826, 188.918, -0.000976562, 0.000976562, 0, -0.0654297, 0.376953, -9.68164, 1.28.2022 18:11:55.067
316, 2.19048, 0.156826, 188.918, -0.000976562, -0.000976562, 0, 0.0390625, 0.349609, -9.72949, 1.28.2022 18:11:55.075
317, 2.19048, 0.156826, 188.918, -0.000976562, -0.00195312, 0, -0.0800781, 0.378906, -9.72656, 1.28.2022 18:11:55.083
318, 2.19048, 0.156826, 188.918, -0.000976562, -0.00195312, 0, -0.0175781, 0.363281, -9.69531, 1.28.2022 18:11:55.091
319, 2.19048, 0.156826, 188.918, -0.00195312, -0.000976562, 0.000976562, -0.0185547, 0.342773, -9.71387, 1.28.2022 18:11:55.099
320, 2.19048, 0.156826, 188.918, -0.000976562, -0.00195312, -0.000976562, -0.101562, 0.368164, -9.68652, 1.28.2022 18:11:55.107
321, 2.19048, 0.156826, 188.918, 0, -0.00195312, -0.000976562, -0.0078125, 0.363281, -9.68555, 1.28.2022 18:11:55.115
322, 2.19048, 0.156826, 188.918, 0, 0, -0.000976562, -0.0351562, 0.360352, -9.75098, 1.28.2022 18:11:55.123
323, 2.19048, 0.156826, 188.918, -0.000976562, -0.00195312, -0.000976562, -0.0537109, 0.37793, -9.68652, 1.28.2022 18:11:55.131
324, 2.19048, 0.156826, 188.918, -0.000976562, -0.00195312, 0, 0.0175781, 0.356445, -9.71973, 1.28.2022 18:11:55.139
325, 2.19048, 0.156826, 188.918, -0.000976562, -0.00195312, 0, -0.0703125, 0.351562, -9.68262, 1.28.2022 18:11:55.147
326, 2.18297, 0.163255, 188.918, -0.000976562, -0.000976562, 0, -0.015625, 0.371094, -9.70215, 1.28.2022 18:11:55.155
327, 2.18297, 0.163255, 188.918, -0.000976562, -0.000976562, 0, 0.00585938, 0.344727, -9.70996, 1.28.2022 18:11:55.163
328, 2.18297, 0.163255, 188.918, -0.000976562, -0.000976562, 0, -0.0664062, 0.388672, -9.75293, 1.28.2022 18:11:55.171
329, 2.18297, 0.163255, 188.918, 0, 0.000976562, 0, 0.0078125, 0.388672, -9.7373, 1.28.2022 18:11:55.179
330, 2.18297, 0.163255, 188.918, -0.000976562, -0.000976562, 0, -0.0234375, 0.354492, -9.72852, 1.28.2022 18:11:55.187
331, 2.18297, 0.163255, 188.918, -0.000976562, 0, -0.000976562, -0.0566406, 0.369141, -9.71777, 1.28.2022 18:11:55.195
332, 2.18297, 0.163255, 188.918, -0.00195312, -0.00195312, 0, 0.0273438, 0.363281, -9.69824, 1.28.2022 18:11:55.203
333, 2.176, 0.162711, 188.918, 0, -0.000976562, 0, -0.046875, 0.385742, -9.71289, 1.28.2022 18:11:55.211
334, 2.176, 0.162711, 188.918, 0, -0.000976562, 0, -0.0302734, 0.361328, -9.70703, 1.28.2022 18:11:55.219
335, 2.176, 0.162711, 188.918, -0.00195312, -0.00195312, -0.000976562, 0, 0.374023, -9.73535, 1.28.2022 18:11:55.227
336, 2.176, 0.162711, 188.918, -0.000976562, -0.00195312, 0, -0.0419922, 0.365234, -9.68457, 1.28.2022 18:11:55.235
337, 2.176, 0.162711, 188.918, 0, -0.00292969, 0, -0.0136719, 0.363281, -9.69727, 1.28.2022 18:11:55.243
338, 2.176, 0.162711, 188.918, -0.000976562, -0.000976562, 0, -0.0185547, 0.366211, -9.7041, 1.28.2022 18:11:55.251
339, 2.176, 0.162711, 188.918, 0, -0.00195312, -0.000976562, -0.0205078, 0.352539, -9.7207, 1.28.2022 18:11:55.259
340, 2.176, 0.162711, 188.918, -0.000976562, -0.00195312, 0, 0.0078125, 0.356445, -9.70703, 1.28.2022 18:11:55.267
341, 2.176, 0.162711, 188.918, 0, -0.000976562, 0, -0.0605469, 0.354492, -9.70117, 1.28.2022 18:11:55.275
342, 2.176, 0.162711, 188.918, -0.000976562, -0.000976562, 0, -0.0419922, 0.392578, -9.70801, 1.28.2022 18:11:55.283
343, 2.16904, 0.162167, 188.918, -0.000976562, -0.000976562, 0, 0.0175781, 0.359375, -9.72168, 1.28.2022 18:11:55.291
344, 2.16904, 0.162167, 188.918, -0.000976562, 0.000976562, 0, -0.0703125, 0.420898, -9.68555, 1.28.2022 18:11:55.299
345, 2.16904, 0.162167, 188.918, -0.000976562, -0.000976562, 0, 0.00488281, 0.371094, -9.72852, 1.28.2022 18:11:55.307
346, 2.16904, 0.162167, 188.918, 0, 0.000976562, 0, -0.0302734, 0.362305, -9.74414, 1.28.2022 18:11:55.315
347, 2.16904, 0.162167, 188.918, -0.000976562, 0, 0, -0.0556641, 0.387695, -9.70117, 1.28.2022 18:11:55.323
348, 2.16904, 0.162167, 188.918, -0.000976562, 0.000976562, -0.000976562, 0.0273438, 0.379883, -9.70215, 1.28.2022 18:11:55.331
349, 2.16958, 0.155195, 188.918, -0.000976562, 0, 0, -0.0654297, 0.375, -9.68164, 1.28.2022 18:11:55.339
350, 2.16958, 0.155195, 188.918, 0, 0, 0.000976562, -0.0419922, 0.379883, -9.69629, 1.28.2022 18:11:55.347
351, 2.16958, 0.155195, 188.918, 0, 0, -0.000976562, -0.0185547, 0.359375, -9.72363, 1.28.2022 18:11:55.355
352, 2.16958, 0.155195, 188.918, 0, 0, -0.000976562, -0.0996094, 0.397461, -9.72363, 1.28.2022 18:11:55.363
353, 2.16958, 0.155195, 188.918, 0, 0, 0, 0.000976562, 0.375977, -9.7041, 1.28.2022 18:11:55.371
354, 2.16958, 0.155195, 188.918, -0.000976562, 0, 0, -0.0361328, 0.356445, -9.77051, 1.28.2022 18:11:55.379
355, 2.17655, 0.155739, 188.918, -0.000976562, 0, 0.000976562, -0.0830078, 0.366211, -9.71484, 1.28.2022 18:11:55.387
356, 2.17655, 0.155739, 188.918, -0.000976562, 0, -0.000976562, -0.00195312, 0.328125, -9.73145, 1.28.2022 18:11:55.395
357, 2.17655, 0.155739, 188.918, 0, -0.000976562, 0, -0.078125, 0.357422, -9.71973, 1.28.2022 18:11:55.403
358, 2.176, 0.162711, 188.918, -0.000976562, 0, 0, -0.0566406, 0.367188, -9.74121, 1.28.2022 18:11:55.411
359, 2.176, 0.162711, 188.918, -0.000976562, -0.000976562, -0.000976562, -0.00195312, 0.364258, -9.72852, 1.28.2022 18:11:55.419
360, 2.176, 0.162711, 188.918, -0.000976562, 0.000976562, -0.000976562, -0.101562, 0.359375, -9.70996, 1.28.2022 18:11:55.427
361, 2.176, 0.162711, 188.918, -0.000976562, 0, 0, 0.0078125, 0.354492, -9.70996, 1.28.2022 18:11:55.435
362, 2.176, 0.162711, 188.918, -0.000976562, 0, -0.000976562, -0.046875, 0.364258, -9.71289, 1.28.2022 18:11:55.443
363, 2.176, 0.162711, 188.918, -0.000976562, 0, -0.000976562, -0.0800781, 0.375977, -9.7002, 1.28.2022 18:11:55.451
364, 2.17546, 0.169683, 188.918, -0.000976562, 0.000976562, -0.000976562, 0.0273438, 0.358398, -9.69824, 1.28.2022 18:11:55.459
365, 2.17546, 0.169683, 188.918, 0, 0, 0, -0.0488281, 0.387695, -9.70508, 1.28.2022 18:11:55.467
366, 2.17546, 0.169683, 188.918, 0.000976562, 0, 0, -0.0351562, 0.373047, -9.71289, 1.28.2022 18:11:55.475
367, 2.17546, 0.169683, 188.918, -0.000976562, 0, 0, -0.0117188, 0.359375, -9.73047, 1.28.2022 18:11:55.483
368, 2.16849, 0.169139, 188.918, -0.000976562, 0.000976562, 0.000976562, -0.0732422, 0.397461, -9.71875, 1.28.2022 18:11:55.491
369, 2.16795, 0.176111, 188.918, -0.000976562, -0.000976562, 0.000976562, 0.0126953, 0.34375, -9.69629, 1.28.2022 18:11:55.499
370, 2.16795, 0.176111, 188.918, 0, 0, 0, -0.0117188, 0.388672, -9.73633, 1.28.2022 18:11:55.507
371, 2.16795, 0.176111, 188.918, -0.000976562, 0.000976562, 0, -0.0517578, 0.393555, -9.72852, 1.28.2022 18:11:55.515
372, 2.16795, 0.176111, 188.918, -0.000976562, 0.000976562, 0, 0.0107422, 0.356445, -9.70508, 1.28.2022 18:11:55.523
373, 2.16795, 0.176111, 188.918, -0.000976562, 0, -0.000976562, -0.0566406, 0.37207, -9.72949, 1.28.2022 18:11:55.531
374, 2.17492, 0.176655, 188.918, -0.000976562, 0.000976562, -0.000976562, -0.0585938, 0.392578, -9.72363, 1.28.2022 18:11:55.539
375, 2.17492, 0.176655, 188.918, -0.000976562, 0.000976562, -0.000976562, 0.0244141, 0.354492, -9.73633, 1.28.2022 18:11:55.547
376, 2.17492, 0.176655, 188.918, -0.000976562, 0, 0, -0.0751953, 0.390625, -9.7168, 1.28.2022 18:11:55.555
377, 2.17492, 0.176655, 188.918, -0.000976562, 0, 0, -0.0107422, 0.380859, -9.72266, 1.28.2022 18:11:55.563
378, 2.17492, 0.176655, 188.918, 0, -0.000976562, -0.000976562, -0.0136719, 0.369141, -9.74219, 1.28.2022 18:11:55.571
379, 2.17492, 0.176655, 188.918, 0, 0, -0.000976562, -0.046875, 0.394531, -9.69824, 1.28.2022 18:11:55.577
380, 2.17492, 0.176655, 188.918, 0, 0, 0.000976562, 0.0244141, 0.368164, -9.70215, 1.28.2022 18:11:55.585
381, 2.17492, 0.176655, 188.918, -0.000976562, 0, 0, -0.0498047, 0.378906, -9.72266, 1.28.2022 18:11:55.593
382, 2.17492, 0.176655, 188.918, 0, -0.000976562, 0, -0.0273438, 0.379883, -9.69434, 1.28.2022 18:11:55.601
383, 2.17492, 0.176655, 188.918, -0.000976562, -0.000976562, 0, 0.0244141, 0.364258, -9.71875, 1.28.2022 18:11:55.609
384, 2.17492, 0.176655, 188.918, 0, 0, 0, -0.0703125, 0.392578, -9.70312, 1.28.2022 18:11:55.617
385, 2.17492, 0.176655, 188.918, -0.00195312, -0.000976562, -0.000976562, 0.0107422, 0.366211, -9.71875, 1.28.2022 18:11:55.625
386, 2.18188, 0.177198, 188.918, -0.000976562, -0.000976562, 0, -0.0185547, 0.351562, -9.7168, 1.28.2022 18:11:55.633
387, 2.18188, 0.177198, 188.918, 0, 0, -0.000976562, -0.0566406, 0.383789, -9.72656, 1.28.2022 18:11:55.641
388, 2.18188, 0.177198, 188.918, -0.000976562, -0.00195312, -0.000976562, 0.0292969, 0.361328, -9.72656, 1.28.2022 18:11:55.649
389, 2.18188, 0.177198, 188.918, -0.000976562, -0.000976562, 0, -0.0234375, 0.357422, -9.7207, 1.28.2022 18:11:55.657
390, 2.18243, 0.170226, 188.918, -0.000976562, 0, 0, -0.0205078, 0.387695, -9.71973, 1.28.2022 18:11:55.665
391, 2.18243, 0.170226, 188.918, -0.000976562, -0.00195312, 0, 0.0078125, 0.373047, -9.70898, 1.28.2022 18:11:55.673
392, 2.18243, 0.170226, 188.918, -0.000976562, -0.000976562, 0, -0.0761719, 0.381836, -9.74316, 1.28.2022 18:11:55.681
393, 2.18243, 0.170226, 188.918, -0.000976562, -0.000976562, -0.000976562, -0.000976562, 0.384766, -9.7041, 1.28.2022 18:11:55.689
394, 2.18243, 0.170226, 188.918, -0.000976562, -0.000976562, -0.000976562, -0.0205078, 0.361328, -9.71191, 1.28.2022 18:11:55.697
395, 2.18243, 0.170226, 188.918, 0, -0.000976562, 0, -0.0664062, 0.395508, -9.72656, 1.28.2022 18:11:55.705
396, 2.18993, 0.163798, 188.918, -0.000976562, -0.000976562, 0, 0.0507812, 0.356445, -9.70801, 1.28.2022 18:11:55.713
397, 2.18993, 0.163798, 188.918, -0.000976562, -0.000976562, 0, -0.0498047, 0.352539, -9.73047, 1.28.2022 18:11:55.721
398, 2.18993, 0.163798, 188.918, -0.000976562, -0.000976562, 0, -0.0185547, 0.392578, -9.71777, 1.28.2022 18:11:55.729
399, 2.18993, 0.163798, 188.918, -0.000976562, -0.000976562, 0, 0.00976562, 0.361328, -9.72168, 1.28.2022 18:11:55.737
400, 2.18993, 0.163798, 188.918, 0, -0.000976562, 0, -0.0751953, 0.360352, -9.67773, 1.28.2022 18:11:55.745
401, 2.19048, 0.156826, 188.918, -0.000976562, -0.000976562, 0.000976562, 0.0107422, 0.382812, -9.69238, 1.28.2022 18:11:55.753
402, 2.19048, 0.156826, 188.918, -0.000976562, -0.00195312, 0, -0.0126953, 0.363281, -9.68555, 1.28.2022 18:11:55.761
403, 2.19048, 0.156826, 188.918, -0.000976562, -0.000976562, 0, -0.0585938, 0.380859, -9.71777, 1.28.2022 18:11:55.769
404, 2.19048, 0.156826, 188.918, -0.000976562, -0.000976562, 0, 0.015625, 0.341797, -9.70508, 1.28.2022 18:11:55.777
405, 2.19048, 0.156826, 188.918, 0, -0.000976562, -0.000976562, -0.0537109, 0.37793, -9.70605, 1.28.2022 18:11:55.785
406, 2.19048, 0.156826, 188.918, 0, -0.000976562, -0.000976562, -0.0654297, 0.378906, -9.66797, 1.28.2022 18:11:55.793
407, 2.19048, 0.156826, 188.918, -0.000976562, -0.000976562, 0.000976562, 0.03125, 0.34082, -9.73145, 1.28.2022 18:11:55.801
408, 2.19048, 0.156826, 188.918, -0.000976562, -0.000976562, 0, -0.0703125, 0.415039, -9.67383, 1.28.2022 18:11:55.809
409, 2.19102, 0.149855, 188.919, -0.000976562, -0.00195312, 0, -0.0302734, 0.359375, -9.71582, 1.28.2022 18:11:55.817
410, 2.19102, 0.149855, 188.919, -0.000976562, -0.00195312, 0, -0.00195312, 0.349609, -9.7168, 1.28.2022 18:11:55.825
411, 2.19102, 0.149855, 188.919, -0.000976562, -0.000976562, 0, -0.0712891, 0.407227, -9.72559, 1.28.2022 18:11:55.833
412, 2.19102, 0.149855, 188.919, -0.000976562, -0.00195312, 0, 0.00585938, 0.361328, -9.69531, 1.28.2022 18:11:55.841
413, 2.19102, 0.149855, 188.919, -0.000976562, -0.000976562, 0.000976562, -0.0341797, 0.358398, -9.69238, 1.28.2022 18:11:55.849
414, 2.19102, 0.149855, 188.919, -0.000976562, 0.000976562, 0, -0.0664062, 0.374023, -9.72949, 1.28.2022 18:11:55.857
415, 2.19102, 0.149855, 188.919, -0.000976562, -0.000976562, 0.000976562, 0.00585938, 0.356445, -9.70508, 1.28.2022 18:11:55.865
416, 2.19102, 0.149855, 188.919, -0.000976562, -0.000976562, 0, -0.0966797, 0.383789, -9.72656, 1.28.2022 18:11:55.873
417, 2.19102, 0.149855, 188.919, -0.000976562, 0.000976562, 0, -0.0273438, 0.395508, -9.71777, 1.28.2022 18:11:55.881
418, 2.19102, 0.149855, 188.919, 0, -0.000976562, 0, -0.0224609, 0.371094, -9.70215, 1.28.2022 18:11:55.889
419, 2.19102, 0.149855, 188.919, 0, -0.000976562, 0, -0.0878906, 0.388672, -9.74707, 1.28.2022 18:11:55.897
420, 2.19048, 0.156826, 188.918, 0, -0.000976562, 0.000976562, 0.0263672, 0.369141, -9.72852, 1.28.2022 18:11:55.905
421, 2.19052, 0.156692, 188.911, 0, -0.000976562, 0, -0.0390625, 0.396484, -9.69629, 1.28.2022 18:11:55.913
422, 2.19052, 0.156692, 188.911, -0.000976562, -0.00195312, 0, -0.0419922, 0.384766, -9.70605, 1.28.2022 18:11:55.921
423, 2.19052, 0.156692, 188.911, -0.000976562, -0.00195312, -0.000976562, 0.0273438, 0.358398, -9.7002, 1.28.2022 18:11:55.929
424, 2.19048, 0.156826, 188.918, -0.000976562, 0.000976562, 0, -0.0761719, 0.384766, -9.75977, 1.28.2022 18:11:55.937
425, 2.19048, 0.156826, 188.918, -0.000976562, -0.000976562, 0, -0.0380859, 0.384766, -9.75586, 1.28.2022 18:11:55.945
426, 2.19748, 0.157236, 188.911, -0.000976562, -0.00195312, 0, 0, 0.352539, -9.74023, 1.28.2022 18:11:55.953
427, 2.19694, 0.164208, 188.911, -0.000976562, -0.000976562, 0.000976562, -0.0732422, 0.374023, -9.71973, 1.28.2022 18:11:55.961
428, 2.19694, 0.164208, 188.911, -0.000976562, -0.000976562, -0.000976562, -0.0185547, 0.341797, -9.70996, 1.28.2022 18:11:55.969
429, 2.19694, 0.164208, 188.911, -0.000976562, -0.000976562, 0.000976562, -0.0322266, 0.34668, -9.71191, 1.28.2022 18:11:55.977
430, 2.19694, 0.164208, 188.911, 0, 0.000976562, 0.000976562, -0.0439453, 0.370117, -9.69434, 1.28.2022 18:11:55.985
431, 2.19694, 0.164208, 188.911, -0.000976562, -0.000976562, 0.000976562, 0.0146484, 0.351562, -9.71973, 1.28.2022 18:11:55.993
432, 2.19694, 0.164208, 188.911, -0.000976562, -0.00195312, 0, -0.0478516, 0.384766, -9.7627, 1.28.2022 18:11:56.001
433, 2.19694, 0.164208, 188.911, 0, -0.00195312, 0, -0.00585938, 0.387695, -9.70605, 1.28.2022 18:11:56.009
434, 2.19694, 0.164208, 188.911, -0.000976562, -0.00195312, 0, -0.00390625, 0.354492, -9.70703, 1.28.2022 18:11:56.017
435, 2.1964, 0.17118, 188.911, -0.000976562, -0.00195312, 0, -0.0898438, 0.374023, -9.71973, 1.28.2022 18:11:56.025
436, 2.1964, 0.17118, 188.911, -0.00195312, -0.000976562, 0, 0.0322266, 0.37793, -9.7168, 1.28.2022 18:11:56.033
437, 2.1964, 0.17118, 188.911, 0, 0.000976562, 0, -0.015625, 0.371094, -9.70898, 1.28.2022 18:11:56.041
438, 2.1964, 0.17118, 188.911, 0, 0.000976562, 0, -0.046875, 0.395508, -9.72461, 1.28.2022 18:11:56.049
439, 2.1964, 0.17118, 188.911, -0.000976562, -0.000976562, 0.000976562, 0.0341797, 0.349609, -9.71484, 1.28.2022 18:11:56.057
440, 2.18943, 0.170636, 188.911, -0.000976562, -0.000976562, 0.000976562, -0.0634766, 0.382812, -9.70117, 1.28.2022 18:11:56.065
441, 2.18943, 0.170636, 188.911, -0.000976562, -0.00195312, 0, -0.0224609, 0.371094, -9.70898, 1.28.2022 18:11:56.073
442, 2.18943, 0.170636, 188.911, -0.000976562, -0.000976562, -0.000976562, -0.00683594, 0.374023, -9.72754, 1.28.2022 18:11:56.081
443, 2.18943, 0.170636, 188.911, -0.000976562, -0.000976562, -0.000976562, -0.0898438, 0.387695, -9.7002, 1.28.2022 18:11:56.089
444, 2.18943, 0.170636, 188.911, -0.000976562, -0.000976562, -0.000976562, -0.000976562, 0.333984, -9.68457, 1.28.2022 18:11:56.097
445, 2.18943, 0.170636, 188.911, 0, -0.000976562, -0.00195312, -0.0419922, 0.378906, -9.71973, 1.28.2022 18:11:56.105
446, 2.18943, 0.170636, 188.911, 0, -0.000976562, -0.000976562, -0.0664062, 0.350586, -9.73926, 1.28.2022 18:11:56.113
447, 2.18943, 0.170636, 188.911, 0, -0.000976562, -0.000976562, 0.0166016, 0.355469, -9.75684, 1.28.2022 18:11:56.121
448, 2.18943, 0.170636, 188.911, -0.000976562, 0, -0.000976562, -0.0751953, 0.375, -9.6748, 1.28.2022 18:11:56.129
449, 2.18943, 0.170636, 188.911, -0.00195312, 0, -0.00292969, -0.0419922, 0.371094, -9.72754, 1.28.2022 18:11:56.137
450, 2.18943, 0.170636, 188.911, -0.000976562, 0, -0.00195312, -0.0253906, 0.339844, -9.71191, 1.28.2022 18:11:56.145
451, 2.18943, 0.170636, 188.911, 0, 0.000976562, -0.000976562, -0.0820312, 0.386719, -9.66016, 1.28.2022 18:11:56.153
452, 2.18943, 0.170636, 188.911, 0, -0.000976562, -0.000976562, 0.0146484, 0.393555, -9.74609, 1.28.2022 18:11:56.161
453, 2.18943, 0.170636, 188.911, -0.000976562, 0, -0.000976562, -0.0517578, 0.358398, -9.69922, 1.28.2022 18:11:56.169
454, 2.18943, 0.170636, 188.911, -0.000976562, 0, -0.000976562, -0.0654297, 0.37793, -9.69336, 1.28.2022 18:11:56.177
455, 2.18939, 0.17077, 188.918, -0.000976562, 0.000976562, -0.000976562, 0.0244141, 0.333008, -9.73438, 1.28.2022 18:11:56.185
456, 2.18939, 0.17077, 188.918, 0, 0.000976562, -0.00195312, -0.0595703, 0.355469, -9.74121, 1.28.2022 18:11:56.193
457, 2.18243, 0.170226, 188.918, 0, 0, -0.00195312, 0.000976562, 0.344727, -9.72168, 1.28.2022 18:11:56.201
458, 2.18243, 0.170226, 188.918, -0.00195312, 0.000976562, -0.000976562, -0.00488281, 0.362305, -9.74707, 1.28.2022 18:11:56.209
459, 2.18243, 0.170226, 188.918, -0.000976562, 0, -0.000976562, -0.0537109, 0.382812, -9.69629, 1.28.2022 18:11:56.217
460, 2.18243, 0.170226, 188.918, 0.000976562, 0, 0, -0.000976562, 0.368164, -9.7041, 1.28.2022 18:11:56.225
461, 2.18243, 0.170226, 188.918, 0, 0, -0.000976562, -0.0302734, 0.389648, -9.69629, 1.28.2022 18:11:56.233
462, 2.18188, 0.177198, 188.918, -0.000976562, 0, -0.00195312, -0.0566406, 0.375977, -9.72461, 1.28.2022 18:11:56.241
463, 2.18188, 0.177198, 188.918, 0, 0, -0.000976562, 0.00292969, 0.342773, -9.71484, 1.28.2022 18:11:56.249
464, 2.17492, 0.176655, 188.918, 0, -0.000976562, -0.000976562, -0.0537109, 0.393555, -9.67188, 1.28.2022 18:11:56.257
465, 2.17492, 0.176655, 188.918, 0, 0, -0.000976562, -0.0439453, 0.363281, -9.68066, 1.28.2022 18:11:56.265
466, 2.17492, 0.176655, 188.918, -0.000976562, 0, -0.000976562, -0.015625, 0.348633, -9.67383, 1.28.2022 18:11:56.273
467, 2.17492, 0.176655, 188.918, 0, 0, -0.000976562, -0.0820312, 0.384766, -9.69336, 1.28.2022 18:11:56.281
468, 2.17492, 0.176655, 188.918, 0.000976562, -0.000976562, -0.000976562, -0.00390625, 0.365234, -9.69238, 1.28.2022 18:11:56.289
469, 2.17492, 0.176655, 188.918, -0.000976562, 0, -0.000976562, -0.0634766, 0.382812, -9.7168, 1.28.2022 18:11:56.297
470, 2.17492, 0.176655, 188.918, 0, 0, -0.00195312, -0.0507812, 0.389648, -9.68652, 1.28.2022 18:11:56.305
471, 2.17492, 0.176655, 188.918, 0, -0.000976562, -0.000976562, 0.0341797, 0.341797, -9.69141, 1.28.2022 18:11:56.313
472, 2.17492, 0.176655, 188.918, 0, 0, 0, -0.0654297, 0.373047, -9.69629, 1.28.2022 18:11:56.321
473, 2.17492, 0.176655, 188.918, -0.000976562, 0, 0, -0.015625, 0.378906, -9.72559, 1.28.2022 18:11:56.329
474, 2.17492, 0.176655, 188.918, -0.000976562, 0, 0, 0.015625, 0.348633, -9.69336, 1.28.2022 18:11:56.337
475, 2.17492, 0.176655, 188.918, -0.000976562, 0, 0.000976562, -0.0869141, 0.366211, -9.69336, 1.28.2022 18:11:56.345
476, 2.17492, 0.176655, 188.918, 0, -0.000976562, 0, 0.015625, 0.360352, -9.67383, 1.28.2022 18:11:56.353
477, 2.16795, 0.176111, 188.918, 0, 0, 0, -0.0322266, 0.375, -9.67285, 1.28.2022 18:11:56.361
478, 2.16795, 0.176111, 188.918, 0, 0, -0.000976562, -0.0615234, 0.374023, -9.71777, 1.28.2022 18:11:56.369
479, 2.16795, 0.176111, 188.918, -0.000976562, 0, -0.000976562, 0.015625, 0.365234, -9.69531, 1.28.2022 18:11:56.377
480, 2.16795, 0.176111, 188.918, -0.000976562, 0.000976562, -0.000976562, -0.0751953, 0.392578, -9.69531, 1.28.2022 18:11:56.385
481, 2.16795, 0.176111, 188.918, 0, 0.000976562, 0, -0.0439453, 0.368164, -9.70605, 1.28.2022 18:11:56.393
482, 2.16795, 0.176111, 188.918, -0.000976562, -0.000976562, 0, -0.00488281, 0.37207, -9.74219, 1.28.2022 18:11:56.401
483, 2.17492, 0.176655, 188.918, -0.000976562, 0, 0, -0.111328, 0.397461, -9.69727, 1.28.2022 18:11:56.409
484, 2.17492, 0.176655, 188.918, 0, 0, 0, -0.0273438, 0.381836, -9.68457, 1.28.2022 18:11:56.417
485, 2.17437, 0.183627, 188.918, -0.000976562, -0.000976562, 0.000976562, -0.0244141, 0.353516, -9.68359, 1.28.2022 18:11:56.425
486, 2.17437, 0.183627, 188.918, -0.000976562, 0, 0, -0.0527344, 0.405273, -9.66016, 1.28.2022 18:11:56.433
487, 2.17437, 0.183627, 188.918, -0.000976562, 0, -0.000976562, 0.0126953, 0.366211, -9.71387, 1.28.2022 18:11:56.441
488, 2.17437, 0.183627, 188.918, -0.000976562, -0.000976562, -0.000976562, -0.0683594, 0.395508, -9.72168, 1.28.2022 18:11:56.449
489, 2.17437, 0.183627, 188.918, -0.000976562, 0, -0.000976562, -0.0537109, 0.385742, -9.72461, 1.28.2022 18:11:56.457
490, 2.17437, 0.183627, 188.918, 0, 0.000976562, 0, 0.00488281, 0.342773, -9.73145, 1.28.2022 18:11:56.465
491, 2.18134, 0.18417, 188.918, -0.000976562, 0.000976562, 0, -0.0722656, 0.379883, -9.69141, 1.28.2022 18:11:56.473
492, 2.18134, 0.18417, 188.918, -0.000976562, 0.000976562, 0, -0.000976562, 0.356445, -9.69727, 1.28.2022 18:11:56.481
493, 2.18134, 0.18417, 188.918, 0, -0.000976562, 0, -0.0517578, 0.369141, -9.73633, 1.28.2022 18:11:56.489
494, 2.18134, 0.18417, 188.918, 0, 0, 0, -0.0732422, 0.375977, -9.71484, 1.28.2022 18:11:56.497
495, 2.18134, 0.18417, 188.918, -0.000976562, 0, 0, 0.0244141, 0.366211, -9.7168, 1.28.2022 18:11:56.505
496, 2.18134, 0.18417, 188.918, 0, 0, 0, -0.0537109, 0.378906, -9.71777, 1.28.2022 18:11:56.513
497, 2.18079, 0.191142, 188.918, -0.000976562, -0.000976562, 0.000976562, -0.0595703, 0.37207, -9.73145, 1.28.2022 18:11:56.521
498, 2.18079, 0.191142, 188.918, -0.000976562, 0, 0, -0.0126953, 0.353516, -9.69043, 1.28.2022 18:11:56.529
499, 2.18776, 0.191686, 188.918, 0, 0, 0, -0.0869141, 0.392578, -9.7168, 1.28.2022 18:11:56.537
500, 2.18776, 0.191686, 188.918, 0, -0.000976562, 0.000976562, 0.015625, 0.356445, -9.69824, 1.28.2022 18:11:56.545
501, 2.18776, 0.191686, 188.918, -0.000976562, -0.000976562, 0.000976562, -0.0107422, 0.373047, -9.70898, 1.28.2022 18:11:56.551
502, 2.18776, 0.191686, 188.918, 0, 0, 0, -0.0898438, 0.402344, -9.71582, 1.28.2022 18:11:56.559
503, 2.18776, 0.191686, 188.918, -0.000976562, 0.000976562, -0.000976562, 0.00585938, 0.354492, -9.72168, 1.28.2022 18:11:56.567
504, 2.18776, 0.191686, 188.918, -0.000976562, 0.00195312, 0, -0.0371094, 0.363281, -9.69922, 1.28.2022 18:11:56.575
505, 2.18776, 0.191686, 188.918, -0.000976562, 0, 0, -0.0205078, 0.379883, -9.70117, 1.28.2022 18:11:56.583
506, 2.18776, 0.191686, 188.918, -0.000976562, -0.00195312, 0, 0.0185547, 0.360352, -9.76855, 1.28.2022 18:11:56.593
507, 2.18776, 0.191686, 188.918, -0.000976562, 0, 0.000976562, -0.109375, 0.391602, -9.74023, 1.28.2022 18:11:56.599
508, 2.18776, 0.191686, 188.918, -0.000976562, 0, 0, -0.0322266, 0.385742, -9.71777, 1.28.2022 18:11:56.607
509, 2.18722, 0.198658, 188.918, -0.000976562, -0.00195312, 0, -0.00878906, 0.385742, -9.72559, 1.28.2022 18:11:56.615
510, 2.19418, 0.199202, 188.918, -0.000976562, 0, 0, -0.0517578, 0.369141, -9.71582, 1.28.2022 18:11:56.623
511, 2.19418, 0.199202, 188.918, -0.00195312, 0, -0.00195312, 0.000976562, 0.341797, -9.69336, 1.28.2022 18:11:56.631
512, 2.19418, 0.199202, 188.918, 0, 0, -0.00195312, -0.0341797, 0.381836, -9.67773, 1.28.2022 18:11:56.639
513, 2.19418, 0.199202, 188.918, -0.000976562, 0, 0, -0.0332031, 0.367188, -9.74609, 1.28.2022 18:11:56.647
514, 2.19418, 0.199202, 188.918, -0.000976562, 0, 0, 0.0322266, 0.354492, -9.7168, 1.28.2022 18:11:56.655
515, 2.19418, 0.199202, 188.918, -0.000976562, 0, -0.00195312, -0.0654297, 0.389648, -9.69824, 1.28.2022 18:11:56.663
516, 2.19473, 0.19223, 188.918, 0, 0, 0, -0.0253906, 0.378906, -9.7373, 1.28.2022 18:11:56.671
517, 2.19473, 0.19223, 188.918, -0.000976562, -0.00195312, 0, -0.0351562, 0.349609, -9.71875, 1.28.2022 18:11:56.679
518, 2.19473, 0.19223, 188.918, -0.000976562, 0, 0, -0.0380859, 0.383789, -9.74805, 1.28.2022 18:11:56.687
519, 2.19473, 0.19223, 188.918, 0, 0, 0, 0.0126953, 0.37793, -9.69922, 1.28.2022 18:11:56.695
520, 2.19473, 0.19223, 188.918, 0, 0.000976562, 0, -0.0371094, 0.373047, -9.70605, 1.28.2022 18:11:56.703
521, 2.19473, 0.19223, 188.918, 0, 0, 0.000976562, -0.046875, 0.364258, -9.7207, 1.28.2022 18:11:56.711
522, 2.19473, 0.19223, 188.918, -0.000976562, 0, 0, 0.0078125, 0.354492, -9.72852, 1.28.2022 18:11:56.719
523, 2.19473, 0.19223, 188.918, 0, -0.00195312, 0.000976562, -0.0732422, 0.392578, -9.69824, 1.28.2022 18:11:56.727
524, 2.19473, 0.19223, 188.918, -0.000976562, 0, 0, -0.0332031, 0.369141, -9.72559, 1.28.2022 18:11:56.735
525, 2.19473, 0.19223, 188.918, 0, 0.000976562, 0, -0.0253906, 0.359375, -9.72363, 1.28.2022 18:11:56.743
526, 2.19473, 0.19223, 188.918, -0.000976562, 0, 0.000976562, -0.0488281, 0.384766, -9.67285, 1.28.2022 18:11:56.751
527, 2.19473, 0.19223, 188.918, -0.000976562, 0, 0.000976562, 0.00488281, 0.376953, -9.74023, 1.28.2022 18:11:56.759
528, 2.19531, 0.185124, 188.911, -0.000976562, -0.00195312, 0.000976562, -0.0400391, 0.361328, -9.71094, 1.28.2022 18:11:56.767
529, 2.19531, 0.185124, 188.911, -0.000976562, 0, 0, -0.0488281, 0.392578, -9.69629, 1.28.2022 18:11:56.775
530, 2.19531, 0.185124, 188.911, -0.000976562, 0, 0, 0.0292969, 0.366211, -9.70703, 1.28.2022 18:11:56.783
531, 2.19531, 0.185124, 188.911, -0.000976562, 0, 0, -0.0585938, 0.367188, -9.72949, 1.28.2022 18:11:56.791
532, 2.19531, 0.185124, 188.911, 0, -0.00195312, 0, -0.015625, 0.373047, -9.71582, 1.28.2022 18:11:56.799
533, 2.19531, 0.185124, 188.911, -0.000976562, 0, -0.00195312, -0.0136719, 0.357422, -9.72559, 1.28.2022 18:11:56.807
534, 2.19531, 0.185124, 188.911, -0.000976562, 0, 0, -0.0732422, 0.378906, -9.74121, 1.28.2022 18:11:56.815
535, 2.19531, 0.185124, 188.911, -0.000976562, 0, 0, 0.000976562, 0.394531, -9.71094, 1.28.2022 18:11:56.823
536, 2.19531, 0.185124, 188.911, 0, 0, 0, -0.0429688, 0.379883, -9.75977, 1.28.2022 18:11:56.831
537, 2.19531, 0.185124, 188.911, 0, 0, 0, -0.0517578, 0.388672, -9.72656, 1.28.2022 18:11:56.839
538, 2.19531, 0.185124, 188.911, -0.000976562, 0, -0.000976562, 0.0410156, 0.357422, -9.73633, 1.28.2022 18:11:56.847
539, 2.19531, 0.185124, 188.911, -0.000976562, 0, -0.000976562, -0.0712891, 0.400391, -9.72363, 1.28.2022 18:11:56.855
540, 2.19586, 0.178152, 188.911, 0, 0, -0.000976562, -0.00390625, 0.371094, -9.71387, 1.28.2022 18:11:56.863
541, 2.19586, 0.178152, 188.911, -0.000976562, 0, -0.000976562, 0.0175781, 0.375977, -9.72852, 1.28.2022 18:11:56.871
542, 2.19586, 0.178152, 188.911, -0.000976562, 0, -0.000976562, -0.0546875, 0.381836, -9.73828, 1.28.2022 18:11:56.879
543, 2.19586, 0.178152, 188.911, 0, 0, -0.000976562, 0.0244141, 0.382812, -9.71875, 1.28.2022 18:11:56.887
544, 2.19586, 0.178152, 188.911, 0, 0, -0.000976562, -0.0419922, 0.359375, -9.71094, 1.28.2022 18:11:56.895
545, 2.19586, 0.178152, 188.911, -0.00195312, 0, -0.00195312, -0.0458984, 0.379883, -9.68652, 1.28.2022 18:11:56.903
546, 2.19581, 0.178286, 188.918, -0.000976562, 0, -0.00195312, 0.0126953, 0.352539, -9.72656, 1.28.2022 18:11:56.911
547, 2.19636, 0.171314, 188.918, -0.000976562, 0, -0.00195312, -0.0771484, 0.368164, -9.69141, 1.28.2022 18:11:56.919
548, 2.19636, 0.171314, 188.918, -0.000976562, 0, -0.00195312, 0.00585938, 0.373047, -9.68555, 1.28.2022 18:11:56.927
549, 2.19636, 0.171314, 188.918, 0, 0, -0.00195312, -0.00390625, 0.37793, -9.69434, 1.28.2022 18:11:56.935
550, 2.19636, 0.171314, 188.918, 0, 0.000976562, -0.000976562, -0.0683594, 0.382812, -9.71484, 1.28.2022 18:11:56.943
551, 2.19636, 0.171314, 188.918, 0, 0.000976562, 0.000976562, 0.0244141, 0.37207, -9.75, 1.28.2022 18:11:56.951
552, 2.1969, 0.164342, 188.918, -0.000976562, 0, -0.00195312, -0.0419922, 0.362305, -9.72266, 1.28.2022 18:11:56.959
553, 2.1969, 0.164342, 188.918, -0.000976562, -0.000976562, -0.000976562, -0.0332031, 0.365234, -9.75391, 1.28.2022 18:11:56.967
554, 2.1969, 0.164342, 188.918, -0.000976562, 0, -0.000976562, 0.0410156, 0.363281, -9.71191, 1.28.2022 18:11:56.975
555, 2.1969, 0.164342, 188.918, -0.000976562, 0, -0.000976562, -0.0849609, 0.385742, -9.7168, 1.28.2022 18:11:56.983
556, 2.1969, 0.164342, 188.918, 0, 0, -0.000976562, -0.0419922, 0.380859, -9.72754, 1.28.2022 18:11:56.991
557, 2.1969, 0.164342, 188.918, -0.000976562, 0, -0.000976562, 0.00878906, 0.34082, -9.67969, 1.28.2022 18:11:56.999
558, 2.19744, 0.15737, 188.918, -0.000976562, 0.000976562, 0.000976562, -0.0703125, 0.397461, -9.7002, 1.28.2022 18:11:57.007
559, 2.19744, 0.15737, 188.918, 0, 0, -0.000976562, -0.00878906, 0.37793, -9.69434, 1.28.2022 18:11:57.015
560, 2.19744, 0.15737, 188.918, -0.000976562, 0, -0.000976562, -0.00683594, 0.366211, -9.71875, 1.28.2022 18:11:57.023
561, 2.19744, 0.15737, 188.918, -0.00195312, 0, -0.000976562, -0.0322266, 0.392578, -9.71777, 1.28.2022 18:11:57.031
562, 2.19744, 0.15737, 188.918, -0.000976562, 0, -0.000976562, 0.0224609, 0.344727, -9.71973, 1.28.2022 18:11:57.039
563, 2.19744, 0.15737, 188.918, -0.000976562, 0, -0.000976562, -0.0488281, 0.421875, -9.7207, 1.28.2022 18:11:57.047
564, 2.19744, 0.15737, 188.918, -0.000976562, 0, -0.000976562, -0.0273438, 0.382812, -9.69434, 1.28.2022 18:11:57.055
565, 2.19744, 0.15737, 188.918, -0.000976562, 0, -0.000976562, -0.0185547, 0.359375, -9.72559, 1.28.2022 18:11:57.063
566, 2.19799, 0.150398, 188.919, -0.000976562, 0, -0.000976562, -0.0927734, 0.408203, -9.73926, 1.28.2022 18:11:57.071
567, 2.20495, 0.150942, 188.919, -0.000976562, 0, 0.000976562, 0.00976562, 0.390625, -9.74219, 1.28.2022 18:11:57.079
568, 2.20495, 0.150942, 188.919, 0, 0, -0.00195312, -0.0341797, 0.368164, -9.69238, 1.28.2022 18:11:57.087
569, 2.20495, 0.150942, 188.919, -0.000976562, -0.00292969, -0.000976562, -0.0820312, 0.373047, -9.67969, 1.28.2022 18:11:57.095
570, 2.20495, 0.150942, 188.919, 0, -0.00195312, 0, 0.0126953, 0.371094, -9.71191, 1.28.2022 18:11:57.103
571, 2.20495, 0.150942, 188.919, -0.000976562, 0, -0.000976562, -0.0517578, 0.37793, -9.70312, 1.28.2022 18:11:57.111
572, 2.20495, 0.150942, 188.919, -0.000976562, 0, 0, -0.0224609, 0.370117, -9.68555, 1.28.2022 18:11:57.119
573, 2.20495, 0.150942, 188.919, -0.000976562, -0.00195312, 0, -0.00878906, 0.366211, -9.70215, 1.28.2022 18:11:57.127
574, 2.20441, 0.157914, 188.918, -0.000976562, 0, 0, -0.0830078, 0.391602, -9.75488, 1.28.2022 18:11:57.135
575, 2.20441, 0.157914, 188.918, -0.000976562, 0, -0.000976562, 0.000976562, 0.370117, -9.69043, 1.28.2022 18:11:57.143
576, 2.20441, 0.157914, 188.918, -0.000976562, 0, 0, -0.0332031, 0.365234, -9.74414, 1.28.2022 18:11:57.151
577, 2.20441, 0.157914, 188.918, -0.000976562, 0.000976562, 0, -0.0703125, 0.387695, -9.69824, 1.28.2022 18:11:57.159
578, 2.21137, 0.158458, 188.918, -0.000976562, -0.00195312, 0, 0.0292969, 0.371094, -9.70215, 1.28.2022 18:11:57.167
579, 2.21137, 0.158458, 188.918, 0, 0, 0, -0.0751953, 0.352539, -9.71777, 1.28.2022 18:11:57.175
580, 2.21137, 0.158458, 188.918, 0, 0, 0, -0.0234375, 0.378906, -9.74902, 1.28.2022 18:11:57.183
581, 2.21137, 0.158458, 188.918, -0.000976562, 0, 0, 0.0126953, 0.352539, -9.73535, 1.28.2022 18:11:57.191
582, 2.21137, 0.158458, 188.918, -0.000976562, 0, 0, -0.0849609, 0.378906, -9.72656, 1.28.2022 18:11:57.199
583, 2.21137, 0.158458, 188.918, 0, -0.00195312, 0.000976562, -0.0126953, 0.370117, -9.69043, 1.28.2022 18:11:57.207
584, 2.21137, 0.158458, 188.918, 0, 0, 0, -0.0185547, 0.375977, -9.7207, 1.28.2022 18:11:57.215
585, 2.21137, 0.158458, 188.918, -0.000976562, 0, 0.000976562, -0.078125, 0.385742, -9.7334, 1.28.2022 18:11:57.223
586, 2.21083, 0.16543, 188.918, -0.000976562, -0.00195312, 0, 0.0195312, 0.37207, -9.74707, 1.28.2022 18:11:57.231
587, 2.21083, 0.16543, 188.918, -0.000976562, 0, 0, -0.046875, 0.375977, -9.72754, 1.28.2022 18:11:57.239
588, 2.21083, 0.16543, 188.918, 0, 0, 0, -0.0273438, 0.392578, -9.71777, 1.28.2022 18:11:57.247
589, 2.21083, 0.16543, 188.918, 0, 0, 0, -0.00292969, 0.360352, -9.77051, 1.28.2022 18:11:57.255
590, 2.21083, 0.16543, 188.918, -0.00195312, -0.00195312, 0.000976562, -0.0820312, 0.375, -9.6748, 1.28.2022 18:11:57.263
591, 2.21083, 0.16543, 188.918, -0.000976562, 0, 0, 0, 0.365234, -9.75391, 1.28.2022 18:11:57.271
592, 2.21083, 0.16543, 188.918, -0.000976562, 0, 0, -0.0351562, 0.371094, -9.71289, 1.28.2022 18:11:57.279
593, 2.21083, 0.16543, 188.918, 0, 0, 0, -0.0371094, 0.399414, -9.70996, 1.28.2022 18:11:57.287
594, 2.21083, 0.16543, 188.918, 0, 0, 0, 0.0478516, 0.365234, -9.76465, 1.28.2022 18:11:57.295
595, 2.21083, 0.16543, 188.918, -0.000976562, 0, 0, -0.0449219, 0.362305, -9.72266, 1.28.2022 18:11:57.303
596, 2.20387, 0.164886, 188.918, -0.000976562, 0.000976562, -0.000976562, -0.0751953, 0.353516, -9.68262, 1.28.2022 18:11:57.311
597, 2.20387, 0.164886, 188.918, -0.000976562, 0.000976562, 0, -0.00390625, 0.339844, -9.72656, 1.28.2022 18:11:57.319
598, 2.20387, 0.164886, 188.918, -0.000976562, 0.000976562, 0, -0.0947266, 0.401367, -9.74902, 1.28.2022 18:11:57.327
599, 2.20387, 0.164886, 188.918, -0.000976562, 0, 0, -0.0136719, 0.390625, -9.71777, 1.28.2022 18:11:57.335
600, 2.20387, 0.164886, 188.918, -0.00195312, 0, -0.000976562, -0.0195312, 0.365234, -9.66406, 1.28.2022 18:11:57.343
601, 2.20332, 0.171858, 188.918, -0.000976562, 0, 0, -0.0566406, 0.397461, -9.72656, 1.28.2022 18:11:57.351
602, 2.20332, 0.171858, 188.918, 0, 0.000976562, -0.000976562, 0.0341797, 0.366211, -9.71973, 1.28.2022 18:11:57.359
603, 2.20332, 0.171858, 188.918, 0, 0, -0.00195312, -0.0439453, 0.370117, -9.6875, 1.28.2022 18:11:57.367
604, 2.20332, 0.171858, 188.918, 0, 0.000976562, 0, -0.0537109, 0.392578, -9.71191, 1.28.2022 18:11:57.375
605, 2.20332, 0.171858, 188.918, -0.000976562, -0.000976562, 0.000976562, -0.00683594, 0.358398, -9.75879, 1.28.2022 18:11:57.383
606, 2.20332, 0.171858, 188.918, 0, -0.00195312, 0, -0.078125, 0.407227, -9.73047, 1.28.2022 18:11:57.391
607, 2.20332, 0.171858, 188.918, 0.000976562, 0, -0.00195312, 0.00292969, 0.381836, -9.74902, 1.28.2022 18:11:57.399
608, 2.20332, 0.171858, 188.918, 0, 0, -0.00195312, -0.00878906, 0.363281, -9.70215, 1.28.2022 18:11:57.407
609, 2.20332, 0.171858, 188.918, 0, -0.000976562, 0, -0.0839844, 0.411133, -9.67871, 1.28.2022 18:11:57.415
610, 2.20332, 0.171858, 188.918, 0, -0.000976562, 0.000976562, 0.015625, 0.334961, -9.70117, 1.28.2022 18:11:57.423
611, 2.20332, 0.171858, 188.918, 0.000976562, 0.000976562, 0, -0.0527344, 0.353516, -9.7793, 1.28.2022 18:11:57.431
612, 2.20332, 0.171858, 188.918, 0, 0.000976562, 0, -0.0214844, 0.376953, -9.74609, 1.28.2022 18:11:57.439
613, 2.20332, 0.171858, 188.918, 0, 0.000976562, 0, -0.000976562, 0.336914, -9.70312, 1.28.2022 18:11:57.447
614, 2.20332, 0.171858, 188.918, -0.000976562, 0, -0.00195312, -0.0634766, 0.371094, -9.70117, 1.28.2022 18:11:57.455
615, 2.20332, 0.171858, 188.918, 0, 0, -0.00195312, -0.0332031, 0.388672, -9.74121, 1.28.2022 18:11:57.463
616, 2.20332, 0.171858, 188.918, 0, -0.000976562, 0, -0.046875, 0.34375, -9.69043, 1.28.2022 18:11:57.471
617, 2.20332, 0.171858, 188.918, -0.000976562, -0.000976562, 0, -0.0732422, 0.382812, -9.71191, 1.28.2022 18:11:57.479
618, 2.19636, 0.171314, 188.918, -0.000976562, 0.000976562, 0, 0.0224609, 0.361328, -9.72363, 1.28.2022 18:11:57.487
619, 2.19636, 0.171314, 188.918, 0, -0.000976562, 0, -0.0410156, 0.391602, -9.66504, 1.28.2022 18:11:57.495
620, 2.19636, 0.171314, 188.918, 0, -0.000976562, 0, -0.0517578, 0.391602, -9.75, 1.28.2022 18:11:57.503
621, 2.19636, 0.171314, 188.918, -0.000976562, -0.00195312, 0, -0.00195312, 0.388672, -9.74414, 1.28.2022 18:11:57.509
622, 2.19636, 0.171314, 188.918, 0, -0.00195312, 0, -0.0927734, 0.400391, -9.74414, 1.28.2022 18:11:57.517
623, 2.19581, 0.178286, 188.918, -0.000976562, -0.00195312, 0, 0.000976562, 0.355469, -9.68359, 1.28.2022 18:11:57.525
624, 2.19581, 0.178286, 188.918, -0.000976562, -0.000976562, 0, -0.00195312, 0.350586, -9.74316, 1.28.2022 18:11:57.533
625, 2.19581, 0.178286, 188.918, 0, 0.000976562, 0, -0.0566406, 0.405273, -9.71875, 1.28.2022 18:11:57.541
626, 2.19581, 0.178286, 188.918, -0.000976562, -0.000976562, 0.000976562, 0.00390625, 0.356445, -9.69531, 1.28.2022 18:11:57.549
627, 2.19581, 0.178286, 188.918, 0, -0.000976562, 0, -0.0517578, 0.365234, -9.74414, 1.28.2022 18:11:57.557
628, 2.19581, 0.178286, 188.918, -0.000976562, 0, -0.00195312, -0.0419922, 0.385742, -9.72266, 1.28.2022 18:11:57.565
629, 2.19581, 0.178286, 188.918, -0.000976562, -0.00195312, 0, -0.00488281, 0.355469, -9.74512, 1.28.2022 18:11:57.573
630, 2.19581, 0.178286, 188.918, -0.000976562, -0.000976562, 0, -0.0849609, 0.387695, -9.7168, 1.28.2022 18:11:57.581
631, 2.19581, 0.178286, 188.918, -0.000976562, -0.00195312, 0, -0.0332031, 0.398438, -9.74316, 1.28.2022 18:11:57.589
632, 2.19581, 0.178286, 188.918, -0.000976562, -0.000976562, 0, -0.0166016, 0.367188, -9.74902, 1.28.2022 18:11:57.597
633, 2.19581, 0.178286, 188.918, 0, -0.00195312, -0.00195312, -0.0605469, 0.397461, -9.70703, 1.28.2022 18:11:57.605
634, 2.19527, 0.185258, 188.918, -0.000976562, -0.00195312, 0, 0.0078125, 0.353516, -9.7002, 1.28.2022 18:11:57.613
635, 2.20224, 0.185802, 188.918, -0.000976562, 0, 0, -0.0419922, 0.374023, -9.73242, 1.28.2022 18:11:57.621
636, 2.20224, 0.185802, 188.918, -0.000976562, 0, 0, -0.0449219, 0.398438, -9.75, 1.28.2022 18:11:57.629
637, 2.20224, 0.185802, 188.918, -0.000976562, 0, -0.000976562, 0.0292969, 0.364258, -9.72852, 1.28.2022 18:11:57.637
638, 2.20224, 0.185802, 188.918, -0.000976562, 0, 0, -0.0869141, 0.381836, -9.67676, 1.28.2022 18:11:57.645
639, 2.20224, 0.185802, 188.918, -0.000976562, 0, -0.000976562, -0.0234375, 0.387695, -9.71289, 1.28.2022 18:11:57.653
640, 2.20224, 0.185802, 188.918, -0.00195312, 0, 0, -0.0136719, 0.352539, -9.74023, 1.28.2022 18:11:57.661
641, 2.20224, 0.185802, 188.918, -0.000976562, 0, 0, -0.0566406, 0.385742, -9.72461, 1.28.2022 18:11:57.669
642, 2.20224, 0.185802, 188.918, -0.000976562, -0.00195312, 0, 0.0107422, 0.370117, -9.68359, 1.28.2022 18:11:57.677
643, 2.20224, 0.185802, 188.918, -0.000976562, 0, 0, -0.0224609, 0.370117, -9.6875, 1.28.2022 18:11:57.685
644, 2.2092, 0.186346, 188.918, -0.000976562, -0.00195312, 0, -0.0683594, 0.385742, -9.72852, 1.28.2022 18:11:57.693
645, 2.2092, 0.186346, 188.918, 0, 0, -0.000976562, 0.0292969, 0.367188, -9.74512, 1.28.2022 18:11:57.701
646, 2.2092, 0.186346, 188.918, 0, 0, 0, -0.078125, 0.378906, -9.72168, 1.28.2022 18:11:57.709
647, 2.2092, 0.186346, 188.918, 0, 0, 0, -0.0322266, 0.361328, -9.69922, 1.28.2022 18:11:57.717
648, 2.2092, 0.186346, 188.918, 0, -0.00195312, 0.000976562, -0.0185547, 0.371094, -9.7207, 1.28.2022 18:11:57.725
649, 2.2092, 0.186346, 188.918, 0, 0, 0, -0.0751953, 0.380859, -9.70996, 1.28.2022 18:11:57.733
650, 2.2092, 0.186346, 188.918, 0, 0, 0, 0.0341797, 0.356445, -9.72461, 1.28.2022 18:11:57.741
651, 2.2092, 0.186346, 188.918, 0, 0, 0.000976562, -0.0615234, 0.374023, -9.71973, 1.28.2022 18:11:57.749
652, 2.2092, 0.186346, 188.918, -0.000976562, 0, 0.000976562, -0.046875, 0.371094, -9.72461, 1.28.2022 18:11:57.757
653, 2.2092, 0.186346, 188.918, -0.00195312, 0.000976562, 0, -0.00585938, 0.353516, -9.68848, 1.28.2022 18:11:57.765
654, 2.2092, 0.186346, 188.918, -0.000976562, 0, 0, -0.078125, 0.396484, -9.75684, 1.28.2022 18:11:57.773
655, 2.2092, 0.186346, 188.918, -0.000976562, 0.000976562, 0.000976562, -0.0107422, 0.382812, -9.72266, 1.28.2022 18:11:57.781
656, 2.2092, 0.186346, 188.918, -0.000976562, 0, 0, -0.0136719, 0.361328, -9.70703, 1.28.2022 18:11:57.789
657, 2.2092, 0.186346, 188.918, 0, 0, 0, -0.0517578, 0.380859, -9.72461, 1.28.2022 18:11:57.797
658, 2.2092, 0.186346, 188.918, 0, 0.000976562, -0.000976562, 0.000976562, 0.347656, -9.72852, 1.28.2022 18:11:57.805
659, 2.2092, 0.186346, 188.918, -0.000976562, 0, 0, -0.0566406, 0.347656, -9.73047, 1.28.2022 18:11:57.813
660, 2.2092, 0.186346, 188.918, -0.000976562, 0, 0, -0.0605469, 0.404297, -9.7002, 1.28.2022 18:11:57.821
661, 2.2092, 0.186346, 188.918, 0, 0, -0.000976562, 0.0195312, 0.349609, -9.70801, 1.28.2022 18:11:57.829
662, 2.2092, 0.186346, 188.918, -0.000976562, 0, 0, -0.0654297, 0.391602, -9.68652, 1.28.2022 18:11:57.837
663, 2.2092, 0.186346, 188.918, -0.000976562, -0.00195312, 0, -0.0380859, 0.367188, -9.73242, 1.28.2022 18:11:57.845
664, 2.2092, 0.186346, 188.918, -0.000976562, 0, 0, 0.0224609, 0.369141, -9.71875, 1.28.2022 18:11:57.853
665, 2.2092, 0.186346, 188.918, -0.00195312, 0, 0, -0.0605469, 0.401367, -9.67676, 1.28.2022 18:11:57.861
666, 2.2092, 0.186346, 188.918, 0, 0, 0, -0.00683594, 0.366211, -9.72852, 1.28.2022 18:11:57.869
667, 2.2092, 0.186346, 188.918, -0.000976562, 0, 0, -0.0507812, 0.362305, -9.67285, 1.28.2022 18:11:57.877
668, 2.20224, 0.185802, 188.918, -0.000976562, -0.00195312, -0.000976562, -0.0322266, 0.382812, -9.70312, 1.28.2022 18:11:57.885
669, 2.2092, 0.186346, 188.918, -0.00195312, 0.000976562, -0.000976562, 0.0175781, 0.380859, -9.71875, 1.28.2022 18:11:57.893
670, 2.2092, 0.186346, 188.918, -0.000976562, 0.000976562, 0, -0.0605469, 0.373047, -9.69629, 1.28.2022 18:11:57.901
671, 2.20224, 0.185802, 188.918, 0, 0, 0.000976562, -0.00195312, 0.349609, -9.70996, 1.28.2022 18:11:57.909
672, 2.20224, 0.185802, 188.918, -0.000976562, 0, 0, 0.0107422, 0.350586, -9.68652, 1.28.2022 18:11:57.917
673, 2.20224, 0.185802, 188.918, -0.000976562, 0, 0, -0.078125, 0.390625, -9.73047, 1.28.2022 18:11:57.925
674, 2.20278, 0.17883, 188.918, 0, 0.000976562, -0.00195312, -0.000976562, 0.366211, -9.7041, 1.28.2022 18:11:57.933
675, 2.20278, 0.17883, 188.918, 0, 0.000976562, -0.00195312, -0.0185547, 0.390625, -9.71582, 1.28.2022 18:11:57.941
676, 2.20278, 0.17883, 188.918, -0.000976562, 0, 0, -0.0585938, 0.388672, -9.72852, 1.28.2022 18:11:57.949
677, 2.20278, 0.17883, 188.918, -0.000976562, 0, 0, 0.0146484, 0.357422, -9.72363, 1.28.2022 18:11:57.957
678, 2.20278, 0.17883, 188.918, 0, 0, 0, -0.0654297, 0.389648, -9.69141, 1.28.2022 18:11:57.965
679, 2.20278, 0.17883, 188.918, 0, 0, 0, -0.0283203, 0.395508, -9.72656, 1.28.2022 18:11:57.973
680, 2.20278, 0.17883, 188.918, -0.000976562, -0.00195312, -0.000976562, -0.00585938, 0.34082, -9.66699, 1.28.2022 18:11:57.981
681, 2.20278, 0.17883, 188.918, -0.000976562, -0.00195312, -0.000976562, -0.0986328, 0.392578, -9.70215, 1.28.2022 18:11:57.989
682, 2.20278, 0.17883, 188.918, 0, 0, 0, -0.0078125, 0.376953, -9.6709, 1.28.2022 18:11:57.997
683, 2.20278, 0.17883, 188.918, 0, -0.00195312, -0.000976562, -0.0371094, 0.380859, -9.71777, 1.28.2022 18:11:58.005
684, 2.20278, 0.17883, 188.918, 0, 0, 0, -0.0566406, 0.404297, -9.71484, 1.28.2022 18:11:58.013
685, 2.20278, 0.17883, 188.918, -0.000976562, 0, 0, 0.00878906, 0.348633, -9.68164, 1.28.2022 18:11:58.021
686, 2.20278, 0.17883, 188.918, -0.000976562, -0.00195312, -0.000976562, -0.0791016, 0.383789, -9.66309, 1.28.2022 18:11:58.029
687, 2.20278, 0.17883, 188.918, -0.000976562, -0.00195312, -0.00195312, -0.00585938, 0.37793, -9.71582, 1.28.2022 18:11:58.037
688, 2.20278, 0.17883, 188.918, 0, 0.000976562, 0, -0.00683594, 0.366211, -9.7207, 1.28.2022 18:11:58.045
689, 2.20278, 0.17883, 188.918, -0.000976562, 0.000976562, 0, -0.0732422, 0.378906, -9.74512, 1.28.2022 18:11:58.053
690, 2.20278, 0.17883, 188.918, -0.000976562, -0.00195312, -0.000976562, -0.00585938, 0.349609, -9.70996, 1.28.2022 18:11:58.061
691, 2.20278, 0.17883, 188.918, -0.000976562, 0, -0.00195312, -0.015625, 0.361328, -9.70898, 1.28.2022 18:11:58.069
692, 2.20278, 0.17883, 188.918, -0.000976562, 0, -0.00195312, -0.0537109, 0.380859, -9.70312, 1.28.2022 18:11:58.077
693, 2.20278, 0.17883, 188.918, -0.000976562, 0, -0.00195312, 0.0175781, 0.368164, -9.69727, 1.28.2022 18:11:58.085
694, 2.20278, 0.17883, 188.918, 0, 0, 0, -0.0683594, 0.400391, -9.73828, 1.28.2022 18:11:58.093
695, 2.20278, 0.17883, 188.918, -0.000976562, 0, 0, -0.0234375, 0.395508, -9.73926, 1.28.2022 18:11:58.101
696, 2.20278, 0.17883, 188.918, 0, 0, -0.00195312, 0.0117188, 0.355469, -9.75977, 1.28.2022 18:11:58.109
697, 2.20278, 0.17883, 188.918, 0.000976562, 0.000976562, -0.00195312, -0.0751953, 0.387695, -9.70312, 1.28.2022 18:11:58.117
698, 2.20278, 0.17883, 188.918, 0, -0.000976562, 0, -0.0117188, 0.362305, -9.73047, 1.28.2022 18:11:58.125
699, 2.20278, 0.17883, 188.918, 0, -0.00195312, 0, -0.0283203, 0.390625, -9.72656, 1.28.2022 18:11:58.133
700, 2.20278, 0.17883, 188.918, 0, -0.000976562, 0, -0.0761719, 0.396484, -9.74707, 1.28.2022 18:11:58.141
701, 2.20278, 0.17883, 188.918, 0, -0.000976562, 0.000976562, 0.0214844, 0.354492, -9.73828, 1.28.2022 18:11:58.149
702, 2.20278, 0.17883, 188.918, -0.000976562, -0.00195312, 0, -0.0371094, 0.382812, -9.69141, 1.28.2022 18:11:58.157
703, 2.20278, 0.17883, 188.918, -0.000976562, -0.000976562, 0, -0.0126953, 0.370117, -9.68555, 1.28.2022 18:11:58.165
704, 2.20278, 0.17883, 188.918, 0, -0.00195312, 0, -0.0107422, 0.359375, -9.71191, 1.28.2022 18:11:58.173
705, 2.20278, 0.17883, 188.918, -0.000976562, -0.000976562, 0, -0.0732422, 0.390625, -9.73535, 1.28.2022 18:11:58.181
706, 2.20278, 0.17883, 188.918, -0.000976562, -0.00195312, 0, 0.00390625, 0.373047, -9.6875, 1.28.2022 18:11:58.189
707, 2.20974, 0.179374, 188.918, -0.000976562, -0.00195312, 0.000976562, -0.0302734, 0.368164, -9.70605, 1.28.2022 18:11:58.197
708, 2.20974, 0.179374, 188.918, -0.00195312, -0.000976562, 0, -0.0703125, 0.380859, -9.70312, 1.28.2022 18:11:58.205
709, 2.20974, 0.179374, 188.918, -0.000976562, 0, -0.000976562, 0.0126953, 0.351562, -9.70703, 1.28.2022 18:11:58.213
710, 2.20974, 0.179374, 188.918, -0.000976562, -0.000976562, 0, -0.0488281, 0.370117, -9.6875, 1.28.2022 18:11:58.221
711, 2.20974, 0.179374, 188.918, -0.000976562, -0.000976562, 0, -0.0517578, 0.374023, -9.71484, 1.28.2022 18:11:58.229
712, 2.20974, 0.179374, 188.918, -0.000976562, -0.000976562, 0, 0.0146484, 0.369141, -9.72363, 1.28.2022 18:11:58.237
713, 2.20974, 0.179374, 188.918, -0.000976562, -0.000976562, 0, -0.0654297, 0.394531, -9.70703, 1.28.2022 18:11:58.245
714, 2.20974, 0.179374, 188.918, -0.000976562, -0.000976562, 0, 0.000976562, 0.334961, -9.69141, 1.28.2022 18:11:58.253
715, 2.20974, 0.179374, 188.918, 0, -0.000976562, 0, -0.0419922, 0.333008, -9.72559, 1.28.2022 18:11:58.261
716, 2.20974, 0.179374, 188.918, 0, -0.000976562, 0, -0.0800781, 0.390625, -9.71875, 1.28.2022 18:11:58.269
717, 2.20974, 0.179374, 188.918, -0.000976562, -0.000976562, 0, 0.0166016, 0.383789, -9.74902, 1.28.2022 18:11:58.277
718, 2.20974, 0.179374, 188.918, -0.000976562, 0, -0.000976562, -0.0371094, 0.379883, -9.70117, 1.28.2022 18:11:58.285
719, 2.20974, 0.179374, 188.918, -0.000976562, -0.00195312, 0, -0.0322266, 0.361328, -9.70215, 1.28.2022 18:11:58.293
720, 2.20278, 0.17883, 188.918, -0.000976562, -0.000976562, 0, -0.00390625, 0.347656, -9.72363, 1.28.2022 18:11:58.301
721, 2.20278, 0.17883, 188.918, 0, 0.000976562, 0, -0.0517578, 0.398438, -9.73145, 1.28.2022 18:11:58.309
722, 2.20278, 0.17883, 188.918, 0, -0.000976562, 0, 0.0205078, 0.401367, -9.68945, 1.28.2022 18:11:58.317
723, 2.20278, 0.17883, 188.918, 0, 0.000976562, -0.000976562, 0.00683594, 0.367188, -9.66699, 1.28.2022 18:11:58.325
724, 2.20278, 0.17883, 188.918, 0, -0.000976562, 0.000976562, -0.106445, 0.402344, -9.71875, 1.28.2022 18:11:58.333
725, 2.20332, 0.171858, 188.918, -0.000976562, -0.000976562, 0, 0.0253906, 0.370117, -9.68359, 1.28.2022 18:11:58.341
726, 2.20332, 0.171858, 188.918, 0, -0.000976562, 0, -0.0507812, 0.382812, -9.69141, 1.28.2022 18:11:58.349
727, 2.20332, 0.171858, 188.918, -0.000976562, 0, -0.000976562, -0.0205078, 0.407227, -9.71484, 1.28.2022 18:11:58.357
728, 2.20332, 0.171858, 188.918, 0, 0, -0.000976562, 0.0244141, 0.363281, -9.71191, 1.28.2022 18:11:58.365
729, 2.20332, 0.171858, 188.918, 0, 0, -0.000976562, -0.0634766, 0.392578, -9.70801, 1.28.2022 18:11:58.373
730, 2.20332, 0.171858, 188.918, 0, 0, 0, -0.0322266, 0.385742, -9.72461, 1.28.2022 18:11:58.381
731, 2.20332, 0.171858, 188.918, 0, 0, 0, -0.0205078, 0.354492, -9.7168, 1.28.2022 18:11:58.389
732, 2.20332, 0.171858, 188.918, 0, -0.000976562, -0.00195312, -0.0380859, 0.385742, -9.73633, 1.28.2022 18:11:58.397
733, 2.20332, 0.171858, 188.918, -0.000976562, 0, 0, 0.0244141, 0.361328, -9.72168, 1.28.2022 18:11:58.405
734, 2.20332, 0.171858, 188.918, -0.000976562, 0, 0, -0.0683594, 0.374023, -9.71289, 1.28.2022 18:11:58.413
735, 2.20332, 0.171858, 188.918, 0, 0, 0, -0.0263672, 0.388672, -9.75098, 1.28.2022 18:11:58.421
736, 2.20387, 0.164886, 188.918, -0.000976562, 0, 0, 0.00585938, 0.369141, -9.7168, 1.28.2022 18:11:58.429
737, 2.20387, 0.164886, 188.918, 0, -0.000976562, 0, -0.0947266, 0.416992, -9.71582, 1.28.2022 18:11:58.437
738, 2.21083, 0.16543, 188.918, -0.000976562, 0, 0, -0.00488281, 0.365234, -9.74707, 1.28.2022 18:11:58.445
739, 2.21083, 0.16543, 188.918, -0.000976562, 0, 0, -0.00878906, 0.366211, -9.70898, 1.28.2022 18:11:58.453
740, 2.21083, 0.16543, 188.918, -0.000976562, 0, -0.000976562, -0.0595703, 0.40332, -9.74023, 1.28.2022 18:11:58.461
741, 2.21083, 0.16543, 188.918, -0.000976562, -0.000976562, -0.00195312, 0.0175781, 0.375, -9.69727, 1.28.2022 18:11:58.469
742, 2.21083, 0.16543, 188.918, -0.000976562, 0, -0.000976562, -0.046875, 0.371094, -9.72266, 1.28.2022 18:11:58.475
743, 2.21083, 0.16543, 188.918, -0.000976562, 0, 0, -0.0302734, 0.356445, -9.69531, 1.28.2022 18:11:58.483
744, 2.21083, 0.16543, 188.918, 0, 0, 0, 0.0273438, 0.349609, -9.70508, 1.28.2022 18:11:58.491
745, 2.21083, 0.16543, 188.918, -0.000976562, -0.000976562, 0, -0.0800781, 0.382812, -9.69141, 1.28.2022 18:11:58.499
746, 2.21083, 0.16543, 188.918, -0.000976562, 0, 0, -0.0117188, 0.380859, -9.7373, 1.28.2022 18:11:58.507
747, 2.21083, 0.16543, 188.918, 0, 0, 0, 0.00390625, 0.351562, -9.7002, 1.28.2022 18:11:58.515
748, 2.21083, 0.16543, 188.918, 0, -0.000976562, 0.000976562, -0.0947266, 0.395508, -9.72363, 1.28.2022 18:11:58.523
749, 2.21083, 0.16543, 188.918, 0, -0.000976562, 0, 0.0126953, 0.374023, -9.73047, 1.28.2022 18:11:58.531
750, 2.21083, 0.16543, 188.918, 0, 0, 0, -0.0439453, 0.363281, -9.68066, 1.28.2022 18:11:58.539
751, 2.21083, 0.16543, 188.918, 0, -0.000976562, 0.000976562, -0.0703125, 0.385742, -9.7168, 1.28.2022 18:11:58.547
752, 2.21083, 0.16543, 188.918, -0.000976562, 0, 0.000976562, 0.0078125, 0.362305, -9.74023, 1.28.2022 18:11:58.555
753, 2.21083, 0.16543, 188.918, -0.000976562, 0, 0, -0.0703125, 0.368164, -9.70605, 1.28.2022 18:11:58.563
754, 2.21083, 0.16543, 188.918, -0.00195312, 0, -0.000976562, 0.00585938, 0.371094, -9.71875, 1.28.2022 18:11:58.571
755, 2.21083, 0.16543, 188.918, -0.000976562, 0, 0, 0.000976562, 0.349609, -9.72363, 1.28.2022 18:11:58.579
756, 2.21083, 0.16543, 188.918, -0.000976562, 0, 0.000976562, -0.0703125, 0.373047, -9.68164, 1.28.2022 18:11:58.587
757, 2.21083, 0.16543, 188.918, -0.000976562, 0, -0.000976562, 0.000976562, 0.375, -9.69043, 1.28.2022 18:11:58.595
758, 2.21083, 0.16543, 188.918, -0.000976562, 0, -0.000976562, -0.0371094, 0.363281, -9.69922, 1.28.2022 18:11:58.603
759, 2.21083, 0.16543, 188.918, 0, 0, -0.000976562, -0.0175781, 0.386719, -9.66113, 1.28.2022 18:11:58.611
760, 2.21083, 0.16543, 188.918, -0.000976562, 0, 0, 0.0195312, 0.333008, -9.73926, 1.28.2022 18:11:58.619
761, 2.21083, 0.16543, 188.918, -0.000976562, -0.000976562, -0.00195312, -0.0595703, 0.393555, -9.73828, 1.28.2022 18:11:58.627
762, 2.21083, 0.16543, 188.918, 0, -0.000976562, -0.000976562, -0.0166016, 0.369141, -9.74219, 1.28.2022 18:11:58.635
763, 2.21083, 0.16543, 188.918, 0, 0, -0.000976562, -0.00683594, 0.352539, -9.73535, 1.28.2022 18:11:58.643
764, 2.21083, 0.16543, 188.918, -0.000976562, 0, 0, -0.0898438, 0.387695, -9.71387, 1.28.2022 18:11:58.651
765, 2.21083, 0.16543, 188.918, -0.000976562, 0, 0, 0.00488281, 0.375977, -9.73535, 1.28.2022 18:11:58.659
766, 2.20387, 0.164886, 188.918, 0, 0, 0, -0.046875, 0.387695, -9.69824, 1.28.2022 18:11:58.667
767, 2.20387, 0.164886, 188.918, 0, 0.000976562, 0, -0.0322266, 0.37793, -9.70605, 1.28.2022 18:11:58.675
768, 2.20441, 0.157914, 188.918, -0.000976562, 0.000976562, 0, 0.0224609, 0.349609, -9.70996, 1.28.2022 18:11:58.683
769, 2.20441, 0.157914, 188.918, -0.000976562, 0, -0.000976562, -0.0927734, 0.398438, -9.73047, 1.28.2022 18:11:58.691
770, 2.20441, 0.157914, 188.918, 0, 0, 0, -0.00390625, 0.367188, -9.7373, 1.28.2022 18:11:58.699
771, 2.20441, 0.157914, 188.918, 0, 0, 0, 0, 0.352539, -9.73535, 1.28.2022 18:11:58.707
772, 2.20441, 0.157914, 188.918, -0.000976562, 0, 0, -0.0654297, 0.373047, -9.68164, 1.28.2022 18:11:58.715
773, 2.20441, 0.157914, 188.918, -0.000976562, 0, 0, 0.0273438, 0.369141, -9.72363, 1.28.2022 18:11:58.723
774, 2.20441, 0.157914, 188.918, 0, 0, 0, -0.00585938, 0.348633, -9.69531, 1.28.2022 18:11:58.731
775, 2.20441, 0.157914, 188.918, 0, 0, 0, -0.0605469, 0.394531, -9.7002, 1.28.2022 18:11:58.739
776, 2.19744, 0.15737, 188.918, 0, 0.000976562, 0.000976562, 0.0273438, 0.365234, -9.67871, 1.28.2022 18:11:58.747
777, 2.19744, 0.15737, 188.918, 0, 0, 0, -0.0888672, 0.396484, -9.69043, 1.28.2022 18:11:58.755
778, 2.19744, 0.15737, 188.918, -0.000976562, 0, 0, -0.0136719, 0.359375, -9.72559, 1.28.2022 18:11:58.763
779, 2.19744, 0.15737, 188.918, 0, 0.000976562, 0, -0.0166016, 0.352539, -9.7334, 1.28.2022 18:11:58.771
780, 2.19744, 0.15737, 188.918, 0, 0, 0, -0.0986328, 0.387695, -9.70215, 1.28.2022 18:11:58.779
781, 2.19744, 0.15737, 188.918, 0, 0.000976562, 0, -0.00195312, 0.352539, -9.72363, 1.28.2022 18:11:58.787
782, 2.19744, 0.15737, 188.918, 0, -0.000976562, 0, -0.0488281, 0.344727, -9.71191, 1.28.2022 18:11:58.795
783, 2.19744, 0.15737, 188.918, 0, 0, 0, -0.0439453, 0.37793, -9.69922, 1.28.2022 18:11:58.803
784, 2.19048, 0.156826, 188.918, 0, 0, -0.000976562, 0.0292969, 0.349609, -9.72461, 1.28.2022 18:11:58.811
785, 2.19048, 0.156826, 188.918, 0, 0, -0.000976562, -0.0634766, 0.392578, -9.7168, 1.28.2022 18:11:58.819
786, 2.19048, 0.156826, 188.918, 0, 0.000976562, -0.000976562, -0.0664062, 0.378906, -9.71973, 1.28.2022 18:11:58.827
787, 2.19048, 0.156826, 188.918, -0.000976562, 0, 0, 0.000976562, 0.368164, -9.71191, 1.28.2022 18:11:58.835
788, 2.19048, 0.156826, 188.918, -0.000976562, -0.000976562, -0.000976562, -0.116211, 0.416992, -9.70801, 1.28.2022 18:11:58.843
789, 2.19048, 0.156826, 188.918, 0, 0, -0.000976562, 0.0146484, 0.366211, -9.72559, 1.28.2022 18:11:58.851
790, 2.19048, 0.156826, 188.918, 0, 0.000976562, 0, -0.0273438, 0.366211, -9.71582, 1.28.2022 18:11:58.859
791, 2.19048, 0.156826, 188.918, -0.000976562, 0.000976562, 0, -0.0351562, 0.416992, -9.73535, 1.28.2022 18:11:58.867
792, 2.19048, 0.156826, 188.918, 0, 0, -0.000976562, 0.000976562, 0.336914, -9.68164, 1.28.2022 18:11:58.875
793, 2.19048, 0.156826, 188.918, -0.000976562, 0, 0, -0.0595703, 0.393555, -9.73633, 1.28.2022 18:11:58.883
794, 2.18993, 0.163798, 188.918, -0.000976562, 0, 0, -0.0302734, 0.371094, -9.72559, 1.28.2022 18:11:58.891
795, 2.18993, 0.163798, 188.918, -0.000976562, -0.000976562, 0, 0.00390625, 0.356445, -9.69824, 1.28.2022 18:11:58.899
796, 2.18993, 0.163798, 188.918, -0.000976562, 0, 0, -0.0966797, 0.375977, -9.71191, 1.28.2022 18:11:58.907
797, 2.18993, 0.163798, 188.918, 0, -0.000976562, 0, 0.015625, 0.34668, -9.70801, 1.28.2022 18:11:58.915
798, 2.18993, 0.163798, 188.918, 0, -0.000976562, 0, -0.0302734, 0.366211, -9.71777, 1.28.2022 18:11:58.923
799, 2.18993, 0.163798, 188.918, 0, -0.00195312, 0, -0.0488281, 0.399414, -9.7002, 1.28.2022 18:11:58.931
800, 2.18993, 0.163798, 188.918, -0.000976562, -0.00195312, 0, 0.00878906, 0.37793, -9.69043, 1.28.2022 18:11:58.939
801, 2.18993, 0.163798, 188.918, -0.000976562, -0.00195312, -0.000976562, -0.046875, 0.397461, -9.72656, 1.28.2022 18:11:58.947
802, 2.18939, 0.17077, 188.918, -0.000976562, -0.000976562, 0, -0.0205078, 0.348633, -9.68555, 1.28.2022 18:11:58.955
803, 2.18939, 0.17077, 188.918, -0.000976562, -0.000976562, 0, -0.0205078, 0.335938, -9.72656, 1.28.2022 18:11:58.963
804, 2.18939, 0.17077, 188.918, 0.000976562, -0.000976562, 0, -0.0488281, 0.382812, -9.69824, 1.28.2022 18:11:58.971
805, 2.18939, 0.17077, 188.918, 0, -0.000976562, 0, 0.0224609, 0.364258, -9.7168, 1.28.2022 18:11:58.979
806, 2.18939, 0.17077, 188.918, 0, -0.000976562, 0, -0.0205078, 0.374023, -9.72559, 1.28.2022 18:11:58.987
807, 2.18939, 0.17077, 188.918, 0, -0.000976562, 0.000976562, -0.0458984, 0.396484, -9.68848, 1.28.2022 18:11:58.995
808, 2.18939, 0.17077, 188.918, -0.000976562, 0, 0.000976562, 0.000976562, 0.389648, -9.70898, 1.28.2022 18:11:59.003
809, 2.18939, 0.17077, 188.918, -0.00195312, -0.000976562, 0, -0.0820312, 0.375, -9.68164, 1.28.2022 18:11:59.011
810, 2.19636, 0.171314, 188.918, -0.000976562, -0.000976562, 0.000976562, -0.0322266, 0.390625, -9.70996, 1.28.2022 18:11:59.019
811, 2.19636, 0.171314, 188.918, 0, -0.000976562, 0.000976562, -0.00390625, 0.389648, -9.69238, 1.28.2022 18:11:59.027
812, 2.19636, 0.171314, 188.918, 0, -0.000976562, 0, -0.0898438, 0.394531, -9.69727, 1.28.2022 18:11:59.035
813, 2.19636, 0.171314, 188.918, -0.000976562, -0.000976562, 0, -0.0166016, 0.371094, -9.73047, 1.28.2022 18:11:59.043
814, 2.19636, 0.171314, 188.918, -0.000976562, -0.000976562, 0, -0.0332031, 0.357422, -9.74219, 1.28.2022 18:11:59.051
815, 2.19636, 0.171314, 188.918, -0.000976562, 0, 0, -0.0517578, 0.392578, -9.71289, 1.28.2022 18:11:59.059
816, 2.19636, 0.171314, 188.918, -0.000976562, -0.000976562, 0, 0.0078125, 0.364258, -9.71387, 1.28.2022 18:11:59.067
817, 2.19636, 0.171314, 188.918, 0, -0.00195312, 0, -0.0732422, 0.380859, -9.7168, 1.28.2022 18:11:59.075
818, 2.20332, 0.171858, 188.918, 0, -0.000976562, 0, -0.046875, 0.387695, -9.69824, 1.28.2022 18:11:59.083
819, 2.20332, 0.171858, 188.918, -0.000976562, -0.000976562, -0.000976562, 0.0273438, 0.375977, -9.7168, 1.28.2022 18:11:59.091
820, 2.20332, 0.171858, 188.918, -0.00195312, -0.000976562, 0, -0.046875, 0.374023, -9.72266, 1.28.2022 18:11:59.099
821, 2.20332, 0.171858, 188.918, -0.000976562, -0.000976562, 0, 0.0146484, 0.359375, -9.73047, 1.28.2022 18:11:59.107
822, 2.20332, 0.171858, 188.918, -0.000976562, -0.000976562, 0, -0.0234375, 0.369141, -9.71582, 1.28.2022 18:11:59.115
823, 2.20336, 0.171723, 188.911, 0, -0.000976562, 0.000976562, -0.0654297, 0.380859, -9.70312, 1.28.2022 18:11:59.123
824, 2.20336, 0.171723, 188.911, -0.000976562, -0.000976562, 0, 0.0244141, 0.361328, -9.71484, 1.28.2022 18:11:59.131
825, 2.20336, 0.171723, 188.911, 0, -0.000976562, 0, -0.046875, 0.360352, -9.6875, 1.28.2022 18:11:59.139
826, 2.20336, 0.171723, 188.911, 0, 0, -0.000976562, -0.0419922, 0.380859, -9.73145, 1.28.2022 18:11:59.147
827, 2.20336, 0.171723, 188.911, 0, 0, -0.00195312, -0.00390625, 0.378906, -9.72754, 1.28.2022 18:11:59.155
828, 2.20332, 0.171858, 188.918, -0.000976562, 0, -0.00195312, -0.0878906, 0.402344, -9.73047, 1.28.2022 18:11:59.163
829, 2.21029, 0.172402, 188.918, -0.000976562, -0.00195312, -0.00195312, -0.0224609, 0.373047, -9.70898, 1.28.2022 18:11:59.171
830, 2.21029, 0.172402, 188.918, 0, 0, -0.000976562, -0.0488281, 0.373047, -9.71094, 1.28.2022 18:11:59.179
831, 2.21029, 0.172402, 188.918, -0.000976562, 0, -0.000976562, -0.0439453, 0.379883, -9.66992, 1.28.2022 18:11:59.187
832, 2.20974, 0.179374, 188.918, -0.000976562, 0, -0.000976562, 0.0205078, 0.379883, -9.68555, 1.28.2022 18:11:59.195
833, 2.20974, 0.179374, 188.918, -0.000976562, 0, -0.000976562, -0.0488281, 0.368164, -9.69434, 1.28.2022 18:11:59.203
834, 2.20974, 0.179374, 188.918, -0.000976562, 0, -0.000976562, -0.0351562, 0.381836, -9.73633, 1.28.2022 18:11:59.211
835, 2.20974, 0.179374, 188.918, 0, 0, -0.00195312, 0.0126953, 0.374023, -9.74219, 1.28.2022 18:11:59.219
836, 2.20974, 0.179374, 188.918, 0, 0, -0.000976562, -0.0849609, 0.385742, -9.70703, 1.28.2022 18:11:59.227
837, 2.20974, 0.179374, 188.918, -0.000976562, 0, 0.000976562, 0.0175781, 0.359375, -9.71875, 1.28.2022 18:11:59.235
838, 2.20974, 0.179374, 188.918, 0, 0, -0.000976562, -0.0136719, 0.358398, -9.70215, 1.28.2022 18:11:59.243
839, 2.20974, 0.179374, 188.918, 0, -0.00195312, -0.000976562, -0.0517578, 0.378906, -9.73438, 1.28.2022 18:11:59.251
840, 2.20974, 0.179374, 188.918, 0, 0, -0.000976562, 0.0361328, 0.349609, -9.71289, 1.28.2022 18:11:59.259
841, 2.20974, 0.179374, 188.918, -0.000976562, -0.00195312, -0.00195312, -0.0400391, 0.381836, -9.73926, 1.28.2022 18:11:59.267
842, 2.21029, 0.172402, 188.918, -0.000976562, 0, -0.000976562, -0.0449219, 0.400391, -9.74023, 1.28.2022 18:11:59.275
843, 2.21029, 0.172402, 188.918, -0.000976562, 0, -0.000976562, 0.0175781, 0.375977, -9.72363, 1.28.2022 18:11:59.283
844, 2.21029, 0.172402, 188.918, -0.000976562, 0, -0.000976562, -0.0820312, 0.392578, -9.69336, 1.28.2022 18:11:59.291
845, 2.21029, 0.172402, 188.918, 0, -0.00195312, -0.000976562, -0.00878906, 0.366211, -9.71387, 1.28.2022 18:11:59.299
846, 2.21029, 0.172402, 188.918, -0.000976562, 0, -0.000976562, -0.0253906, 0.328125, -9.71973, 1.28.2022 18:11:59.307
847, 2.21029, 0.172402, 188.918, -0.000976562, 0, -0.00195312, -0.0634766, 0.380859, -9.71973, 1.28.2022 18:11:59.315
848, 2.21029, 0.172402, 188.918, 0, 0, -0.000976562, 0.0224609, 0.365234, -9.68848, 1.28.2022 18:11:59.323
849, 2.21029, 0.172402, 188.918, -0.000976562, 0, -0.000976562, -0.0517578, 0.366211, -9.70605, 1.28.2022 18:11:59.331
850, 2.21029, 0.172402, 188.918, -0.000976562, 0, -0.000976562, -0.0371094, 0.397461, -9.72461, 1.28.2022 18:11:59.339
851, 2.21029, 0.172402, 188.918, -0.000976562, 0, -0.000976562, 0.0126953, 0.351562, -9.70508, 1.28.2022 18:11:59.347
852, 2.21029, 0.172402, 188.918, 0, 0, -0.000976562, -0.0751953, 0.395508, -9.71387, 1.28.2022 18:11:59.355
853, 2.21029, 0.172402, 188.918, -0.000976562, 0.000976562, -0.000976562, -0.0234375, 0.383789, -9.72266, 1.28.2022 18:11:59.363
854, 2.21029, 0.172402, 188.918, -0.000976562, 0, -0.00195312, -0.0332031, 0.345703, -9.74512, 1.28.2022 18:11:59.371
855, 2.21029, 0.172402, 188.918, -0.000976562, 0.000976562, -0.00195312, -0.0585938, 0.397461, -9.72363, 1.28.2022 18:11:59.379
856, 2.21083, 0.16543, 188.918, -0.000976562, 0, -0.000976562, 0.0146484, 0.366211, -9.72168, 1.28.2022 18:11:59.387
857, 2.21083, 0.16543, 188.918, -0.00195312, 0, -0.000976562, -0.046875, 0.368164, -9.68945, 1.28.2022 18:11:59.395
858, 2.21083, 0.16543, 188.918, -0.000976562, 0, 0, -0.0419922, 0.351562, -9.6875, 1.28.2022 18:11:59.403
859, 2.21083, 0.16543, 188.918, -0.000976562, 0, 0, 0.00390625, 0.351562, -9.7002, 1.28.2022 18:11:59.411
860, 2.21083, 0.16543, 188.918, -0.000976562, 0, -0.000976562, -0.106445, 0.369141, -9.7168, 1.28.2022 18:11:59.419
861, 2.21083, 0.16543, 188.918, 0, 0, -0.000976562, -0.0205078, 0.368164, -9.70605, 1.28.2022 18:11:59.427
862, 2.20332, 0.171858, 188.918, 0, -0.00195312, -0.000976562, -0.0234375, 0.339844, -9.71387, 1.28.2022 18:11:59.435
863, 2.20332, 0.171858, 188.918, -0.000976562, 0, 0, -0.0771484, 0.384766, -9.7002, 1.28.2022 18:11:59.443
864, 2.20332, 0.171858, 188.918, -0.00195312, 0, 0, 0.046875, 0.353516, -9.69629, 1.28.2022 18:11:59.451
865, 2.20332, 0.171858, 188.918, -0.000976562, 0, 0, -0.0234375, 0.355469, -9.7373, 1.28.2022 18:11:59.457
866, 2.20332, 0.171858, 188.918, -0.000976562, 0, -0.000976562, -0.0488281, 0.395508, -9.71484, 1.28.2022 18:11:59.465
867, 2.20332, 0.171858, 188.918, 0, 0, 0, 0.00292969, 0.361328, -9.71875, 1.28.2022 18:11:59.473
868, 2.20332, 0.171858, 188.918, 0, 0.000976562, 0.000976562, -0.0283203, 0.375977, -9.72266, 1.28.2022 18:11:59.481
869, 2.19636, 0.171314, 188.918, 0, 0.000976562, 0, -0.00390625, 0.371094, -9.71387, 1.28.2022 18:11:59.489
870, 2.19636, 0.171314, 188.918, -0.000976562, 0.000976562, 0.000976562, -0.00683594, 0.380859, -9.7373, 1.28.2022 18:11:59.497
871, 2.19636, 0.171314, 188.918, -0.000976562, -0.00195312, -0.000976562, -0.0537109, 0.389648, -9.70312, 1.28.2022 18:11:59.505
872, 2.19636, 0.171314, 188.918, -0.000976562, 0, -0.000976562, 0.0341797, 0.353516, -9.70312, 1.28.2022 18:11:59.513
873, 2.19636, 0.171314, 188.918, -0.000976562, 0, -0.000976562, -0.0498047, 0.362305, -9.74902, 1.28.2022 18:11:59.521
874, 2.1969, 0.164342, 188.918, -0.000976562, 0, 0, -0.0585938, 0.37793, -9.69336, 1.28.2022 18:11:59.529
875, 2.1969, 0.164342, 188.918, -0.000976562, 0, 0, -0.00585938, 0.356445, -9.70703, 1.28.2022 18:11:59.537
876, 2.1969, 0.164342, 188.918, -0.00195312, 0, 0, -0.0927734, 0.412109, -9.73242, 1.28.2022 18:11:59.545
877, 2.1969, 0.164342, 188.918, -0.000976562, 0.000976562, 0, -0.0175781, 0.387695, -9.7041, 1.28.2022 18:11:59.553
878, 2.1969, 0.164342, 188.918, -0.000976562, 0, 0, -0.000976562, 0.34375, -9.67871, 1.28.2022 18:11:59.561
879, 2.1969, 0.164342, 188.918, -0.000976562, 0, 0, -0.0703125, 0.393555, -9.67188, 1.28.2022 18:11:59.569
880, 2.1969, 0.164342, 188.918, -0.000976562, 0, -0.000976562, 0.0175781, 0.374023, -9.72852, 1.28.2022 18:11:59.577
881, 2.1969, 0.164342, 188.918, -0.00195312, 0, -0.000976562, -0.0429688, 0.357422, -9.75098, 1.28.2022 18:11:59.585
882, 2.1969, 0.164342, 188.918, -0.000976562, -0.00195312, -0.000976562, -0.0546875, 0.396484, -9.77148, 1.28.2022 18:11:59.593
883, 2.1969, 0.164342, 188.918, 0, 0, 0, -0.00683594, 0.342773, -9.72363, 1.28.2022 18:11:59.601
884, 2.1969, 0.164342, 188.918, -0.000976562, 0, 0, -0.0683594, 0.382812, -9.70508, 1.28.2022 18:11:59.609
885, 2.1969, 0.164342, 188.918, 0, 0.000976562, -0.000976562, -0.0126953, 0.379883, -9.6875, 1.28.2022 18:11:59.617
886, 2.1969, 0.164342, 188.918, -0.000976562, 0.000976562, -0.000976562, -0.0107422, 0.359375, -9.71875, 1.28.2022 18:11:59.625
887, 2.1969, 0.164342, 188.918, -0.000976562, 0, 0, -0.0986328, 0.387695, -9.69531, 1.28.2022 18:11:59.633
888, 2.1969, 0.164342, 188.918, 0, 0.000976562, -0.000976562, 0.0292969, 0.371094, -9.70215, 1.28.2022 18:11:59.641
889, 2.1969, 0.164342, 188.918, 0, 0.000976562, 0, -0.0537109, 0.371094, -9.72461, 1.28.2022 18:11:59.649
890, 2.1969, 0.164342, 188.918, -0.000976562, 0, 0, -0.0634766, 0.380859, -9.7334, 1.28.2022 18:11:59.657
891, 2.1969, 0.164342, 188.918, -0.000976562, -0.000976562, 0, 0.0195312, 0.362305, -9.74023, 1.28.2022 18:11:59.665
892, 2.1969, 0.164342, 188.918, -0.000976562, -0.000976562, 0.000976562, -0.0683594, 0.385742, -9.7334, 1.28.2022 18:11:59.673
893, 2.1969, 0.164342, 188.918, -0.000976562, -0.00195312, 0, -0.0537109, 0.366211, -9.69141, 1.28.2022 18:11:59.681
894, 2.19636, 0.171314, 188.918, -0.000976562, -0.000976562, 0, -0.0195312, 0.360352, -9.67578, 1.28.2022 18:11:59.689
895, 2.19636, 0.171314, 188.918, -0.000976562, -0.000976562, 0, -0.0673828, 0.386719, -9.68359, 1.28.2022 18:11:59.697
896, 2.19636, 0.171314, 188.918, -0.000976562, -0.00195312, 0, 0.0166016, 0.369141, -9.74219, 1.28.2022 18:11:59.705
897, 2.19636, 0.171314, 188.918, 0, -0.000976562, -0.000976562, -0.0419922, 0.383789, -9.72461, 1.28.2022 18:11:59.713
898, 2.19636, 0.171314, 188.918, 0, -0.00195312, -0.000976562, -0.0498047, 0.390625, -9.7334, 1.28.2022 18:11:59.721
899, 2.19636, 0.171314, 188.918, -0.000976562, -0.00195312, 0, 0.0126953, 0.358398, -9.70215, 1.28.2022 18:11:59.729
900, 2.19636, 0.171314, 188.918, -0.000976562, -0.000976562, 0, -0.0800781, 0.374023, -9.71484, 1.28.2022 18:11:59.737
901, 2.19581, 0.178286, 188.918, -0.000976562, -0.000976562, 0, -0.0351562, 0.375977, -9.70117, 1.28.2022 18:11:59.745
902, 2.19581, 0.178286, 188.918, -0.000976562, -0.000976562, 0, -0.0253906, 0.366211, -9.71094, 1.28.2022 18:11:59.753
903, 2.19581, 0.178286, 188.918, -0.000976562, -0.000976562, 0, -0.103516, 0.375, -9.67871, 1.28.2022 18:11:59.761
904, 2.19581, 0.178286, 188.918, -0.000976562, -0.000976562, 0.000976562, -0.00878906, 0.34668, -9.70703, 1.28.2022 18:11:59.769
905, 2.19581, 0.178286, 188.918, -0.000976562, -0.000976562, 0, -0.0351562, 0.369141, -9.7207, 1.28.2022 18:11:59.777
906, 2.19581, 0.178286, 188.918, -0.000976562, -0.000976562, 0, -0.0517578, 0.378906, -9.71777, 1.28.2022 18:11:59.785
907, 2.19527, 0.185258, 188.918, -0.00195312, -0.000976562, 0, 0.03125, 0.357422, -9.73828, 1.28.2022 18:11:59.793
908, 2.19527, 0.185258, 188.918, 0, 0, 0, -0.0732422, 0.395508, -9.71484, 1.28.2022 18:11:59.801
909, 2.19527, 0.185258, 188.918, -0.00195312, -0.000976562, 0, -0.0253906, 0.383789, -9.73242, 1.28.2022 18:11:59.809
910, 2.19527, 0.185258, 188.918, -0.000976562, -0.00195312, 0, -0.0136719, 0.354492, -9.71191, 1.28.2022 18:11:59.817
911, 2.19527, 0.185258, 188.918, -0.000976562, 0, 0, -0.0771484, 0.414062, -9.7041, 1.28.2022 18:11:59.825
912, 2.19527, 0.185258, 188.918, 0, -0.000976562, 0, 0.0195312, 0.378906, -9.72559, 1.28.2022 18:11:59.833
913, 2.19527, 0.185258, 188.918, 0, -0.00195312, -0.000976562, -0.0439453, 0.349609, -9.70215, 1.28.2022 18:11:59.841
914, 2.19473, 0.19223, 188.918, 0, -0.00195312, 0, -0.0703125, 0.394531, -9.70508, 1.28.2022 18:11:59.849
915, 2.19473, 0.19223, 188.918, -0.000976562, -0.000976562, 0.000976562, 0.0205078, 0.358398, -9.67871, 1.28.2022 18:11:59.857
916, 2.19473, 0.19223, 188.918, -0.000976562, -0.000976562, 0, -0.0839844, 0.378906, -9.66504, 1.28.2022 18:11:59.865
917, 2.19473, 0.19223, 188.918, -0.000976562, -0.000976562, 0.000976562, -0.0517578, 0.369141, -9.72266, 1.28.2022 18:11:59.873
918, 2.19473, 0.19223, 188.918, 0, -0.00195312, -0.000976562, -0.0078125, 0.348633, -9.68164, 1.28.2022 18:11:59.881
919, 2.19473, 0.19223, 188.918, -0.00195312, -0.00195312, -0.000976562, -0.0751953, 0.399414, -9.69043, 1.28.2022 18:11:59.889
920, 2.20169, 0.192774, 188.918, -0.00195312, -0.00195312, -0.000976562, 0.0419922, 0.379883, -9.68164, 1.28.2022 18:11:59.897
921, 2.20115, 0.199746, 188.918, 0, -0.000976562, 0.000976562, -0.0390625, 0.365234, -9.68262, 1.28.2022 18:11:59.905
922, 2.20115, 0.199746, 188.918, 0, 0, 0, -0.0517578, 0.397461, -9.69824, 1.28.2022 18:11:59.913
923, 2.20115, 0.199746, 188.918, -0.000976562, -0.000976562, -0.00195312, 0.03125, 0.364258, -9.73145, 1.28.2022 18:11:59.921
924, 2.20115, 0.199746, 188.918, -0.000976562, 0, -0.00195312, -0.0830078, 0.387695, -9.71484, 1.28.2022 18:11:59.929
925, 2.20115, 0.199746, 188.918, 0, 0, 0, -0.0322266, 0.37793, -9.69434, 1.28.2022 18:11:59.937
926, 2.20115, 0.199746, 188.918, -0.000976562, 0, 0.000976562, -0.00976562, 0.362305, -9.75195, 1.28.2022 18:11:59.945
927, 2.20115, 0.199746, 188.918, -0.000976562, 0, 0.000976562, -0.0703125, 0.394531, -9.69824, 1.28.2022 18:11:59.953
928, 2.20115, 0.199746, 188.918, 0, 0.000976562, -0.00195312, 0.0126953, 0.384766, -9.70898, 1.28.2022 18:11:59.961
929, 2.20169, 0.192774, 188.918, -0.000976562, 0.000976562, 0, -0.00683594, 0.393555, -9.73438, 1.28.2022 18:11:59.969
930, 2.20169, 0.192774, 188.918, -0.000976562, 0, 0, -0.0566406, 0.380859, -9.70996, 1.28.2022 18:11:59.977
931, 2.20169, 0.192774, 188.918, -0.000976562, 0, 0.000976562, 0.0273438, 0.355469, -9.67676, 1.28.2022 18:11:59.985
932, 2.20169, 0.192774, 188.918, -0.000976562, 0, -0.00195312, -0.0419922, 0.356445, -9.70215, 1.28.2022 18:11:59.993
933, 2.20169, 0.192774, 188.918, -0.000976562, 0, -0.00195312, -0.046875, 0.37793, -9.70605, 1.28.2022 18:12:0.001
934, 2.20169, 0.192774, 188.918, -0.000976562, 0, 0, 0.00488281, 0.349609, -9.7334, 1.28.2022 18:12:0.009
935, 2.20866, 0.193318, 188.918, -0.00195312, 0, -0.00195312, -0.0732422, 0.388672, -9.73145, 1.28.2022 18:12:0.017
936, 2.20866, 0.193318, 188.918, -0.000976562, -0.000976562, 0, -0.00878906, 0.380859, -9.72754, 1.28.2022 18:12:0.025
937, 2.20866, 0.193318, 188.918, -0.000976562, 0, 0, -0.0253906, 0.356445, -9.70703, 1.28.2022 18:12:0.033
938, 2.2092, 0.186346, 188.918, 0, 0, -0.00195312, -0.0605469, 0.397461, -9.69824, 1.28.2022 18:12:0.041
939, 2.2092, 0.186346, 188.918, 0, -0.000976562, -0.00195312, 0.0107422, 0.358398, -9.70508, 1.28.2022 18:12:0.049
940, 2.2092, 0.186346, 188.918, 0, 0, 0, -0.0615234, 0.383789, -9.74512, 1.28.2022 18:12:0.057
941, 2.2092, 0.186346, 188.918, 0, -0.000976562, -0.000976562, -0.0419922, 0.373047, -9.70605, 1.28.2022 18:12:0.065
942, 2.2092, 0.186346, 188.918, 0, 0, 0, -0.03125, 0.365234, -9.75879, 1.28.2022 18:12:0.073
943, 2.2092, 0.186346, 188.918, -0.000976562, -0.000976562, 0, -0.0996094, 0.376953, -9.73145, 1.28.2022 18:12:0.081
944, 2.2092, 0.186346, 188.918, -0.00195312, 0, 0, 0.0224609, 0.361328, -9.72656, 1.28.2022 18:12:0.089
945, 2.2092, 0.186346, 188.918, -0.000976562, 0.000976562, 0, -0.0234375, 0.359375, -9.72754, 1.28.2022 18:12:0.097
946, 2.2092, 0.186346, 188.918, -0.000976562, 0.000976562, -0.00195312, -0.0810547, 0.386719, -9.74023, 1.28.2022 18:12:0.105
947, 2.2092, 0.186346, 188.918, 0, 0.000976562, 0, 0.0185547, 0.365234, -9.66992, 1.28.2022 18:12:0.113
948, 2.2092, 0.186346, 188.918, -0.000976562, 0, -0.00195312, -0.0605469, 0.387695, -9.70801, 1.28.2022 18:12:0.121
949, 2.2092, 0.186346, 188.918, -0.000976562, -0.000976562, 0, -0.0634766, 0.378906, -9.73145, 1.28.2022 18:12:0.129
950, 2.20224, 0.185802, 188.918, -0.000976562, -0.00195312, -0.00195312, 0.0214844, 0.341797, -9.77148, 1.28.2022 18:12:0.137
951, 2.20224, 0.185802, 188.918, 0, 0, 0, -0.0878906, 0.392578, -9.72168, 1.28.2022 18:12:0.145
952, 2.20224, 0.185802, 188.918, 0, 0, 0, -0.00683594, 0.378906, -9.73242, 1.28.2022 18:12:0.153
953, 2.20224, 0.185802, 188.918, -0.000976562, -0.000976562, 0, -0.0126953, 0.370117, -9.69238, 1.28.2022 18:12:0.161
954, 2.20224, 0.185802, 188.918, 0, 0, 0, -0.0771484, 0.386719, -9.66699, 1.28.2022 18:12:0.169
955, 2.20224, 0.185802, 188.918, 0, -0.000976562, 0, 0.0078125, 0.347656, -9.7168, 1.28.2022 18:12:0.177
956, 2.20224, 0.185802, 188.918, -0.000976562, 0, -0.000976562, -0.0546875, 0.376953, -9.75977, 1.28.2022 18:12:0.185
957, 2.20224, 0.185802, 188.918, -0.000976562, 0, 0, -0.0517578, 0.408203, -9.74316, 1.28.2022 18:12:0.193
958, 2.20224, 0.185802, 188.918, -0.000976562, 0, 0, 0.0273438, 0.359375, -9.7168, 1.28.2022 18:12:0.201
959, 2.20224, 0.185802, 188.918, -0.00195312, 0, 0, -0.0830078, 0.393555, -9.72852, 1.28.2022 18:12:0.209
960, 2.20224, 0.185802, 188.918, -0.000976562, 0, 0, -0.00195312, 0.366211, -9.71875, 1.28.2022 18:12:0.217
961, 2.20224, 0.185802, 188.918, -0.000976562, 0, 0, -0.0283203, 0.34375, -9.74512, 1.28.2022 18:12:0.225
962, 2.20169, 0.192774, 188.918, 0, -0.00292969, 0, -0.0302734, 0.40918, -9.72168, 1.28.2022 18:12:0.233
963, 2.20169, 0.192774, 188.918, -0.000976562, 0, 0, 0.0224609, 0.351562, -9.7002, 1.28.2022 18:12:0.241
964, 2.20169, 0.192774, 188.918, 0, 0, 0, -0.0253906, 0.382812, -9.7041, 1.28.2022 18:12:0.249
965, 2.20169, 0.192774, 188.918, 0, -0.000976562, -0.000976562, -0.0371094, 0.369141, -9.71777, 1.28.2022 18:12:0.257
966, 2.20224, 0.185802, 188.918, -0.000976562, 0, 0, 0.000976562, 0.351562, -9.7168, 1.28.2022 18:12:0.265
967, 2.20224, 0.185802, 188.918, -0.000976562, -0.000976562, -0.000976562, -0.0966797, 0.371094, -9.70312, 1.28.2022 18:12:0.273
968, 2.20224, 0.185802, 188.918, -0.000976562, 0, 0, -0.0166016, 0.376953, -9.74902, 1.28.2022 18:12:0.281
969, 2.20224, 0.185802, 188.918, -0.000976562, 0, 0, -0.0283203, 0.361328, -9.72266, 1.28.2022 18:12:0.289
970, 2.20224, 0.185802, 188.918, -0.000976562, 0, 0, -0.0419922, 0.385742, -9.70996, 1.28.2022 18:12:0.297
971, 2.20224, 0.185802, 188.918, -0.000976562, 0.000976562, 0, 0.0244141, 0.375977, -9.71875, 1.28.2022 18:12:0.305
972, 2.20224, 0.185802, 188.918, -0.00195312, 0.000976562, 0.000976562, -0.0371094, 0.373047, -9.68262, 1.28.2022 18:12:0.313
973, 2.20224, 0.185802, 188.918, -0.000976562, 0, -0.000976562, -0.0351562, 0.392578, -9.72461, 1.28.2022 18:12:0.321
974, 2.20224, 0.185802, 188.918, -0.000976562, 0, 0, 0.00585938, 0.363281, -9.7002, 1.28.2022 18:12:0.329
975, 2.20224, 0.185802, 188.918, -0.000976562, 0, 0, -0.0986328, 0.382812, -9.68359, 1.28.2022 18:12:0.337
976, 2.20224, 0.185802, 188.918, -0.000976562, 0, -0.000976562, -0.0253906, 0.368164, -9.69238, 1.28.2022 18:12:0.345
977, 2.20278, 0.17883, 188.918, -0.000976562, 0, 0, -0.0166016, 0.379883, -9.77246, 1.28.2022 18:12:0.353
978, 2.20278, 0.17883, 188.918, 0, 0, 0, -0.0664062, 0.369141, -9.72949, 1.28.2022 18:12:0.361
979, 2.20278, 0.17883, 188.918, -0.000976562, -0.000976562, 0, 0.0205078, 0.384766, -9.70703, 1.28.2022 18:12:0.369
980, 2.20278, 0.17883, 188.918, -0.000976562, 0, 0, -0.0458984, 0.375, -9.6875, 1.28.2022 18:12:0.377
981, 2.20278, 0.17883, 188.918, -0.000976562, 0, 0, -0.0517578, 0.375977, -9.70312, 1.28.2022 18:12:0.385
982, 2.20278, 0.17883, 188.918, -0.000976562, 0, 0, 0.0126953, 0.369141, -9.72363, 1.28.2022 18:12:0.393
983, 2.20278, 0.17883, 188.918, -0.000976562, -0.000976562, -0.000976562, -0.106445, 0.385742, -9.70703, 1.28.2022 18:12:0.401
984, 2.20278, 0.17883, 188.918, -0.000976562, -0.000976562, 0.000976562, -0.000976562, 0.397461, -9.70801, 1.28.2022 18:12:0.409
985, 2.20278, 0.17883, 188.918, -0.000976562, 0, 0, -0.000976562, 0.361328, -9.69238, 1.28.2022 18:12:0.417
986, 2.20278, 0.17883, 188.918, -0.000976562, 0, 0, -0.0585938, 0.375977, -9.70605, 1.28.2022 18:12:0.425
987, 2.20278, 0.17883, 188.918, -0.000976562, 0, 0.000976562, 0.0458984, 0.337891, -9.71289, 1.28.2022 18:12:0.431
988, 2.20278, 0.17883, 188.918, -0.000976562, -0.000976562, 0, -0.0458984, 0.348633, -9.68066, 1.28.2022 18:12:0.439
989, 2.20278, 0.17883, 188.918, -0.000976562, 0.000976562, 0, -0.0517578, 0.384766, -9.70312, 1.28.2022 18:12:0.447
990, 2.20278, 0.17883, 188.918, -0.000976562, 0, 0, 0.0107422, 0.34668, -9.69629, 1.28.2022 18:12:0.455
991, 2.20278, 0.17883, 188.918, 0, 0.000976562, 0, -0.0800781, 0.395508, -9.72559, 1.28.2022 18:12:0.463
992, 2.20278, 0.17883, 188.918, 0, 0, -0.000976562, 0.00488281, 0.367188, -9.74219, 1.28.2022 18:12:0.471
993, 2.20278, 0.17883, 188.918, -0.000976562, 0, 0, -0.0205078, 0.331055, -9.72168, 1.28.2022 18:12:0.479
994, 2.20278, 0.17883, 188.918, -0.000976562, 0, 0, -0.0458984, 0.376953, -9.66797, 1.28.2022 18:12:0.487
995, 2.20278, 0.17883, 188.918, -0.000976562, 0, 0, 0.00292969, 0.375977, -9.7207, 1.28.2022 18:12:0.495
996, 2.20332, 0.171858, 188.918, -0.000976562, 0, 0, -0.0263672, 0.381836, -9.74609, 1.28.2022 18:12:0.503
997, 2.20332, 0.171858, 188.918, -0.000976562, 0, 0, 0.0722656, 0.391602, -9.83301, 1.28.2022 18:12:0.511
998, 2.20332, 0.171858, 188.918, -0.000976562, 0.00195312, 0, 0.225586, 0.378906, -9.68457, 1.28.2022 18:12:0.519
999, 2.20332, 0.171858, 188.918, 0, -0.000976562, 0, 0.0332031, 0.417969, -9.77441, 1.28.2022 18:12:0.527
1000, 2.1969, 0.164342, 188.918, -0.000976562, 0.00195312, 0.000976562, 0.143555, 0.395508, -9.57129, 1.28.2022 18:12:0.535
1001, 2.19744, 0.15737, 188.918, -0.000976562, 0, 0, 0.121094, 0.362305, -9.76367, 1.28.2022 18:12:0.543
1002, 2.19799, 0.150398, 188.919, 0, 0.00292969, 0, 0.28125, 0.382812, -9.63086, 1.28.2022 18:12:0.551
1003, 2.19853, 0.143426, 188.919, -0.000976562, -0.000976562, 0, 0.244141, 0.435547, -9.7207, 1.28.2022 18:12:0.559
1004, 2.19962, 0.129483, 188.919, 0.000976562, 0.000976562, 0.000976562, 0.272461, 0.363281, -9.70703, 1.28.2022 18:12:0.567
1005, 2.20074, 0.115404, 188.912, -0.00195312, 0, 0.000976562, 0.142578, 0.416992, -9.81152, 1.28.2022 18:12:0.575
1006, 2.20183, 0.10146, 188.913, 0, 0.00390625, 0, 0.542969, 0.376953, -9.63965, 1.28.2022 18:12:0.583
1007, 2.20346, 0.0805446, 188.913, -0.000976562, 0, 0.000976562, 0.358398, 0.435547, -9.73926, 1.28.2022 18:12:0.591
1008, 2.20509, 0.0596288, 188.913, 0, 0.00292969, 0, 0.399414, 0.398438, -9.68848, 1.28.2022 18:12:0.599
1009, 2.20726, 0.0317412, 188.914, 0, 0.00292969, 0, 0.321289, 0.391602, -9.77246, 1.28.2022 18:12:0.607
1010, 2.20943, 0.00385351, 188.914, -0.000976562, 0.00292969, 0.000976562, 0.237305, 0.393555, -9.68652, 1.28.2022 18:12:0.615
1011, 2.2116, 359.976, 188.915, -0.00195312, 0.00292969, 0.000976562, 0.505859, 0.362305, -9.85254, 1.28.2022 18:12:0.623
1012, 2.21432, 359.941, 188.916, -0.000976562, 0.00390625, 0.000976562, 0.573242, 0.375977, -9.58594, 1.28.2022 18:12:0.631
1013, 2.21757, 359.899, 188.916, -0.00195312, 0.000976562, 0.00195312, 0.40625, 0.408203, -9.86328, 1.28.2022 18:12:0.639
1014, 2.22029, 359.864, 188.917, -0.000976562, 0.00488281, 0.00195312, 0.506836, 0.393555, -9.70215, 1.28.2022 18:12:0.647
1015, 2.2166, 359.822, 188.911, -0.00195312, 0.00292969, 0.000976562, 0.598633, 0.40625, -9.89746, 1.28.2022 18:12:0.655
1016, 2.2204, 359.773, 188.912, -0.00195312, 0.00585938, -0.000976562, 0.703125, 0.422852, -9.65527, 1.28.2022 18:12:0.663
1017, 2.22418, 359.724, 188.92, -0.00195312, 0.00292969, -0.00195312, 0.551758, 0.490234, -9.74512, 1.28.2022 18:12:0.671
1018, 2.22798, 359.676, 188.921, -0.00195312, 0.00390625, 0, 0.542969, 0.380859, -9.66602, 1.28.2022 18:12:0.679
1019, 2.23233, 359.62, 188.922, -0.00292969, 0.00390625, 0.000976562, 0.586914, 0.489258, -9.61328, 1.28.2022 18:12:0.687
1020, 2.23613, 359.571, 188.916, -0.000976562, 0.00292969, 0.000976562, 0.834961, 0.306641, -9.86133, 1.28.2022 18:12:0.695
1021, 2.23938, 359.529, 188.924, -0.00195312, 0.00488281, -0.00195312, 0.87207, 0.46582, -9.65918, 1.28.2022 18:12:0.703
1022, 2.24264, 359.487, 188.925, -0.000976562, 0.000976562, -0.00390625, 0.769531, 0.429688, -9.80273, 1.28.2022 18:12:0.711
1023, 2.24536, 359.453, 188.926, -0.000976562, 0.00390625, -0.00488281, 0.736328, 0.435547, -9.68359, 1.28.2022 18:12:0.719
1024, 2.24807, 359.418, 188.926, -0.000976562, 0.00195312, -0.00488281, 0.691406, 0.458008, -9.6377, 1.28.2022 18:12:0.727
1025, 2.25065, 359.39, 188.926, 0.00195312, 0, -0.00292969, 0.601562, 0.413086, -9.71484, 1.28.2022 18:12:0.735
1026, 2.25283, 359.362, 188.927, 0, 0.00292969, -0.000976562, 0.760742, 0.546875, -9.65723, 1.28.2022 18:12:0.743
1027, 2.25446, 359.341, 188.927, 0.00195312, -0.00390625, 0.00195312, 0.763672, 0.546875, -9.72852, 1.28.2022 18:12:0.751
1028, 2.24912, 359.32, 188.928, 0.000976562, -0.00292969, 0.00488281, 0.614258, 0.591797, -9.68945, 1.28.2022 18:12:0.759
1029, 2.25074, 359.298, 188.921, -0.000976562, -0.00390625, 0.0107422, 0.87207, 0.330078, -9.77637, 1.28.2022 18:12:0.767
1030, 2.25892, 359.278, 188.922, -0.00390625, 0, 0.0078125, 1.26953, 0.335938, -9.68359, 1.28.2022 18:12:0.775
1031, 2.25999, 359.264, 188.915, -0.00292969, -0.00585938, 0.00488281, 1.06738, 0.283203, -9.64355, 1.28.2022 18:12:0.783
1032, 2.26107, 359.25, 188.916, -0.00488281, -0.00683594, 0.00292969, 1.00293, 0.331055, -9.55859, 1.28.2022 18:12:0.791
1033, 2.26216, 359.236, 188.916, -0.00683594, -0.00878906, 0.00195312, 1.02637, 0.311523, -9.56445, 1.28.2022 18:12:0.799
1034, 2.27021, 359.223, 188.916, -0.0078125, -0.0126953, 0, 1.07324, 0.448242, -9.64355, 1.28.2022 18:12:0.807
1035, 2.27115, 359.216, 188.909, -0.0117188, -0.0166016, 0.00488281, 1.21289, 0.394531, -9.38965, 1.28.2022 18:12:0.815
1036, 2.27824, 359.209, 188.91, -0.0146484, -0.0214844, 0.00488281, 1.10938, 0.420898, -9.6123, 1.28.2022 18:12:0.823
1037, 2.28575, 359.203, 188.91, -0.0175781, -0.0224609, 0.00683594, 1.08887, 0.380859, -9.65039, 1.28.2022 18:12:0.831
1038, 2.3002, 359.197, 188.903, -0.0214844, -0.0224609, 0.00488281, 1.4209, 0.532227, -9.67578, 1.28.2022 18:12:0.839
1039, 2.30717, 359.197, 188.903, -0.0205078, -0.0175781, 0.00488281, 1.08496, 0.566406, -10.3496, 1.28.2022 18:12:0.847
1040, 2.32217, 359.184, 188.896, -0.0185547, -0.00488281, 0.00976562, 1.28223, 0.499023, -10.083, 1.28.2022 18:12:0.855
1041, 2.33019, 359.171, 188.89, -0.0126953, 0.000976562, 0.0107422, 1.06641, 0.47168, -10.1299, 1.28.2022 18:12:0.863
1042, 2.33127, 359.157, 188.89, -0.000976562, 0.0146484, 0.00976562, 0.996094, 0.62207, -10.0957, 1.28.2022 18:12:0.871
1043, 2.33288, 359.136, 188.884, 0.0078125, 0.0253906, 0.0126953, 1.32422, 0.628906, -9.30762, 1.28.2022 18:12:0.879
1044, 2.32805, 359.107, 188.877, 0.0175781, 0.0175781, 0.0146484, 0.875977, 0.923828, -9.625, 1.28.2022 18:12:0.887
1045, 2.31571, 359.085, 188.87, 0.0273438, 0.0234375, 0.0214844, 0.96582, 0.933594, -9.37598, 1.28.2022 18:12:0.895
1046, 2.30335, 359.063, 188.857, 0.0263672, 0.0107422, 0.0263672, 0.822266, 0.951172, -9.57617, 1.28.2022 18:12:0.903
1047, 2.29044, 359.047, 188.843, 0.0263672, 0.00195312, 0.0263672, 0.938477, 0.795898, -9.58984, 1.28.2022 18:12:0.911
1048, 2.28399, 359.04, 188.836, 0.0263672, -0.00390625, 0.0195312, 1.04883, 0.347656, -9.24902, 1.28.2022 18:12:0.919
1049, 2.2711, 359.025, 188.829, 0.0185547, -0.00390625, 0.0146484, 1.19531, 0.214844, -9.4541, 1.28.2022 18:12:0.927
1050, 2.26518, 359.01, 188.822, 0.0126953, 0.00292969, 0.0126953, 1.11426, 0.178711, -10.2373, 1.28.2022 18:12:0.935
