Seq, Rot x, Rot y, Rot z, Vel x, Vel y, Vel z, Acc x, Acc y, Acc z, Time(m.d.y h:m:s.ms)
0, 1.77368, 0.219437, 181.522, -0.000976562, 0, -0.000976562, -0.0927734, 0.313477, -9.7168, 1.28.2022 18:24:21.299
1, 1.78067, 0.21953, 181.522, -0.000976562, 0, -0.000976562, -0.0107422, 0.310547, -9.69434, 1.28.2022 18:24:21.305
2, 1.78057, 0.226523, 181.521, -0.000976562, -0.00195312, 0, -0.0400391, 0.28418, -9.69629, 1.28.2022 18:24:21.313
3, 1.78057, 0.226523, 181.521, 0, -0.00292969, -0.000976562, -0.0634766, 0.285156, -9.70117, 1.28.2022 18:24:21.321
4, 1.78057, 0.226523, 181.521, 0, 0, -0.000976562, 0.0322266, 0.295898, -9.69531, 1.28.2022 18:24:21.329
5, 1.78057, 0.226523, 181.521, -0.000976562, 0, -0.000976562, -0.046875, 0.311523, -9.70996, 1.28.2022 18:24:21.337
6, 1.78057, 0.226523, 181.521, -0.000976562, 0, -0.000976562, -0.0302734, 0.345703, -9.7334, 1.28.2022 18:24:21.345
7, 1.78067, 0.21953, 181.522, 0, 0, -0.00195312, 0.0341797, 0.301758, -9.73047, 1.28.2022 18:24:21.353
8, 1.78067, 0.21953, 181.522, -0.000976562, 0, -0.00195312, -0.0683594, 0.339844, -9.71875, 1.28.2022 18:24:21.361
9, 1.78067, 0.21953, 181.522, -0.000976562, -0.00195312, -0.000976562, -0.0107422, 0.298828, -9.69727, 1.28.2022 18:24:21.369
10, 1.78067, 0.21953, 181.522, -0.000976562, 0, -0.000976562, -0.0185547, 0.299805, -9.72754, 1.28.2022 18:24:21.377
11, 1.78067, 0.21953, 181.522, 0, 0.000976562, -0.000976562, -0.0771484, 0.310547, -9.68848, 1.28.2022 18:24:21.385
12, 1.78067, 0.21953, 181.522, -0.000976562, 0, -0.000976562, 0.0107422, 0.285156, -9.70898, 1.28.2022 18:24:21.393
13, 1.78076, 0.212538, 181.522, 0, 0, -0.000976562, -0.0634766, 0.296875, -9.71973, 1.28.2022 18:24:21.401
14, 1.78775, 0.212631, 181.522, -0.000976562, 0, -0.000976562, -0.0878906, 0.337891, -9.73438, 1.28.2022 18:24:21.409
15, 1.78775, 0.212631, 181.522, -0.000976562, 0, 0, -0.00683594, 0.291016, -9.75098, 1.28.2022 18:24:21.417
16, 1.78775, 0.212631, 181.522, -0.000976562, 0, -0.000976562, -0.0751953, 0.311523, -9.71875, 1.28.2022 18:24:21.425
17, 1.78775, 0.212631, 181.522, -0.000976562, 0.000976562, -0.000976562, -0.0449219, 0.316406, -9.72363, 1.28.2022 18:24:21.433
18, 1.78775, 0.212631, 181.522, -0.000976562, 0, -0.00195312, -0.0185547, 0.298828, -9.70801, 1.28.2022 18:24:21.441
19, 1.78775, 0.212631, 181.522, -0.000976562, 0.000976562, -0.000976562, -0.0849609, 0.331055, -9.73242, 1.28.2022 18:24:21.449
20, 1.78775, 0.212631, 181.522, -0.000976562, 0, 0, -0.00390625, 0.295898, -9.69434, 1.28.2022 18:24:21.457
21, 1.79474, 0.212724, 181.522, -0.000976562, -0.00195312, 0, -0.0478516, 0.295898, -9.74805, 1.28.2022 18:24:21.465
22, 1.79474, 0.212724, 181.522, -0.000976562, 0, 0.000976562, -0.0732422, 0.320312, -9.70215, 1.28.2022 18:24:21.473
23, 1.79474, 0.212724, 181.522, -0.000976562, 0, -0.00195312, 0.0107422, 0.290039, -9.70898, 1.28.2022 18:24:21.481
24, 1.79474, 0.212724, 181.522, 0, 0.000976562, -0.00195312, -0.0839844, 0.302734, -9.67383, 1.28.2022 18:24:21.489
25, 1.79474, 0.212724, 181.522, -0.000976562, 0, -0.000976562, -0.0253906, 0.293945, -9.70801, 1.28.2022 18:24:21.497
26, 1.79464, 0.219717, 181.522, -0.000976562, 0, 0.000976562, -0.00976562, 0.322266, -9.7666, 1.28.2022 18:24:21.505
27, 1.79464, 0.219717, 181.522, -0.000976562, -0.00195312, -0.000976562, -0.0761719, 0.304688, -9.72852, 1.28.2022 18:24:21.513
28, 1.79464, 0.219717, 181.522, 0, -0.00195312, -0.00195312, -0.0166016, 0.30957, -9.72949, 1.28.2022 18:24:21.521
29, 1.79464, 0.219717, 181.522, -0.000976562, -0.00195312, -0.00195312, -0.0566406, 0.304688, -9.74121, 1.28.2022 18:24:21.529
30, 1.79464, 0.219717, 181.522, -0.000976562, 0, -0.000976562, -0.0595703, 0.307617, -9.73633, 1.28.2022 18:24:21.537
31, 1.79464, 0.219717, 181.522, 0, 0, -0.000976562, 0.0195312, 0.287109, -9.70898, 1.28.2022 18:24:21.545
32, 1.79464, 0.219717, 181.522, 0, 0, 0.000976562, -0.0585938, 0.313477, -9.69531, 1.28.2022 18:24:21.553
33, 1.79464, 0.219717, 181.522, -0.000976562, 0, -0.000976562, -0.0351562, 0.313477, -9.70117, 1.28.2022 18:24:21.561
34, 1.79464, 0.219717, 181.522, -0.000976562, 0, -0.000976562, -0.0205078, 0.294922, -9.72754, 1.28.2022 18:24:21.569
35, 1.79464, 0.219717, 181.522, -0.00195312, -0.00195312, -0.000976562, -0.0644531, 0.302734, -9.73633, 1.28.2022 18:24:21.577
36, 1.80163, 0.21981, 181.522, -0.000976562, 0, -0.000976562, -0.00683594, 0.300781, -9.75586, 1.28.2022 18:24:21.585
37, 1.80163, 0.21981, 181.522, -0.000976562, 0, -0.000976562, -0.0185547, 0.304688, -9.74805, 1.28.2022 18:24:21.593
38, 1.80163, 0.21981, 181.522, 0, 0, 0.000976562, -0.0800781, 0.330078, -9.71094, 1.28.2022 18:24:21.601
39, 1.80163, 0.21981, 181.522, -0.000976562, 0, -0.000976562, 0.0292969, 0.291992, -9.70703, 1.28.2022 18:24:21.609
40, 1.80163, 0.21981, 181.522, -0.000976562, -0.00195312, 0.000976562, -0.0810547, 0.299805, -9.72656, 1.28.2022 18:24:21.617
41, 1.80163, 0.21981, 181.522, 0, 0, 0.000976562, -0.00878906, 0.296875, -9.71094, 1.28.2022 18:24:21.625
42, 1.79464, 0.219717, 181.522, 0, 0, -0.000976562, -0.0205078, 0.282227, -9.7041, 1.28.2022 18:24:21.633
43, 1.79464, 0.219717, 181.522, 0, 0, -0.000976562, -0.0800781, 0.301758, -9.69531, 1.28.2022 18:24:21.641
44, 1.79464, 0.219717, 181.522, 0, 0, 0.000976562, -0.0273438, 0.28418, -9.69727, 1.28.2022 18:24:21.649
45, 1.79464, 0.219717, 181.522, 0, 0, 0.000976562, -0.0302734, 0.305664, -9.70117, 1.28.2022 18:24:21.657
46, 1.79464, 0.219717, 181.522, 0, -0.00195312, -0.000976562, -0.0683594, 0.306641, -9.70312, 1.28.2022 18:24:21.665
47, 1.79464, 0.219717, 181.522, 0, 0, -0.000976562, 0.0078125, 0.270508, -9.71875, 1.28.2022 18:24:21.673
48, 1.79464, 0.219717, 181.522, 0, 0, 0.000976562, -0.046875, 0.304688, -9.72656, 1.28.2022 18:24:21.681
49, 1.78766, 0.219624, 181.522, -0.000976562, 0, -0.00195312, -0.046875, 0.28418, -9.67969, 1.28.2022 18:24:21.689
50, 1.78766, 0.219624, 181.522, -0.000976562, -0.00195312, -0.000976562, -0.0205078, 0.291992, -9.71094, 1.28.2022 18:24:21.697
51, 1.78766, 0.219624, 181.522, 0, 0, -0.000976562, -0.0898438, 0.320312, -9.70703, 1.28.2022 18:24:21.705
52, 1.78766, 0.219624, 181.522, 0, -0.00195312, -0.00195312, -0.000976562, 0.310547, -9.69434, 1.28.2022 18:24:21.713
53, 1.78766, 0.219624, 181.522, 0, 0.000976562, -0.000976562, -0.015625, 0.308594, -9.70605, 1.28.2022 18:24:21.721
54, 1.78766, 0.219624, 181.522, 0, 0, 0, -0.0820312, 0.318359, -9.69043, 1.28.2022 18:24:21.729
55, 1.78766, 0.219624, 181.522, 0, 0, 0, 0.000976562, 0.279297, -9.69238, 1.28.2022 18:24:21.737
56, 1.78067, 0.21953, 181.522, -0.00195312, 0.000976562, -0.000976562, -0.0703125, 0.318359, -9.70898, 1.28.2022 18:24:21.745
57, 1.78766, 0.219624, 181.522, -0.00195312, 0, -0.000976562, -0.0253906, 0.305664, -9.70117, 1.28.2022 18:24:21.753
58, 1.78766, 0.219624, 181.522, -0.000976562, 0, -0.000976562, 0.0224609, 0.285156, -9.71191, 1.28.2022 18:24:21.761
59, 1.78766, 0.219624, 181.522, -0.000976562, 0.000976562, -0.00195312, -0.0888672, 0.295898, -9.68164, 1.28.2022 18:24:21.769
60, 1.78766, 0.219624, 181.522, -0.000976562, 0, -0.00195312, 0.00292969, 0.339844, -9.70508, 1.28.2022 18:24:21.777
61, 1.78067, 0.21953, 181.522, 0, 0, -0.000976562, -0.00195312, 0.267578, -9.70996, 1.28.2022 18:24:21.785
62, 1.78067, 0.21953, 181.522, 0, 0, -0.000976562, -0.0830078, 0.30957, -9.72559, 1.28.2022 18:24:21.793
63, 1.78076, 0.212538, 181.522, -0.000976562, 0.000976562, -0.000976562, 0.00195312, 0.292969, -9.75879, 1.28.2022 18:24:21.801
64, 1.78076, 0.212538, 181.522, -0.000976562, 0.000976562, 0.000976562, -0.0615234, 0.314453, -9.72656, 1.28.2022 18:24:21.809
65, 1.78076, 0.212538, 181.522, 0, 0, -0.000976562, -0.0683594, 0.301758, -9.71484, 1.28.2022 18:24:21.817
66, 1.78076, 0.212538, 181.522, -0.000976562, -0.000976562, -0.000976562, 0.0146484, 0.296875, -9.71875, 1.28.2022 18:24:21.825
67, 1.78076, 0.212538, 181.522, -0.000976562, 0, -0.000976562, -0.0585938, 0.328125, -9.71191, 1.28.2022 18:24:21.833
68, 1.78076, 0.212538, 181.522, -0.00195312, 0, -0.000976562, -0.00878906, 0.333008, -9.73145, 1.28.2022 18:24:21.841
69, 1.78775, 0.212631, 181.522, 0, -0.000976562, -0.000976562, -0.0400391, 0.294922, -9.73633, 1.28.2022 18:24:21.849
70, 1.78775, 0.212631, 181.522, -0.000976562, -0.000976562, -0.000976562, -0.0917969, 0.313477, -9.7002, 1.28.2022 18:24:21.857
71, 1.78775, 0.212631, 181.522, -0.000976562, -0.000976562, -0.000976562, 0.0107422, 0.269531, -9.69043, 1.28.2022 18:24:21.865
72, 1.78775, 0.212631, 181.522, -0.000976562, 0, 0.000976562, -0.0419922, 0.301758, -9.72461, 1.28.2022 18:24:21.873
73, 1.78775, 0.212631, 181.522, -0.000976562, 0, 0.000976562, -0.0683594, 0.306641, -9.72852, 1.28.2022 18:24:21.881
74, 1.78775, 0.212631, 181.522, 0, 0, 0, 0.00976562, 0.299805, -9.73242, 1.28.2022 18:24:21.889
75, 1.78775, 0.212631, 181.522, 0, 0, 0, -0.09375, 0.334961, -9.68945, 1.28.2022 18:24:21.897
76, 1.78775, 0.212631, 181.522, -0.000976562, 0, -0.000976562, -0.00195312, 0.308594, -9.71094, 1.28.2022 18:24:21.905
77, 1.78775, 0.212631, 181.522, 0, 0, -0.000976562, -0.0185547, 0.294922, -9.72949, 1.28.2022 18:24:21.913
78, 1.78775, 0.212631, 181.522, -0.000976562, 0, -0.00195312, -0.0947266, 0.30957, -9.72559, 1.28.2022 18:24:21.921
79, 1.78775, 0.212631, 181.522, 0, 0, -0.000976562, 0.0117188, 0.292969, -9.75195, 1.28.2022 18:24:21.929
80, 1.78775, 0.212631, 181.522, -0.000976562, -0.000976562, -0.000976562, -0.0371094, 0.306641, -9.71973, 1.28.2022 18:24:21.937
81, 1.78775, 0.212631, 181.522, -0.000976562, 0, -0.00195312, -0.0517578, 0.334961, -9.69727, 1.28.2022 18:24:21.945
82, 1.78775, 0.212631, 181.522, -0.000976562, 0, -0.00195312, 0.0078125, 0.303711, -9.71777, 1.28.2022 18:24:21.953
83, 1.78775, 0.212631, 181.522, 0, 0, -0.000976562, -0.0888672, 0.300781, -9.66992, 1.28.2022 18:24:21.961
84, 1.78775, 0.212631, 181.522, -0.000976562, 0, -0.000976562, -0.0302734, 0.320312, -9.69141, 1.28.2022 18:24:21.969
85, 1.79474, 0.212724, 181.522, -0.000976562, 0.000976562, -0.000976562, -0.000976562, 0.289062, -9.68066, 1.28.2022 18:24:21.977
86, 1.79474, 0.212724, 181.522, -0.000976562, 0, -0.000976562, -0.0898438, 0.321289, -9.73535, 1.28.2022 18:24:21.985
87, 1.79474, 0.212724, 181.522, -0.000976562, -0.00195312, -0.000976562, -0.0107422, 0.295898, -9.67285, 1.28.2022 18:24:21.993
88, 1.79474, 0.212724, 181.522, -0.000976562, 0, -0.000976562, -0.0302734, 0.313477, -9.70117, 1.28.2022 18:24:22.001
89, 1.79474, 0.212724, 181.522, 0, 0.000976562, -0.000976562, -0.0625, 0.291016, -9.75781, 1.28.2022 18:24:22.009
90, 1.79474, 0.212724, 181.522, -0.000976562, 0, -0.00195312, 0.0107422, 0.244141, -9.69434, 1.28.2022 18:24:22.017
91, 1.79474, 0.212724, 181.522, -0.000976562, 0, -0.000976562, -0.0898438, 0.330078, -9.70605, 1.28.2022 18:24:22.025
92, 1.79474, 0.212724, 181.522, 0, -0.000976562, -0.000976562, -0.0449219, 0.308594, -9.70801, 1.28.2022 18:24:22.033
93, 1.79474, 0.212724, 181.522, -0.000976562, 0, -0.000976562, -0.00195312, 0.287109, -9.71582, 1.28.2022 18:24:22.041
94, 1.79474, 0.212724, 181.522, -0.000976562, 0, -0.000976562, -0.0771484, 0.320312, -9.69238, 1.28.2022 18:24:22.049
95, 1.79474, 0.212724, 181.522, -0.000976562, -0.00195312, -0.000976562, -0.00683594, 0.287109, -9.7207, 1.28.2022 18:24:22.057
96, 1.79474, 0.212724, 181.522, -0.000976562, 0, -0.000976562, -0.0302734, 0.287109, -9.70898, 1.28.2022 18:24:22.065
97, 1.79474, 0.212724, 181.522, -0.00195312, 0, -0.000976562, -0.046875, 0.303711, -9.69336, 1.28.2022 18:24:22.073
98, 1.79474, 0.212724, 181.522, -0.000976562, -0.00195312, -0.000976562, 0.0185547, 0.286133, -9.75879, 1.28.2022 18:24:22.081
99, 1.79474, 0.212724, 181.522, -0.000976562, -0.00195312, -0.000976562, -0.0771484, 0.318359, -9.69238, 1.28.2022 18:24:22.089
100, 1.79474, 0.212724, 181.522, 0, -0.000976562, 0.000976562, -0.0302734, 0.321289, -9.71484, 1.28.2022 18:24:22.097
101, 1.79474, 0.212724, 181.522, -0.000976562, -0.000976562, 0.000976562, -0.00878906, 0.301758, -9.73242, 1.28.2022 18:24:22.105
102, 1.79474, 0.212724, 181.522, 0, -0.000976562, -0.000976562, -0.0761719, 0.329102, -9.73535, 1.28.2022 18:24:22.113
103, 1.79474, 0.212724, 181.522, -0.000976562, -0.00195312, -0.000976562, -0.00390625, 0.306641, -9.73242, 1.28.2022 18:24:22.119
104, 1.79474, 0.212724, 181.522, 0, -0.00195312, -0.000976562, -0.0253906, 0.321289, -9.72852, 1.28.2022 18:24:22.127
105, 1.79474, 0.212724, 181.522, -0.000976562, -0.00195312, 0.000976562, -0.0634766, 0.31543, -9.69336, 1.28.2022 18:24:22.135
106, 1.79474, 0.212724, 181.522, -0.000976562, 0, -0.000976562, 0.0175781, 0.287109, -9.7168, 1.28.2022 18:24:22.143
107, 1.79474, 0.212724, 181.522, 0, 0, -0.00195312, -0.0751953, 0.323242, -9.71191, 1.28.2022 18:24:22.151
108, 1.79474, 0.212724, 181.522, -0.000976562, 0, -0.000976562, -0.0449219, 0.291992, -9.71777, 1.28.2022 18:24:22.159
109, 1.79474, 0.212724, 181.522, -0.000976562, 0, -0.000976562, -0.0136719, 0.285156, -9.73047, 1.28.2022 18:24:22.167
110, 1.79474, 0.212724, 181.522, -0.000976562, 0, -0.00195312, -0.0917969, 0.330078, -9.71094, 1.28.2022 18:24:22.175
111, 1.79474, 0.212724, 181.522, -0.000976562, 0, -0.00195312, 0.00683594, 0.298828, -9.76562, 1.28.2022 18:24:22.183
112, 1.79474, 0.212724, 181.522, 0, -0.00195312, -0.000976562, -0.0761719, 0.314453, -9.72168, 1.28.2022 18:24:22.191
113, 1.79474, 0.212724, 181.522, 0, -0.00195312, -0.000976562, -0.0683594, 0.321289, -9.70898, 1.28.2022 18:24:22.199
114, 1.79474, 0.212724, 181.522, 0.000976562, -0.000976562, -0.000976562, 0.0341797, 0.277344, -9.7168, 1.28.2022 18:24:22.207
115, 1.79474, 0.212724, 181.522, 0.000976562, -0.000976562, 0.000976562, -0.0771484, 0.305664, -9.66992, 1.28.2022 18:24:22.215
116, 1.79474, 0.212724, 181.522, -0.000976562, 0, -0.000976562, -0.0253906, 0.307617, -9.68457, 1.28.2022 18:24:22.223
117, 1.79474, 0.212724, 181.522, -0.00195312, 0, -0.000976562, -0.0126953, 0.286133, -9.67578, 1.28.2022 18:24:22.231
118, 1.79464, 0.219717, 181.522, -0.000976562, -0.000976562, -0.000976562, -0.103516, 0.310547, -9.68555, 1.28.2022 18:24:22.239
119, 1.79464, 0.219717, 181.522, -0.000976562, 0.000976562, 0, -0.0136719, 0.261719, -9.72363, 1.28.2022 18:24:22.247
120, 1.79464, 0.219717, 181.522, 0, 0, -0.000976562, -0.0107422, 0.291992, -9.70898, 1.28.2022 18:24:22.255
121, 1.79464, 0.219717, 181.522, 0, 0, -0.000976562, -0.0986328, 0.320312, -9.68555, 1.28.2022 18:24:22.263
122, 1.79464, 0.219717, 181.522, -0.000976562, 0.000976562, 0, 0.00488281, 0.289062, -9.76855, 1.28.2022 18:24:22.271
123, 1.79464, 0.219717, 181.522, -0.000976562, 0, 0, -0.0439453, 0.282227, -9.70117, 1.28.2022 18:24:22.279
124, 1.79464, 0.219717, 181.522, -0.000976562, 0, 0, -0.0351562, 0.323242, -9.72656, 1.28.2022 18:24:22.287
125, 1.78766, 0.219624, 181.522, 0, 0.000976562, 0.000976562, -0.00878906, 0.280273, -9.71875, 1.28.2022 18:24:22.295
126, 1.78766, 0.219624, 181.522, -0.000976562, 0.000976562, 0, -0.0703125, 0.34668, -9.70605, 1.28.2022 18:24:22.303
127, 1.78766, 0.219624, 181.522, -0.000976562, 0, 0, -0.0185547, 0.311523, -9.73438, 1.28.2022 18:24:22.311
128, 1.78766, 0.219624, 181.522, 0, 0, -0.000976562, -0.0253906, 0.301758, -9.69922, 1.28.2022 18:24:22.319
129, 1.78766, 0.219624, 181.522, -0.000976562, 0, 0, -0.0800781, 0.330078, -9.70703, 1.28.2022 18:24:22.327
130, 1.78766, 0.219624, 181.522, -0.000976562, 0, 0, -0.00878906, 0.287109, -9.71094, 1.28.2022 18:24:22.335
131, 1.78766, 0.219624, 181.522, 0, 0.000976562, 0, -0.0566406, 0.299805, -9.72461, 1.28.2022 18:24:22.343
132, 1.78766, 0.219624, 181.522, -0.000976562, 0, 0.000976562, -0.0439453, 0.286133, -9.67969, 1.28.2022 18:24:22.351
133, 1.78766, 0.219624, 181.522, -0.000976562, 0, 0.000976562, -0.00390625, 0.277344, -9.71191, 1.28.2022 18:24:22.359
134, 1.78766, 0.219624, 181.522, 0, 0, -0.000976562, -0.0761719, 0.314453, -9.72168, 1.28.2022 18:24:22.367
135, 1.78766, 0.219624, 181.522, -0.000976562, 0, 0, -0.0253906, 0.28418, -9.69238, 1.28.2022 18:24:22.375
136, 1.78766, 0.219624, 181.522, -0.000976562, 0, 0.000976562, -0.0371094, 0.305664, -9.69629, 1.28.2022 18:24:22.383
137, 1.78766, 0.219624, 181.522, -0.000976562, 0, 0, -0.102539, 0.317383, -9.73926, 1.28.2022 18:24:22.391
138, 1.78766, 0.219624, 181.522, -0.000976562, 0, 0, -0.00488281, 0.298828, -9.77246, 1.28.2022 18:24:22.399
139, 1.78766, 0.219624, 181.522, -0.00195312, 0, 0, -0.0429688, 0.304688, -9.73633, 1.28.2022 18:24:22.407
140, 1.78766, 0.219624, 181.522, -0.000976562, 0, -0.00195312, -0.0634766, 0.299805, -9.72852, 1.28.2022 18:24:22.415
141, 1.78766, 0.219624, 181.522, 0, 0, 0, 0.00195312, 0.292969, -9.75879, 1.28.2022 18:24:22.423
142, 1.78766, 0.219624, 181.522, -0.000976562, -0.000976562, -0.000976562, -0.0996094, 0.314453, -9.72363, 1.28.2022 18:24:22.431
143, 1.78766, 0.219624, 181.522, -0.000976562, -0.000976562, -0.00195312, -0.0253906, 0.282227, -9.70215, 1.28.2022 18:24:22.439
144, 1.78756, 0.226616, 181.521, -0.000976562, 0, -0.00195312, -0.0185547, 0.291016, -9.74219, 1.28.2022 18:24:22.447
145, 1.78756, 0.226616, 181.521, -0.00195312, 0, -0.00195312, -0.0898438, 0.320312, -9.7041, 1.28.2022 18:24:22.455
146, 1.78756, 0.226616, 181.521, -0.000976562, 0.000976562, -0.00195312, -0.00683594, 0.288086, -9.74707, 1.28.2022 18:24:22.463
147, 1.78756, 0.226616, 181.521, -0.000976562, 0, 0, -0.0410156, 0.279297, -9.7627, 1.28.2022 18:24:22.471
148, 1.78756, 0.226616, 181.521, -0.000976562, 0.000976562, 0, -0.046875, 0.301758, -9.72461, 1.28.2022 18:24:22.479
149, 1.78057, 0.226523, 181.521, -0.000976562, 0, -0.00195312, -0.00390625, 0.279297, -9.69531, 1.28.2022 18:24:22.487
150, 1.78057, 0.226523, 181.521, -0.000976562, -0.000976562, 0, -0.078125, 0.331055, -9.72363, 1.28.2022 18:24:22.495
151, 1.78057, 0.226523, 181.521, 0, -0.000976562, 0, -0.0253906, 0.316406, -9.72656, 1.28.2022 18:24:22.503
152, 1.78057, 0.226523, 181.521, -0.000976562, 0, 0.000976562, -0.00878906, 0.290039, -9.72559, 1.28.2022 18:24:22.511
153, 1.78057, 0.226523, 181.521, -0.000976562, 0, 0.000976562, -0.0732422, 0.326172, -9.71875, 1.28.2022 18:24:22.519
154, 1.78057, 0.226523, 181.521, 0, -0.00195312, 0, -0.0107422, 0.303711, -9.70117, 1.28.2022 18:24:22.527
155, 1.78057, 0.226523, 181.521, -0.000976562, -0.000976562, 0, -0.0683594, 0.291992, -9.71973, 1.28.2022 18:24:22.535
156, 1.78057, 0.226523, 181.521, -0.000976562, -0.00195312, 0, -0.0634766, 0.313477, -9.69824, 1.28.2022 18:24:22.543
157, 1.78048, 0.233516, 181.521, -0.000976562, -0.00195312, 0, 0.015625, 0.28125, -9.68555, 1.28.2022 18:24:22.551
158, 1.78048, 0.233516, 181.521, -0.000976562, -0.00195312, 0, -0.0898438, 0.301758, -9.70996, 1.28.2022 18:24:22.559
159, 1.78048, 0.233516, 181.521, -0.000976562, -0.000976562, -0.00195312, -0.0273438, 0.31543, -9.70312, 1.28.2022 18:24:22.567
160, 1.78048, 0.233516, 181.521, -0.000976562, 0, 0, 0.00195312, 0.276367, -9.75391, 1.28.2022 18:24:22.575
161, 1.78048, 0.233516, 181.521, 0, 0, 0, -0.102539, 0.302734, -9.74512, 1.28.2022 18:24:22.583
162, 1.78048, 0.233516, 181.521, -0.000976562, -0.000976562, 0, -0.00390625, 0.294922, -9.73047, 1.28.2022 18:24:22.591
163, 1.78048, 0.233516, 181.521, -0.000976562, -0.000976562, -0.00195312, -0.0498047, 0.318359, -9.7168, 1.28.2022 18:24:22.599
164, 1.78048, 0.233516, 181.521, -0.000976562, 0, 0, -0.0322266, 0.329102, -9.6748, 1.28.2022 18:24:22.607
165, 1.78048, 0.233516, 181.521, -0.00195312, -0.000976562, 0, 0.0175781, 0.277344, -9.71387, 1.28.2022 18:24:22.615
166, 1.78048, 0.233516, 181.521, -0.000976562, -0.000976562, -0.00195312, -0.0947266, 0.330078, -9.69434, 1.28.2022 18:24:22.623
167, 1.78048, 0.233516, 181.521, -0.000976562, 0, 0, -0.0488281, 0.298828, -9.70605, 1.28.2022 18:24:22.631
168, 1.78048, 0.233516, 181.521, -0.00195312, 0, -0.000976562, -0.0253906, 0.267578, -9.7041, 1.28.2022 18:24:22.639
169, 1.78048, 0.233516, 181.521, -0.000976562, -0.000976562, -0.00195312, -0.0732422, 0.303711, -9.69141, 1.28.2022 18:24:22.647
170, 1.78048, 0.233516, 181.521, -0.000976562, -0.000976562, -0.00195312, 0.0126953, 0.292969, -9.73047, 1.28.2022 18:24:22.655
171, 1.78048, 0.233516, 181.521, -0.000976562, -0.00195312, -0.00195312, -0.0341797, 0.300781, -9.67773, 1.28.2022 18:24:22.663
172, 1.78046, 0.233625, 181.528, -0.000976562, -0.00195312, -0.00195312, -0.0566406, 0.319336, -9.73535, 1.28.2022 18:24:22.671
173, 1.78046, 0.233625, 181.528, 0, -0.00195312, -0.00195312, -0.0214844, 0.279297, -9.74902, 1.28.2022 18:24:22.679
174, 1.78046, 0.233625, 181.528, -0.000976562, -0.00195312, -0.00195312, -0.0751953, 0.304688, -9.71484, 1.28.2022 18:24:22.687
175, 1.78046, 0.233625, 181.528, -0.000976562, -0.000976562, -0.00195312, -0.046875, 0.305664, -9.69141, 1.28.2022 18:24:22.695
176, 1.78046, 0.233625, 181.528, 0, -0.000976562, 0, -0.0175781, 0.291992, -9.69434, 1.28.2022 18:24:22.703
177, 1.78046, 0.233625, 181.528, 0, -0.000976562, 0.000976562, -0.101562, 0.316406, -9.70898, 1.28.2022 18:24:22.711
178, 1.78046, 0.233625, 181.528, 0, -0.000976562, 0, -0.0185547, 0.311523, -9.71973, 1.28.2022 18:24:22.719
179, 1.78046, 0.233625, 181.528, 0, -0.000976562, 0, -0.0351562, 0.300781, -9.69629, 1.28.2022 18:24:22.727
180, 1.77347, 0.233532, 181.528, -0.000976562, -0.000976562, 0, -0.0800781, 0.327148, -9.69531, 1.28.2022 18:24:22.735
181, 1.78037, 0.240618, 181.528, -0.000976562, -0.000976562, 0, 0.0205078, 0.277344, -9.69824, 1.28.2022 18:24:22.743
182, 1.78037, 0.240618, 181.528, -0.000976562, -0.00195312, 0, -0.0839844, 0.293945, -9.6748, 1.28.2022 18:24:22.751
183, 1.78037, 0.240618, 181.528, -0.000976562, -0.00195312, 0, -0.046875, 0.290039, -9.73438, 1.28.2022 18:24:22.759
184, 1.78037, 0.240618, 181.528, 0, -0.00195312, 0, 0, 0.266602, -9.74512, 1.28.2022 18:24:22.767
185, 1.77338, 0.240525, 181.528, 0, 0, 0, -0.0878906, 0.311523, -9.72363, 1.28.2022 18:24:22.775
186, 1.77338, 0.240525, 181.528, 0, 0, 0, -0.015625, 0.291992, -9.70898, 1.28.2022 18:24:22.783
187, 1.77338, 0.240525, 181.528, 0, 0, -0.000976562, -0.0185547, 0.304688, -9.72754, 1.28.2022 18:24:22.791
188, 1.77338, 0.240525, 181.528, -0.000976562, -0.00292969, -0.000976562, -0.0654297, 0.323242, -9.70215, 1.28.2022 18:24:22.799
189, 1.77338, 0.240525, 181.528, -0.000976562, 0, 0, 0.0195312, 0.285156, -9.72852, 1.28.2022 18:24:22.807
190, 1.77338, 0.240525, 181.528, 0, 0, 0, -0.0898438, 0.300781, -9.69336, 1.28.2022 18:24:22.815
191, 1.77338, 0.240525, 181.528, 0, -0.00195312, 0, -0.0595703, 0.295898, -9.75, 1.28.2022 18:24:22.823
192, 1.77338, 0.240525, 181.528, 0, -0.00195312, 0, -0.0136719, 0.270508, -9.70703, 1.28.2022 18:24:22.831
193, 1.77329, 0.247517, 181.528, 0, -0.00195312, 0, -0.0927734, 0.297852, -9.72852, 1.28.2022 18:24:22.839
194, 1.7663, 0.247424, 181.528, 0, 0, 0, -0.0136719, 0.311523, -9.72266, 1.28.2022 18:24:22.847
195, 1.7663, 0.247424, 181.528, 0, 0.000976562, 0, -0.0527344, 0.300781, -9.74609, 1.28.2022 18:24:22.855
196, 1.7663, 0.247424, 181.528, -0.000976562, 0.000976562, 0, -0.0830078, 0.328125, -9.72754, 1.28.2022 18:24:22.863
197, 1.7663, 0.247424, 181.528, -0.00195312, 0.000976562, 0, 0.0126953, 0.296875, -9.71875, 1.28.2022 18:24:22.871
198, 1.7663, 0.247424, 181.528, -0.000976562, 0, 0, -0.0615234, 0.302734, -9.7334, 1.28.2022 18:24:22.879
199, 1.7663, 0.247424, 181.528, 0, -0.00195312, 0, -0.0419922, 0.321289, -9.71484, 1.28.2022 18:24:22.887
200, 1.7663, 0.247424, 181.528, -0.000976562, -0.00195312, 0, -0.0136719, 0.275391, -9.7207, 1.28.2022 18:24:22.895
201, 1.7663, 0.247424, 181.528, -0.000976562, 0, 0, -0.104492, 0.334961, -9.70605, 1.28.2022 18:24:22.903
202, 1.7663, 0.247424, 181.528, 0, 0, 0, -0.0273438, 0.31543, -9.69336, 1.28.2022 18:24:22.911
203, 1.76632, 0.247316, 181.521, 0, 0, 0, -0.0400391, 0.285156, -9.71582, 1.28.2022 18:24:22.919
204, 1.76632, 0.247316, 181.521, -0.000976562, 0, 0.000976562, -0.0634766, 0.321289, -9.72168, 1.28.2022 18:24:22.927
205, 1.76632, 0.247316, 181.521, -0.000976562, 0, 0, 0.0195312, 0.298828, -9.71191, 1.28.2022 18:24:22.935
206, 1.76632, 0.247316, 181.521, 0, 0, 0, -0.0566406, 0.314453, -9.72656, 1.28.2022 18:24:22.943
207, 1.77331, 0.247409, 181.521, -0.000976562, 0, 0, -0.0380859, 0.331055, -9.74316, 1.28.2022 18:24:22.951
208, 1.77331, 0.247409, 181.521, 0, 0, -0.000976562, 0.0292969, 0.28418, -9.70508, 1.28.2022 18:24:22.959
209, 1.77331, 0.247409, 181.521, -0.000976562, -0.00195312, 0, -0.0683594, 0.296875, -9.70996, 1.28.2022 18:24:22.967
210, 1.77331, 0.247409, 181.521, -0.000976562, -0.00195312, -0.000976562, -0.0273438, 0.303711, -9.70605, 1.28.2022 18:24:22.975
211, 1.77331, 0.247409, 181.521, 0, 0, -0.000976562, -0.0166016, 0.3125, -9.74609, 1.28.2022 18:24:22.983
212, 1.77329, 0.247517, 181.528, -0.000976562, 0.000976562, -0.000976562, -0.0859375, 0.338867, -9.7373, 1.28.2022 18:24:22.991
213, 1.77329, 0.247517, 181.528, -0.000976562, 0, -0.000976562, 0.0126953, 0.28418, -9.70215, 1.28.2022 18:24:22.999
214, 1.77329, 0.247517, 181.528, -0.000976562, 0, 0, -0.0615234, 0.291992, -9.71289, 1.28.2022 18:24:23.007
215, 1.78037, 0.240618, 181.528, -0.000976562, 0, 0.000976562, -0.0722656, 0.330078, -9.68555, 1.28.2022 18:24:23.015
216, 1.78039, 0.240509, 181.521, -0.00195312, 0, 0, -0.0117188, 0.299805, -9.72266, 1.28.2022 18:24:23.023
217, 1.78039, 0.240509, 181.521, -0.000976562, 0, 0, -0.078125, 0.326172, -9.74219, 1.28.2022 18:24:23.031
218, 1.78039, 0.240509, 181.521, -0.000976562, 0.00195312, -0.000976562, -0.00585938, 0.310547, -9.69922, 1.28.2022 18:24:23.039
219, 1.78037, 0.240618, 181.528, -0.000976562, 0, -0.000976562, -0.0527344, 0.28125, -9.74609, 1.28.2022 18:24:23.047
220, 1.78736, 0.240712, 181.528, -0.000976562, 0, -0.000976562, -0.0761719, 0.305664, -9.74707, 1.28.2022 18:24:23.055
221, 1.78736, 0.240712, 181.528, -0.000976562, 0.000976562, 0, 0, 0.283203, -9.72852, 1.28.2022 18:24:23.063
222, 1.78736, 0.240712, 181.528, -0.000976562, 0, 0, -0.0527344, 0.292969, -9.75098, 1.28.2022 18:24:23.071
223, 1.78736, 0.240712, 181.528, -0.000976562, 0, 0, -0.046875, 0.318359, -9.7002, 1.28.2022 18:24:23.079
224, 1.78736, 0.240712, 181.528, -0.000976562, 0, 0, -0.00878906, 0.285156, -9.72559, 1.28.2022 18:24:23.087
225, 1.78745, 0.233719, 181.528, -0.00195312, 0, 0, -0.0947266, 0.335938, -9.74121, 1.28.2022 18:24:23.095
226, 1.78745, 0.233719, 181.528, -0.000976562, 0.000976562, 0, -0.0224609, 0.322266, -9.67969, 1.28.2022 18:24:23.101
227, 1.78745, 0.233719, 181.528, 0, -0.000976562, 0, -0.0107422, 0.289062, -9.68066, 1.28.2022 18:24:23.109
228, 1.78745, 0.233719, 181.528, 0, -0.000976562, 0, -0.104492, 0.324219, -9.72754, 1.28.2022 18:24:23.117
229, 1.79435, 0.240805, 181.528, -0.000976562, -0.000976562, 0, 0.00683594, 0.292969, -9.74707, 1.28.2022 18:24:23.125
230, 1.79437, 0.240695, 181.521, -0.00195312, 0, 0, -0.0400391, 0.311523, -9.71484, 1.28.2022 18:24:23.133
231, 1.79437, 0.240695, 181.521, -0.000976562, 0, 0, -0.0664062, 0.333984, -9.74414, 1.28.2022 18:24:23.141
232, 1.79437, 0.240695, 181.521, -0.000976562, 0, 0, -0.00195312, 0.287109, -9.71387, 1.28.2022 18:24:23.149
233, 1.79437, 0.240695, 181.521, 0, 0, 0, -0.0634766, 0.306641, -9.72168, 1.28.2022 18:24:23.157
234, 1.79437, 0.240695, 181.521, 0, 0, 0, -0.0136719, 0.297852, -9.73438, 1.28.2022 18:24:23.165
235, 1.79446, 0.233702, 181.521, 0, 0, 0, -0.0283203, 0.296875, -9.71289, 1.28.2022 18:24:23.173
236, 1.79446, 0.233702, 181.521, -0.000976562, -0.000976562, 0, -0.0556641, 0.314453, -9.66211, 1.28.2022 18:24:23.181
237, 1.79446, 0.233702, 181.521, -0.000976562, 0, 0, 0.0263672, 0.292969, -9.74219, 1.28.2022 18:24:23.189
238, 1.79446, 0.233702, 181.521, -0.000976562, 0, 0, -0.0390625, 0.28418, -9.69238, 1.28.2022 18:24:23.197
239, 1.79446, 0.233702, 181.521, -0.000976562, 0, 0.000976562, -0.0800781, 0.328125, -9.71875, 1.28.2022 18:24:23.205
240, 1.79446, 0.233702, 181.521, -0.000976562, 0, 0, 0.0214844, 0.265625, -9.72461, 1.28.2022 18:24:23.213
241, 1.79446, 0.233702, 181.521, -0.000976562, 0, 0.000976562, -0.0556641, 0.303711, -9.68848, 1.28.2022 18:24:23.221
242, 1.79446, 0.233702, 181.521, -0.000976562, 0, 0.000976562, -0.0488281, 0.293945, -9.67773, 1.28.2022 18:24:23.229
243, 1.79446, 0.233702, 181.521, 0, 0, 0, -0.0332031, 0.291992, -9.72266, 1.28.2022 18:24:23.237
244, 1.79455, 0.22671, 181.521, -0.000976562, -0.000976562, 0.000976562, -0.0732422, 0.326172, -9.72852, 1.28.2022 18:24:23.245
245, 1.79455, 0.22671, 181.521, -0.00195312, -0.000976562, 0, 0.00292969, 0.303711, -9.69922, 1.28.2022 18:24:23.253
246, 1.79455, 0.22671, 181.521, -0.000976562, -0.000976562, -0.000976562, -0.0615234, 0.287109, -9.71289, 1.28.2022 18:24:23.261
247, 1.79455, 0.22671, 181.521, -0.00195312, 0, -0.000976562, -0.0751953, 0.296875, -9.70801, 1.28.2022 18:24:23.269
248, 1.79455, 0.22671, 181.521, -0.000976562, 0, -0.000976562, -0.00488281, 0.285156, -9.7373, 1.28.2022 18:24:23.277
249, 1.79455, 0.22671, 181.521, 0, 0, -0.00195312, -0.0917969, 0.280273, -9.70801, 1.28.2022 18:24:23.285
250, 1.79455, 0.22671, 181.521, 0.000976562, -0.000976562, -0.000976562, -0.0400391, 0.304688, -9.72656, 1.28.2022 18:24:23.293
251, 1.79455, 0.22671, 181.521, -0.000976562, 0, -0.000976562, 0.0107422, 0.28418, -9.70508, 1.28.2022 18:24:23.301
252, 1.78756, 0.226616, 181.521, -0.000976562, -0.000976562, -0.000976562, -0.0751953, 0.31543, -9.69727, 1.28.2022 18:24:23.309
253, 1.78747, 0.233609, 181.521, -0.000976562, 0, -0.000976562, -0.00390625, 0.291992, -9.71875, 1.28.2022 18:24:23.317
254, 1.78756, 0.226616, 181.521, -0.000976562, 0, -0.000976562, -0.0449219, 0.299805, -9.71973, 1.28.2022 18:24:23.325
255, 1.78747, 0.233609, 181.521, -0.000976562, 0, -0.00195312, -0.0878906, 0.331055, -9.7373, 1.28.2022 18:24:23.333
256, 1.78747, 0.233609, 181.521, 0.000976562, 0, -0.000976562, 0.0283203, 0.267578, -9.76953, 1.28.2022 18:24:23.341
257, 1.78756, 0.226616, 181.521, 0.000976562, 0.000976562, -0.000976562, -0.0634766, 0.298828, -9.70312, 1.28.2022 18:24:23.349
258, 1.78057, 0.226523, 181.521, -0.000976562, 0, -0.000976562, -0.0351562, 0.307617, -9.74121, 1.28.2022 18:24:23.357
259, 1.78057, 0.226523, 181.521, -0.000976562, 0, -0.000976562, -0.0185547, 0.283203, -9.73047, 1.28.2022 18:24:23.365
260, 1.78057, 0.226523, 181.521, -0.000976562, 0, -0.000976562, -0.0712891, 0.333984, -9.75195, 1.28.2022 18:24:23.373
261, 1.78057, 0.226523, 181.521, -0.000976562, 0, -0.000976562, -0.0185547, 0.325195, -9.71289, 1.28.2022 18:24:23.381
262, 1.78057, 0.226523, 181.521, 0.000976562, 0, -0.000976562, -0.0566406, 0.286133, -9.74609, 1.28.2022 18:24:23.389
263, 1.78057, 0.226523, 181.521, 0, -0.000976562, -0.00195312, -0.0566406, 0.318359, -9.72168, 1.28.2022 18:24:23.397
264, 1.78057, 0.226523, 181.521, 0.000976562, 0, -0.000976562, -0.0136719, 0.296875, -9.7041, 1.28.2022 18:24:23.405
265, 1.78057, 0.226523, 181.521, 0.000976562, 0.000976562, 0.000976562, -0.0615234, 0.299805, -9.71289, 1.28.2022 18:24:23.413
266, 1.78057, 0.226523, 181.521, -0.000976562, 0, -0.000976562, -0.0605469, 0.320312, -9.69043, 1.28.2022 18:24:23.421
267, 1.78057, 0.226523, 181.521, 0.000976562, 0, -0.000976562, 0.00292969, 0.314453, -9.74121, 1.28.2022 18:24:23.429
268, 1.78048, 0.233516, 181.521, 0.000976562, 0, -0.000976562, -0.113281, 0.310547, -9.6875, 1.28.2022 18:24:23.437
269, 1.78048, 0.233516, 181.521, -0.000976562, 0, 0.000976562, -0.0214844, 0.285156, -9.72754, 1.28.2022 18:24:23.445
270, 1.78048, 0.233516, 181.521, -0.000976562, 0, -0.000976562, -0.0371094, 0.300781, -9.69629, 1.28.2022 18:24:23.453
271, 1.78048, 0.233516, 181.521, -0.000976562, 0, -0.000976562, -0.078125, 0.306641, -9.73047, 1.28.2022 18:24:23.461
272, 1.78048, 0.233516, 181.521, -0.000976562, 0, -0.000976562, 0.015625, 0.310547, -9.69727, 1.28.2022 18:24:23.469
273, 1.78048, 0.233516, 181.521, -0.000976562, -0.00195312, 0, -0.0634766, 0.289062, -9.68652, 1.28.2022 18:24:23.477
274, 1.78048, 0.233516, 181.521, 0.000976562, -0.000976562, -0.000976562, -0.0351562, 0.306641, -9.71289, 1.28.2022 18:24:23.485
275, 1.78048, 0.233516, 181.521, 0, -0.000976562, -0.00195312, -0.0205078, 0.273438, -9.71387, 1.28.2022 18:24:23.493
276, 1.78048, 0.233516, 181.521, 0.000976562, -0.000976562, -0.000976562, -0.106445, 0.325195, -9.69727, 1.28.2022 18:24:23.501
277, 1.78039, 0.240509, 181.521, 0.000976562, 0, -0.000976562, 0.00585938, 0.3125, -9.68262, 1.28.2022 18:24:23.509
278, 1.78039, 0.240509, 181.521, 0, 0.000976562, 0, -0.00195312, 0.294922, -9.7373, 1.28.2022 18:24:23.517
279, 1.78039, 0.240509, 181.521, 0, 0.000976562, 0, -0.0517578, 0.296875, -9.70312, 1.28.2022 18:24:23.525
280, 1.78048, 0.233516, 181.521, 0, 0, 0, 0.00292969, 0.296875, -9.72266, 1.28.2022 18:24:23.533
281, 1.78048, 0.233516, 181.521, 0, -0.000976562, -0.000976562, -0.0507812, 0.305664, -9.68164, 1.28.2022 18:24:23.541
282, 1.78048, 0.233516, 181.521, 0, -0.000976562, -0.00195312, -0.0439453, 0.313477, -9.69824, 1.28.2022 18:24:23.549
283, 1.78048, 0.233516, 181.521, -0.000976562, -0.000976562, 0, 0.0126953, 0.293945, -9.69238, 1.28.2022 18:24:23.557
284, 1.78048, 0.233516, 181.521, 0, 0, 0, -0.0859375, 0.30957, -9.73535, 1.28.2022 18:24:23.565
285, 1.78048, 0.233516, 181.521, 0, -0.000976562, -0.000976562, -0.0146484, 0.297852, -9.75098, 1.28.2022 18:24:23.573
286, 1.78048, 0.233516, 181.521, -0.000976562, -0.000976562, 0.000976562, -0.0283203, 0.283203, -9.73438, 1.28.2022 18:24:23.581
287, 1.78048, 0.233516, 181.521, -0.00195312, -0.000976562, 0, -0.0976562, 0.297852, -9.72852, 1.28.2022 18:24:23.589
288, 1.78048, 0.233516, 181.521, -0.00195312, 0, 0, -0.00390625, 0.274414, -9.67676, 1.28.2022 18:24:23.597
289, 1.78048, 0.233516, 181.521, -0.000976562, -0.000976562, 0, -0.0683594, 0.316406, -9.71875, 1.28.2022 18:24:23.605
290, 1.78048, 0.233516, 181.521, -0.000976562, -0.000976562, 0, -0.046875, 0.344727, -9.7207, 1.28.2022 18:24:23.613
291, 1.78048, 0.233516, 181.521, 0, -0.000976562, -0.00195312, -0.00390625, 0.27832, -9.73047, 1.28.2022 18:24:23.621
292, 1.78048, 0.233516, 181.521, 0, -0.000976562, -0.000976562, -0.0830078, 0.307617, -9.73047, 1.28.2022 18:24:23.629
293, 1.78048, 0.233516, 181.521, -0.000976562, 0, 0, -0.00390625, 0.306641, -9.73242, 1.28.2022 18:24:23.637
294, 1.78048, 0.233516, 181.521, 0, 0, 0, -0.015625, 0.291992, -9.7207, 1.28.2022 18:24:23.645
295, 1.78048, 0.233516, 181.521, -0.000976562, 0, -0.00195312, -0.0761719, 0.323242, -9.77539, 1.28.2022 18:24:23.653
296, 1.78048, 0.233516, 181.521, -0.000976562, -0.000976562, 0.000976562, -0.00683594, 0.297852, -9.75586, 1.28.2022 18:24:23.661
297, 1.78048, 0.233516, 181.521, -0.000976562, -0.000976562, 0.000976562, -0.0488281, 0.313477, -9.70801, 1.28.2022 18:24:23.669
298, 1.78048, 0.233516, 181.521, -0.000976562, -0.000976562, 0, -0.0488281, 0.310547, -9.68359, 1.28.2022 18:24:23.677
299, 1.78048, 0.233516, 181.521, 0, -0.000976562, 0.000976562, 0.0224609, 0.291992, -9.72363, 1.28.2022 18:24:23.685
300, 1.78048, 0.233516, 181.521, 0, 0, 0, -0.0927734, 0.328125, -9.72266, 1.28.2022 18:24:23.693
301, 1.78048, 0.233516, 181.521, 0, 0, 0, -0.0166016, 0.30957, -9.73438, 1.28.2022 18:24:23.701
302, 1.78048, 0.233516, 181.521, 0, -0.000976562, -0.000976562, -0.0185547, 0.292969, -9.73926, 1.28.2022 18:24:23.709
303, 1.78048, 0.233516, 181.521, -0.000976562, -0.000976562, 0, -0.113281, 0.304688, -9.71191, 1.28.2022 18:24:23.717
304, 1.78048, 0.233516, 181.521, -0.000976562, 0, 0, -0.00683594, 0.291992, -9.7207, 1.28.2022 18:24:23.725
305, 1.78048, 0.233516, 181.521, -0.000976562, -0.000976562, 0, -0.0527344, 0.297852, -9.75293, 1.28.2022 18:24:23.733
306, 1.78048, 0.233516, 181.521, -0.000976562, 0, 0, -0.046875, 0.303711, -9.68945, 1.28.2022 18:24:23.741
307, 1.78048, 0.233516, 181.521, 0, 0.000976562, 0, 0.015625, 0.265625, -9.69336, 1.28.2022 18:24:23.749
308, 1.78048, 0.233516, 181.521, -0.000976562, 0, 0, -0.102539, 0.30957, -9.74707, 1.28.2022 18:24:23.757
309, 1.78048, 0.233516, 181.521, -0.000976562, 0, 0, -0.0449219, 0.311523, -9.71289, 1.28.2022 18:24:23.765
310, 1.78048, 0.233516, 181.521, 0, 0, -0.00195312, -0.00195312, 0.292969, -9.73242, 1.28.2022 18:24:23.773
311, 1.78048, 0.233516, 181.521, -0.00195312, 0, 0, -0.0664062, 0.329102, -9.75391, 1.28.2022 18:24:23.781
312, 1.78048, 0.233516, 181.521, -0.000976562, 0, 0, -0.00195312, 0.287109, -9.70703, 1.28.2022 18:24:23.789
313, 1.78048, 0.233516, 181.521, -0.00195312, 0, 0, -0.0390625, 0.277344, -9.68262, 1.28.2022 18:24:23.797
314, 1.78048, 0.233516, 181.521, -0.000976562, 0, 0, -0.0527344, 0.326172, -9.66211, 1.28.2022 18:24:23.805
315, 1.78048, 0.233516, 181.521, -0.000976562, 0, 0.000976562, -0.0136719, 0.302734, -9.74121, 1.28.2022 18:24:23.813
316, 1.78747, 0.233609, 181.521, -0.00195312, 0, 0, -0.0908203, 0.317383, -9.74902, 1.28.2022 18:24:23.821
317, 1.78747, 0.233609, 181.521, -0.00195312, 0, 0, -0.0117188, 0.296875, -9.7207, 1.28.2022 18:24:23.829
318, 1.78747, 0.233609, 181.521, -0.00195312, 0, -0.00195312, -0.0263672, 0.259766, -9.74023, 1.28.2022 18:24:23.837
319, 1.78747, 0.233609, 181.521, -0.00195312, 0, 0, -0.0869141, 0.334961, -9.68945, 1.28.2022 18:24:23.845
320, 1.78756, 0.226616, 181.521, 0, 0, -0.00195312, 0.0078125, 0.294922, -9.74414, 1.28.2022 18:24:23.853
321, 1.78756, 0.226616, 181.521, -0.000976562, 0, -0.00195312, -0.046875, 0.300781, -9.68652, 1.28.2022 18:24:23.861
322, 1.78756, 0.226616, 181.521, 0, -0.000976562, -0.00195312, -0.0830078, 0.306641, -9.72363, 1.28.2022 18:24:23.869
323, 1.78756, 0.226616, 181.521, 0, 0, 0, 0.0195312, 0.285156, -9.72168, 1.28.2022 18:24:23.877
324, 1.78756, 0.226616, 181.521, -0.00195312, 0, 0.000976562, -0.0761719, 0.30957, -9.7334, 1.28.2022 18:24:23.885
325, 1.78756, 0.226616, 181.521, -0.000976562, -0.000976562, -0.000976562, -0.0400391, 0.298828, -9.71094, 1.28.2022 18:24:23.893
326, 1.78756, 0.226616, 181.521, 0, 0, 0, -0.00390625, 0.295898, -9.69434, 1.28.2022 18:24:23.901
327, 1.78057, 0.226523, 181.521, 0, 0, 0.000976562, -0.0947266, 0.308594, -9.69727, 1.28.2022 18:24:23.909
328, 1.78057, 0.226523, 181.521, -0.000976562, 0, 0, -0.0253906, 0.321289, -9.71289, 1.28.2022 18:24:23.917
329, 1.78057, 0.226523, 181.521, -0.000976562, 0, 0, -0.0361328, 0.310547, -9.75293, 1.28.2022 18:24:23.925
330, 1.78057, 0.226523, 181.521, -0.000976562, -0.000976562, -0.000976562, -0.0615234, 0.319336, -9.75684, 1.28.2022 18:24:23.933
331, 1.78747, 0.233609, 181.521, -0.000976562, 0, 0, 0.00390625, 0.283203, -9.66406, 1.28.2022 18:24:23.941
332, 1.78747, 0.233609, 181.521, -0.000976562, 0, -0.00195312, -0.0615234, 0.323242, -9.72559, 1.28.2022 18:24:23.949
333, 1.78747, 0.233609, 181.521, -0.000976562, -0.000976562, -0.000976562, -0.0439453, 0.303711, -9.69629, 1.28.2022 18:24:23.957
334, 1.78747, 0.233609, 181.521, 0, 0, 0, -0.0117188, 0.27832, -9.7373, 1.28.2022 18:24:23.965
335, 1.78747, 0.233609, 181.521, -0.000976562, -0.000976562, -0.000976562, -0.0732422, 0.329102, -9.73047, 1.28.2022 18:24:23.973
336, 1.78747, 0.233609, 181.521, 0, 0, 0, -0.00488281, 0.314453, -9.75586, 1.28.2022 18:24:23.981
337, 1.78747, 0.233609, 181.521, -0.000976562, 0, 0, -0.0185547, 0.27832, -9.71875, 1.28.2022 18:24:23.989
338, 1.78747, 0.233609, 181.521, -0.000976562, 0, 0, -0.0703125, 0.313477, -9.7002, 1.28.2022 18:24:23.997
339, 1.78756, 0.226616, 181.521, -0.000976562, -0.000976562, -0.000976562, 0.0175781, 0.290039, -9.7207, 1.28.2022 18:24:24.005
340, 1.78756, 0.226616, 181.521, -0.000976562, 0, -0.00195312, -0.0380859, 0.326172, -9.73535, 1.28.2022 18:24:24.013
341, 1.78756, 0.226616, 181.521, -0.000976562, 0, 0, -0.0283203, 0.310547, -9.75977, 1.28.2022 18:24:24.021
342, 1.78756, 0.226616, 181.521, 0, 0, 0, -0.0166016, 0.286133, -9.75098, 1.28.2022 18:24:24.029
343, 1.78756, 0.226616, 181.521, -0.000976562, -0.000976562, -0.00195312, -0.102539, 0.304688, -9.7334, 1.28.2022 18:24:24.037
344, 1.78756, 0.226616, 181.521, 0.000976562, 0, 0, -0.00878906, 0.303711, -9.70801, 1.28.2022 18:24:24.045
345, 1.78756, 0.226616, 181.521, 0.000976562, 0, 0, -0.0263672, 0.28125, -9.74219, 1.28.2022 18:24:24.053
346, 1.78756, 0.226616, 181.521, 0.000976562, 0, 0, -0.0683594, 0.301758, -9.72656, 1.28.2022 18:24:24.059
347, 1.78756, 0.226616, 181.521, -0.000976562, -0.000976562, 0, 0.015625, 0.287109, -9.69238, 1.28.2022 18:24:24.069
348, 1.78756, 0.226616, 181.521, -0.00195312, 0.000976562, -0.000976562, -0.0615234, 0.304688, -9.73828, 1.28.2022 18:24:24.075
349, 1.78754, 0.226726, 181.528, 0, -0.000976562, 0, -0.046875, 0.314453, -9.72656, 1.28.2022 18:24:24.083
350, 1.78766, 0.219624, 181.522, -0.00195312, -0.000976562, 0, 0.0078125, 0.3125, -9.74414, 1.28.2022 18:24:24.091
351, 1.78766, 0.219624, 181.522, 0, -0.000976562, 0, -0.0986328, 0.298828, -9.69531, 1.28.2022 18:24:24.099
352, 1.78766, 0.219624, 181.522, 0, -0.000976562, 0, -0.0439453, 0.310547, -9.70312, 1.28.2022 18:24:24.107
353, 1.78756, 0.226616, 181.521, -0.000976562, -0.000976562, 0, -0.0439453, 0.310547, -9.67676, 1.28.2022 18:24:24.115
354, 1.78756, 0.226616, 181.521, 0.000976562, 0, 0, -0.111328, 0.318359, -9.71387, 1.28.2022 18:24:24.123
355, 1.78756, 0.226616, 181.521, 0.000976562, -0.000976562, 0, -0.00683594, 0.301758, -9.7207, 1.28.2022 18:24:24.131
356, 1.78756, 0.226616, 181.521, 0, -0.000976562, 0, -0.0712891, 0.30957, -9.74512, 1.28.2022 18:24:24.139
357, 1.78756, 0.226616, 181.521, -0.000976562, -0.000976562, 0, -0.0488281, 0.308594, -9.69629, 1.28.2022 18:24:24.147
358, 1.78754, 0.226726, 181.528, -0.000976562, 0, -0.000976562, 0.000976562, 0.272461, -9.69727, 1.28.2022 18:24:24.155
359, 1.78754, 0.226726, 181.528, 0.000976562, 0, 0, -0.0898438, 0.311523, -9.73047, 1.28.2022 18:24:24.163
360, 1.78745, 0.233719, 181.528, 0, 0, 0, -0.0136719, 0.325195, -9.71484, 1.28.2022 18:24:24.171
361, 1.78745, 0.233719, 181.528, -0.000976562, 0.000976562, -0.000976562, -0.0234375, 0.294922, -9.72461, 1.28.2022 18:24:24.179
362, 1.78745, 0.233719, 181.528, 0.000976562, 0.000976562, 0, -0.0849609, 0.330078, -9.70898, 1.28.2022 18:24:24.187
363, 1.78745, 0.233719, 181.528, 0, 0, 0.000976562, 0.0341797, 0.308594, -9.71094, 1.28.2022 18:24:24.195
364, 1.78745, 0.233719, 181.528, 0.000976562, 0, 0, -0.0185547, 0.30957, -9.73926, 1.28.2022 18:24:24.203
365, 1.78747, 0.233609, 181.521, 0, 0.000976562, 0.000976562, -0.0185547, 0.31543, -9.70801, 1.28.2022 18:24:24.211
366, 1.78747, 0.233609, 181.521, 0, 0.000976562, 0, -0.0166016, 0.262695, -9.77051, 1.28.2022 18:24:24.219
367, 1.78747, 0.233609, 181.521, 0, 0, 0, -0.106445, 0.30957, -9.7207, 1.28.2022 18:24:24.227
368, 1.78756, 0.226616, 181.521, 0.000976562, 0, 0, -0.0185547, 0.308594, -9.71484, 1.28.2022 18:24:24.235
369, 1.78756, 0.226616, 181.521, -0.000976562, -0.000976562, 0, -0.015625, 0.291016, -9.6709, 1.28.2022 18:24:24.243
370, 1.78756, 0.226616, 181.521, 0, 0.000976562, 0, -0.0878906, 0.319336, -9.72363, 1.28.2022 18:24:24.251
371, 1.78756, 0.226616, 181.521, 0.000976562, 0, 0.000976562, 0.0205078, 0.288086, -9.66895, 1.28.2022 18:24:24.259
372, 1.78756, 0.226616, 181.521, 0.000976562, -0.000976562, 0, -0.0400391, 0.306641, -9.71777, 1.28.2022 18:24:24.267
373, 1.78756, 0.226616, 181.521, 0, -0.000976562, 0, -0.0371094, 0.314453, -9.72461, 1.28.2022 18:24:24.275
374, 1.78756, 0.226616, 181.521, -0.000976562, 0.000976562, 0.000976562, 0.0107422, 0.28418, -9.70215, 1.28.2022 18:24:24.283
375, 1.78756, 0.226616, 181.521, -0.000976562, 0.000976562, 0, -0.0898438, 0.317383, -9.7373, 1.28.2022 18:24:24.291
376, 1.78756, 0.226616, 181.521, 0, 0, -0.000976562, -0.0273438, 0.313477, -9.70312, 1.28.2022 18:24:24.299
377, 1.78756, 0.226616, 181.521, -0.000976562, 0, -0.00195312, -0.0292969, 0.302734, -9.67969, 1.28.2022 18:24:24.307
378, 1.78756, 0.226616, 181.521, -0.000976562, 0.000976562, 0, -0.0927734, 0.3125, -9.74707, 1.28.2022 18:24:24.315
379, 1.78766, 0.219624, 181.522, -0.00195312, -0.000976562, -0.000976562, 0.0078125, 0.270508, -9.70703, 1.28.2022 18:24:24.323
380, 1.78766, 0.219624, 181.522, -0.000976562, 0, 0, -0.046875, 0.290039, -9.71289, 1.28.2022 18:24:24.331
381, 1.78766, 0.219624, 181.522, 0, 0, -0.000976562, -0.0449219, 0.321289, -9.73535, 1.28.2022 18:24:24.339
382, 1.78766, 0.219624, 181.522, 0.000976562, 0, -0.00195312, 0.0195312, 0.300781, -9.75195, 1.28.2022 18:24:24.347
383, 1.78766, 0.219624, 181.522, 0, -0.000976562, -0.000976562, -0.0615234, 0.311523, -9.71191, 1.28.2022 18:24:24.355
384, 1.78766, 0.219624, 181.522, 0, 0.000976562, 0, -0.0302734, 0.294922, -9.72266, 1.28.2022 18:24:24.363
385, 1.78766, 0.219624, 181.522, -0.000976562, 0.000976562, 0, -0.0439453, 0.310547, -9.68848, 1.28.2022 18:24:24.371
386, 1.78766, 0.219624, 181.522, 0, 0, -0.000976562, -0.0859375, 0.302734, -9.7334, 1.28.2022 18:24:24.379
387, 1.78766, 0.219624, 181.522, -0.000976562, 0, 0, -0.00683594, 0.3125, -9.74121, 1.28.2022 18:24:24.387
388, 1.78766, 0.219624, 181.522, 0, 0, -0.000976562, -0.0585938, 0.318359, -9.70215, 1.28.2022 18:24:24.395
389, 1.78766, 0.219624, 181.522, 0, 0, -0.000976562, -0.0517578, 0.321289, -9.73047, 1.28.2022 18:24:24.403
390, 1.78766, 0.219624, 181.522, -0.000976562, -0.000976562, -0.00195312, 0.0361328, 0.286133, -9.75684, 1.28.2022 18:24:24.411
391, 1.78766, 0.219624, 181.522, -0.000976562, 0.000976562, 0, -0.0683594, 0.323242, -9.69727, 1.28.2022 18:24:24.419
392, 1.78766, 0.219624, 181.522, 0, -0.000976562, -0.000976562, -0.0322266, 0.291992, -9.71582, 1.28.2022 18:24:24.427
393, 1.78766, 0.219624, 181.522, 0, 0, -0.000976562, -0.0332031, 0.300781, -9.74609, 1.28.2022 18:24:24.435
394, 1.78766, 0.219624, 181.522, -0.000976562, 0, 0, -0.0898438, 0.316406, -9.71582, 1.28.2022 18:24:24.443
395, 1.78766, 0.219624, 181.522, -0.000976562, 0, -0.00195312, 0.000976562, 0.282227, -9.7041, 1.28.2022 18:24:24.451
396, 1.78764, 0.219733, 181.529, -0.000976562, 0, -0.00195312, -0.046875, 0.287109, -9.71777, 1.28.2022 18:24:24.459
397, 1.78764, 0.219733, 181.529, 0, 0, -0.000976562, -0.0673828, 0.327148, -9.67383, 1.28.2022 18:24:24.467
398, 1.78764, 0.219733, 181.529, -0.000976562, 0, 0, 0.0292969, 0.277344, -9.71484, 1.28.2022 18:24:24.475
399, 1.78764, 0.219733, 181.529, -0.00195312, -0.000976562, -0.00195312, -0.0664062, 0.301758, -9.72656, 1.28.2022 18:24:24.483
400, 1.78764, 0.219733, 181.529, 0, 0, -0.00195312, -0.0351562, 0.333008, -9.71875, 1.28.2022 18:24:24.491
401, 1.78764, 0.219733, 181.529, -0.000976562, 0.000976562, 0, -0.0322266, 0.301758, -9.70801, 1.28.2022 18:24:24.499
402, 1.78764, 0.219733, 181.529, -0.000976562, 0, 0.000976562, -0.0830078, 0.319336, -9.72363, 1.28.2022 18:24:24.507
403, 1.78764, 0.219733, 181.529, 0, 0, -0.000976562, -0.00195312, 0.308594, -9.71777, 1.28.2022 18:24:24.515
404, 1.78764, 0.219733, 181.529, 0, -0.000976562, -0.000976562, -0.0566406, 0.314453, -9.74512, 1.28.2022 18:24:24.523
405, 1.78764, 0.219733, 181.529, -0.000976562, 0, 0, -0.0615234, 0.335938, -9.73535, 1.28.2022 18:24:24.531
406, 1.79463, 0.219826, 181.529, -0.000976562, -0.00195312, -0.000976562, 0.00976562, 0.294922, -9.73242, 1.28.2022 18:24:24.539
407, 1.79463, 0.219826, 181.529, -0.000976562, -0.00195312, -0.000976562, -0.0634766, 0.31543, -9.69824, 1.28.2022 18:24:24.547
408, 1.79463, 0.219826, 181.529, 0, -0.00195312, -0.000976562, -0.0332031, 0.299805, -9.72461, 1.28.2022 18:24:24.555
409, 1.79463, 0.219826, 181.529, 0, -0.00195312, 0, -0.0117188, 0.283203, -9.73242, 1.28.2022 18:24:24.563
410, 1.79463, 0.219826, 181.529, -0.000976562, -0.00195312, 0, -0.09375, 0.336914, -9.6709, 1.28.2022 18:24:24.571
411, 1.79453, 0.226819, 181.528, 0, -0.00195312, 0, 0.0126953, 0.311523, -9.72949, 1.28.2022 18:24:24.579
412, 1.79453, 0.226819, 181.528, 0, 0, -0.000976562, -0.0371094, 0.308594, -9.70801, 1.28.2022 18:24:24.587
413, 1.79453, 0.226819, 181.528, -0.000976562, 0, -0.000976562, -0.0751953, 0.328125, -9.70215, 1.28.2022 18:24:24.595
414, 1.79453, 0.226819, 181.528, 0, 0, 0, 0.0273438, 0.274414, -9.69141, 1.28.2022 18:24:24.603
415, 1.79453, 0.226819, 181.528, 0, 0, -0.000976562, -0.0683594, 0.296875, -9.7002, 1.28.2022 18:24:24.611
416, 1.79453, 0.226819, 181.528, 0, -0.00195312, 0, -0.0478516, 0.319336, -9.74023, 1.28.2022 18:24:24.619
417, 1.80152, 0.226913, 181.528, 0, -0.00195312, 0, 0, 0.279297, -9.75684, 1.28.2022 18:24:24.627
418, 1.80152, 0.226913, 181.528, -0.000976562, 0, 0, -0.0927734, 0.337891, -9.73242, 1.28.2022 18:24:24.635
419, 1.80152, 0.226913, 181.528, -0.000976562, 0, 0.000976562, 0.0117188, 0.304688, -9.65234, 1.28.2022 18:24:24.643
420, 1.80152, 0.226913, 181.528, -0.000976562, 0, 0.000976562, -0.0371094, 0.289062, -9.7041, 1.28.2022 18:24:24.651
421, 1.80152, 0.226913, 181.528, -0.000976562, 0, 0, -0.0849609, 0.308594, -9.70215, 1.28.2022 18:24:24.659
422, 1.80161, 0.21992, 181.529, 0, 0, 0, 0.0214844, 0.293945, -9.76855, 1.28.2022 18:24:24.667
423, 1.80161, 0.21992, 181.529, -0.000976562, 0, 0, -0.0703125, 0.293945, -9.7002, 1.28.2022 18:24:24.675
424, 1.80161, 0.21992, 181.529, -0.000976562, 0.000976562, 0, -0.0322266, 0.313477, -9.7168, 1.28.2022 18:24:24.683
425, 1.80161, 0.21992, 181.529, 0, 0, 0, -0.0117188, 0.27832, -9.7373, 1.28.2022 18:24:24.691
426, 1.80161, 0.21992, 181.529, -0.000976562, -0.00195312, 0, -0.108398, 0.316406, -9.70898, 1.28.2022 18:24:24.699
427, 1.80161, 0.21992, 181.529, 0, -0.00195312, -0.000976562, -0.0302734, 0.306641, -9.70605, 1.28.2022 18:24:24.707
428, 1.80152, 0.226913, 181.528, -0.000976562, 0, -0.000976562, -0.0380859, 0.285156, -9.72754, 1.28.2022 18:24:24.715
429, 1.80152, 0.226913, 181.528, 0, 0, -0.000976562, -0.103516, 0.310547, -9.69727, 1.28.2022 18:24:24.723
430, 1.80152, 0.226913, 181.528, -0.000976562, 0, 0, 0.000976562, 0.289062, -9.69238, 1.28.2022 18:24:24.731
431, 1.80152, 0.226913, 181.528, 0, -0.00195312, 0, -0.0654297, 0.288086, -9.66797, 1.28.2022 18:24:24.739
432, 1.79453, 0.226819, 181.528, 0, 0, -0.000976562, -0.0429688, 0.292969, -9.73438, 1.28.2022 18:24:24.747
433, 1.79453, 0.226819, 181.528, -0.000976562, 0.000976562, 0, 0.00976562, 0.297852, -9.74707, 1.28.2022 18:24:24.755
434, 1.79453, 0.226819, 181.528, 0, 0, 0, -0.0849609, 0.326172, -9.73242, 1.28.2022 18:24:24.763
435, 1.79453, 0.226819, 181.528, -0.000976562, 0, 0, -0.00195312, 0.299805, -9.72949, 1.28.2022 18:24:24.771
436, 1.79453, 0.226819, 181.528, -0.000976562, 0, 0, -0.0205078, 0.288086, -9.67285, 1.28.2022 18:24:24.779
437, 1.79453, 0.226819, 181.528, 0, 0.000976562, 0, -0.0703125, 0.308594, -9.71191, 1.28.2022 18:24:24.787
438, 1.79453, 0.226819, 181.528, -0.000976562, 0, 0, 0.0253906, 0.286133, -9.66895, 1.28.2022 18:24:24.795
439, 1.79453, 0.226819, 181.528, 0, 0, 0, -0.0566406, 0.311523, -9.72656, 1.28.2022 18:24:24.803
440, 1.79453, 0.226819, 181.528, -0.000976562, 0, 0.000976562, -0.0634766, 0.303711, -9.70508, 1.28.2022 18:24:24.811
441, 1.78754, 0.226726, 181.528, 0, 0, -0.000976562, 0.00292969, 0.285156, -9.71387, 1.28.2022 18:24:24.819
442, 1.78754, 0.226726, 181.528, 0, 0, 0, -0.0888672, 0.321289, -9.65234, 1.28.2022 18:24:24.827
443, 1.78754, 0.226726, 181.528, 0, 0, 0, -0.0224609, 0.308594, -9.70312, 1.28.2022 18:24:24.835
444, 1.78754, 0.226726, 181.528, 0, 0, 0, 0.00292969, 0.290039, -9.71387, 1.28.2022 18:24:24.843
445, 1.78754, 0.226726, 181.528, -0.000976562, 0, 0, -0.0996094, 0.307617, -9.74512, 1.28.2022 18:24:24.851
446, 1.78754, 0.226726, 181.528, -0.000976562, 0, -0.000976562, -0.015625, 0.311523, -9.70801, 1.28.2022 18:24:24.859
447, 1.78754, 0.226726, 181.528, -0.000976562, 0.000976562, 0, -0.0498047, 0.291992, -9.71484, 1.28.2022 18:24:24.867
448, 1.78754, 0.226726, 181.528, -0.000976562, 0, 0, -0.0253906, 0.304688, -9.71777, 1.28.2022 18:24:24.875
449, 1.78754, 0.226726, 181.528, -0.000976562, 0, 0, 0.00292969, 0.275391, -9.72363, 1.28.2022 18:24:24.883
450, 1.78754, 0.226726, 181.528, -0.000976562, -0.000976562, 0, -0.0869141, 0.324219, -9.65918, 1.28.2022 18:24:24.891
451, 1.78754, 0.226726, 181.528, -0.000976562, -0.000976562, 0, -0.0234375, 0.293945, -9.70898, 1.28.2022 18:24:24.899
452, 1.78754, 0.226726, 181.528, 0, 0, 0, -0.0302734, 0.289062, -9.70117, 1.28.2022 18:24:24.907
453, 1.78754, 0.226726, 181.528, 0, -0.000976562, 0.000976562, -0.0703125, 0.320312, -9.70215, 1.28.2022 18:24:24.915
454, 1.78756, 0.226616, 181.521, 0, 0, 0.000976562, -0.00195312, 0.294922, -9.72754, 1.28.2022 18:24:24.923
455, 1.78756, 0.226616, 181.521, -0.000976562, 0, 0.000976562, -0.0351562, 0.277344, -9.71094, 1.28.2022 18:24:24.931
456, 1.78756, 0.226616, 181.521, -0.000976562, -0.000976562, 0.000976562, -0.0517578, 0.330078, -9.69727, 1.28.2022 18:24:24.939
457, 1.78057, 0.226523, 181.521, 0, -0.000976562, -0.000976562, 0.00292969, 0.291016, -9.74219, 1.28.2022 18:24:24.947
458, 1.78057, 0.226523, 181.521, -0.000976562, -0.000976562, 0, -0.0849609, 0.291992, -9.7002, 1.28.2022 18:24:24.955
459, 1.78057, 0.226523, 181.521, 0, 0, 0, -0.0322266, 0.308594, -9.70801, 1.28.2022 18:24:24.963
460, 1.78057, 0.226523, 181.521, -0.000976562, 0, 0, -0.00878906, 0.282227, -9.71387, 1.28.2022 18:24:24.971
461, 1.78057, 0.226523, 181.521, -0.000976562, 0, -0.000976562, -0.0703125, 0.322266, -9.67676, 1.28.2022 18:24:24.979
462, 1.78057, 0.226523, 181.521, -0.000976562, -0.000976562, -0.000976562, -0.0185547, 0.298828, -9.7041, 1.28.2022 18:24:24.987
463, 1.78057, 0.226523, 181.521, -0.000976562, 0, 0, -0.0458984, 0.325195, -9.68164, 1.28.2022 18:24:24.995
464, 1.78057, 0.226523, 181.521, -0.000976562, -0.000976562, 0, -0.0449219, 0.331055, -9.73535, 1.28.2022 18:24:25.003
465, 1.78057, 0.226523, 181.521, -0.000976562, 0, -0.000976562, 0.0107422, 0.311523, -9.70898, 1.28.2022 18:24:25.011
466, 1.78057, 0.226523, 181.521, -0.000976562, 0, 0, -0.0585938, 0.328125, -9.72363, 1.28.2022 18:24:25.019
467, 1.78756, 0.226616, 181.521, 0, -0.000976562, 0, -0.0400391, 0.321289, -9.7168, 1.28.2022 18:24:25.027
468, 1.78756, 0.226616, 181.521, 0, 0, 0, -0.0214844, 0.288086, -9.7373, 1.28.2022 18:24:25.033
469, 1.78756, 0.226616, 181.521, 0, 0, 0.000976562, -0.0927734, 0.304688, -9.72559, 1.28.2022 18:24:25.041
470, 1.78756, 0.226616, 181.521, -0.000976562, 0, 0, -0.0166016, 0.30957, -9.73145, 1.28.2022 18:24:25.051
471, 1.78756, 0.226616, 181.521, -0.000976562, -0.000976562, -0.00195312, -0.0439453, 0.303711, -9.68945, 1.28.2022 18:24:25.057
472, 1.78756, 0.226616, 181.521, -0.000976562, 0, 0, -0.0703125, 0.31543, -9.68848, 1.28.2022 18:24:25.065
473, 1.78756, 0.226616, 181.521, -0.000976562, -0.000976562, -0.000976562, 0.000976562, 0.265625, -9.7002, 1.28.2022 18:24:25.073
474, 1.78756, 0.226616, 181.521, 0, 0, -0.000976562, -0.0498047, 0.28125, -9.73438, 1.28.2022 18:24:25.081
475, 1.78756, 0.226616, 181.521, 0, 0, 0, -0.00878906, 0.325195, -9.70801, 1.28.2022 18:24:25.089
476, 1.78756, 0.226616, 181.521, 0, 0, 0, 0.00292969, 0.299805, -9.72754, 1.28.2022 18:24:25.097
477, 1.78756, 0.226616, 181.521, -0.000976562, -0.000976562, -0.000976562, -0.0966797, 0.298828, -9.7002, 1.28.2022 18:24:25.105
478, 1.78756, 0.226616, 181.521, -0.000976562, 0, 0.000976562, -0.0117188, 0.280273, -9.71582, 1.28.2022 18:24:25.113
479, 1.78756, 0.226616, 181.521, 0, 0.000976562, 0, -0.0400391, 0.294922, -9.71094, 1.28.2022 18:24:25.121
480, 1.78756, 0.226616, 181.521, -0.00195312, -0.000976562, -0.00195312, -0.0898438, 0.325195, -9.70898, 1.28.2022 18:24:25.129
481, 1.78756, 0.226616, 181.521, -0.000976562, 0, 0, 0.0292969, 0.300781, -9.69238, 1.28.2022 18:24:25.137
482, 1.78756, 0.226616, 181.521, -0.000976562, -0.00195312, 0.000976562, -0.0664062, 0.298828, -9.76172, 1.28.2022 18:24:25.145
483, 1.78756, 0.226616, 181.521, 0, -0.000976562, -0.000976562, -0.0703125, 0.28418, -9.69434, 1.28.2022 18:24:25.153
484, 1.78756, 0.226616, 181.521, -0.000976562, 0, 0, -0.015625, 0.293945, -9.70605, 1.28.2022 18:24:25.161
485, 1.78756, 0.226616, 181.521, -0.000976562, 0, 0, -0.0830078, 0.301758, -9.71875, 1.28.2022 18:24:25.169
486, 1.78756, 0.226616, 181.521, -0.000976562, -0.000976562, 0.000976562, 0.0078125, 0.289062, -9.7002, 1.28.2022 18:24:25.177
487, 1.78756, 0.226616, 181.521, -0.00195312, -0.000976562, -0.000976562, -0.00390625, 0.334961, -9.69824, 1.28.2022 18:24:25.185
488, 1.78756, 0.226616, 181.521, 0, 0, -0.000976562, -0.0898438, 0.318359, -9.7041, 1.28.2022 18:24:25.193
489, 1.78756, 0.226616, 181.521, 0, 0, 0, -0.00390625, 0.280273, -9.72852, 1.28.2022 18:24:25.201
490, 1.78756, 0.226616, 181.521, -0.000976562, 0.000976562, 0, -0.0722656, 0.300781, -9.77148, 1.28.2022 18:24:25.209
491, 1.78756, 0.226616, 181.521, -0.000976562, 0, 0, -0.0400391, 0.316406, -9.70996, 1.28.2022 18:24:25.217
492, 1.78756, 0.226616, 181.521, 0, 0, -0.00195312, -0.0117188, 0.3125, -9.74609, 1.28.2022 18:24:25.225
493, 1.78756, 0.226616, 181.521, -0.000976562, 0, 0.000976562, -0.0976562, 0.314453, -9.72852, 1.28.2022 18:24:25.233
494, 1.78756, 0.226616, 181.521, -0.000976562, -0.000976562, -0.000976562, 0.00976562, 0.287109, -9.7207, 1.28.2022 18:24:25.241
495, 1.78756, 0.226616, 181.521, -0.000976562, 0, 0.000976562, -0.0234375, 0.291992, -9.71289, 1.28.2022 18:24:25.249
496, 1.78756, 0.226616, 181.521, -0.000976562, 0, 0.000976562, -0.0664062, 0.301758, -9.71484, 1.28.2022 18:24:25.257
497, 1.78756, 0.226616, 181.521, -0.000976562, 0, 0, 0.00292969, 0.280273, -9.70898, 1.28.2022 18:24:25.265
498, 1.78756, 0.226616, 181.521, 0, 0, 0.000976562, -0.0683594, 0.280273, -9.70117, 1.28.2022 18:24:25.273
499, 1.78756, 0.226616, 181.521, -0.000976562, 0, 0, -0.0478516, 0.314453, -9.65039, 1.28.2022 18:24:25.281
500, 1.78756, 0.226616, 181.521, -0.000976562, 0, 0, -0.0136719, 0.279297, -9.69043, 1.28.2022 18:24:25.289
501, 1.78756, 0.226616, 181.521, -0.000976562, 0, 0, -0.0751953, 0.313477, -9.69336, 1.28.2022 18:24:25.297
502, 1.78756, 0.226616, 181.521, 0, 0, -0.000976562, -0.00390625, 0.296875, -9.72559, 1.28.2022 18:24:25.305
503, 1.78057, 0.226523, 181.521, 0, 0.000976562, -0.000976562, -0.0302734, 0.287109, -9.71289, 1.28.2022 18:24:25.313
504, 1.78057, 0.226523, 181.521, -0.000976562, 0, -0.000976562, -0.0703125, 0.300781, -9.68848, 1.28.2022 18:24:25.321
505, 1.78057, 0.226523, 181.521, -0.000976562, 0, -0.000976562, 0.0224609, 0.280273, -9.71875, 1.28.2022 18:24:25.329
506, 1.78067, 0.21953, 181.522, -0.000976562, 0.000976562, -0.000976562, -0.0644531, 0.297852, -9.73633, 1.28.2022 18:24:25.337
507, 1.78067, 0.21953, 181.522, 0, 0.00195312, 0.000976562, -0.0517578, 0.310547, -9.69531, 1.28.2022 18:24:25.345
508, 1.78067, 0.21953, 181.522, 0, 0, -0.000976562, 0.000976562, 0.267578, -9.68359, 1.28.2022 18:24:25.353
509, 1.77368, 0.219437, 181.522, 0, 0, -0.000976562, -0.0830078, 0.320312, -9.7041, 1.28.2022 18:24:25.361
510, 1.77368, 0.219437, 181.522, -0.000976562, 0, -0.000976562, -0.0136719, 0.311523, -9.70801, 1.28.2022 18:24:25.369
511, 1.77368, 0.219437, 181.522, -0.000976562, 0, -0.00195312, -0.0537109, 0.287109, -9.68945, 1.28.2022 18:24:25.377
512, 1.77368, 0.219437, 181.522, 0, 0, -0.00195312, -0.0986328, 0.305664, -9.69043, 1.28.2022 18:24:25.385
513, 1.77368, 0.219437, 181.522, -0.000976562, 0, -0.000976562, 0.0253906, 0.286133, -9.67676, 1.28.2022 18:24:25.393
514, 1.77368, 0.219437, 181.522, -0.000976562, -0.000976562, -0.000976562, -0.0449219, 0.285156, -9.70801, 1.28.2022 18:24:25.401
515, 1.77368, 0.219437, 181.522, 0, 0, -0.000976562, -0.0634766, 0.313477, -9.7168, 1.28.2022 18:24:25.409
516, 1.77368, 0.219437, 181.522, 0, 0, -0.000976562, -0.0175781, 0.286133, -9.67578, 1.28.2022 18:24:25.417
517, 1.76669, 0.219344, 181.522, 0, 0, -0.000976562, -0.0761719, 0.316406, -9.7334, 1.28.2022 18:24:25.425
518, 1.76669, 0.219344, 181.522, -0.00195312, 0, -0.00195312, -0.0390625, 0.310547, -9.68457, 1.28.2022 18:24:25.433
519, 1.76669, 0.219344, 181.522, 0, 0, -0.000976562, -0.00390625, 0.287109, -9.71875, 1.28.2022 18:24:25.441
520, 1.76669, 0.219344, 181.522, -0.00195312, 0, -0.000976562, -0.101562, 0.330078, -9.69727, 1.28.2022 18:24:25.449
521, 1.7666, 0.226337, 181.521, -0.000976562, 0, -0.000976562, 0.00488281, 0.306641, -9.73242, 1.28.2022 18:24:25.457
522, 1.7666, 0.226337, 181.521, -0.000976562, 0.000976562, -0.000976562, -0.0566406, 0.306641, -9.72656, 1.28.2022 18:24:25.465
523, 1.7666, 0.226337, 181.521, 0, 0, -0.000976562, -0.0625, 0.297852, -9.66309, 1.28.2022 18:24:25.473
524, 1.7666, 0.226337, 181.521, -0.000976562, -0.000976562, -0.000976562, -0.00683594, 0.290039, -9.71387, 1.28.2022 18:24:25.481
525, 1.7666, 0.226337, 181.521, -0.000976562, -0.000976562, -0.000976562, -0.0917969, 0.295898, -9.68359, 1.28.2022 18:24:25.489
526, 1.7666, 0.226337, 181.521, -0.000976562, 0.000976562, -0.000976562, -0.0371094, 0.307617, -9.67676, 1.28.2022 18:24:25.497
527, 1.7666, 0.226337, 181.521, -0.000976562, 0, -0.00195312, -0.00390625, 0.291016, -9.68262, 1.28.2022 18:24:25.505
528, 1.77359, 0.22643, 181.521, -0.000976562, -0.000976562, -0.000976562, -0.0966797, 0.303711, -9.7002, 1.28.2022 18:24:25.513
529, 1.77357, 0.226539, 181.528, 0, 0, -0.000976562, -0.00976562, 0.283203, -9.75195, 1.28.2022 18:24:25.521
530, 1.76658, 0.226445, 181.528, 0, 0, -0.000976562, -0.0449219, 0.299805, -9.74121, 1.28.2022 18:24:25.529
531, 1.76648, 0.233438, 181.528, 0, 0, -0.000976562, -0.0595703, 0.304688, -9.73828, 1.28.2022 18:24:25.537
532, 1.76648, 0.233438, 181.528, 0, 0, -0.000976562, 0.00488281, 0.288086, -9.74414, 1.28.2022 18:24:25.545
533, 1.76648, 0.233438, 181.528, 0, 0.000976562, -0.000976562, -0.0859375, 0.304688, -9.74512, 1.28.2022 18:24:25.553
534, 1.76648, 0.233438, 181.528, -0.000976562, -0.000976562, 0, -0.0429688, 0.297852, -9.75781, 1.28.2022 18:24:25.561
535, 1.76648, 0.233438, 181.528, 0, -0.000976562, 0, -0.00976562, 0.288086, -9.74219, 1.28.2022 18:24:25.569
536, 1.76648, 0.233438, 181.528, 0, 0.000976562, -0.00292969, -0.0947266, 0.306641, -9.7168, 1.28.2022 18:24:25.577
537, 1.76648, 0.233438, 181.528, -0.000976562, -0.000976562, -0.000976562, 0.0380859, 0.27832, -9.73633, 1.28.2022 18:24:25.585
538, 1.76648, 0.233438, 181.528, 0, -0.000976562, 0, -0.0371094, 0.28418, -9.69629, 1.28.2022 18:24:25.593
539, 1.76648, 0.233438, 181.528, 0, -0.000976562, 0, -0.0351562, 0.317383, -9.74316, 1.28.2022 18:24:25.601
540, 1.76648, 0.233438, 181.528, -0.000976562, -0.00195312, -0.00195312, 0.0078125, 0.265625, -9.71484, 1.28.2022 18:24:25.609
541, 1.76648, 0.233438, 181.528, -0.000976562, -0.00195312, -0.00195312, -0.0878906, 0.299805, -9.71875, 1.28.2022 18:24:25.617
542, 1.76648, 0.233438, 181.528, -0.000976562, -0.00195312, 0, -0.0214844, 0.314453, -9.73828, 1.28.2022 18:24:25.625
543, 1.7595, 0.233345, 181.528, 0, -0.00195312, 0.000976562, -0.0224609, 0.302734, -9.67773, 1.28.2022 18:24:25.633
544, 1.7595, 0.233345, 181.528, 0, -0.00195312, 0, -0.0859375, 0.317383, -9.74219, 1.28.2022 18:24:25.641
545, 1.7595, 0.233345, 181.528, -0.000976562, -0.000976562, 0, 0.00292969, 0.27832, -9.72168, 1.28.2022 18:24:25.649
546, 1.7595, 0.233345, 181.528, 0, 0.000976562, -0.000976562, -0.0380859, 0.276367, -9.73926, 1.28.2022 18:24:25.657
547, 1.7595, 0.233345, 181.528, 0, -0.00195312, 0, -0.0634766, 0.313477, -9.70703, 1.28.2022 18:24:25.665
548, 1.7595, 0.233345, 181.528, 0, -0.000976562, 0, 0.0292969, 0.262695, -9.69336, 1.28.2022 18:24:25.673
549, 1.7595, 0.233345, 181.528, 0, -0.00195312, 0, -0.0732422, 0.296875, -9.70312, 1.28.2022 18:24:25.681
550, 1.7595, 0.233345, 181.528, -0.000976562, -0.00195312, 0, -0.0361328, 0.307617, -9.7666, 1.28.2022 18:24:25.689
551, 1.7595, 0.233345, 181.528, 0, -0.000976562, 0, -0.0078125, 0.308594, -9.78418, 1.28.2022 18:24:25.697
552, 1.7595, 0.233345, 181.528, -0.000976562, -0.000976562, 0, -0.078125, 0.318359, -9.70215, 1.28.2022 18:24:25.705
553, 1.75251, 0.233251, 181.528, -0.000976562, -0.000976562, 0, -0.00878906, 0.301758, -9.72754, 1.28.2022 18:24:25.713
554, 1.75251, 0.233251, 181.528, 0, -0.000976562, 0, -0.0283203, 0.316406, -9.73145, 1.28.2022 18:24:25.721
555, 1.7526, 0.226258, 181.529, 0, -0.000976562, 0.000976562, -0.0644531, 0.3125, -9.76172, 1.28.2022 18:24:25.729
556, 1.7526, 0.226258, 181.529, 0, -0.000976562, 0, 0.0126953, 0.280273, -9.72168, 1.28.2022 18:24:25.737
557, 1.7526, 0.226258, 181.529, -0.000976562, -0.000976562, -0.000976562, -0.078125, 0.280273, -9.70117, 1.28.2022 18:24:25.745
558, 1.7526, 0.226258, 181.529, -0.000976562, -0.00195312, -0.00195312, -0.0400391, 0.330078, -9.70215, 1.28.2022 18:24:25.753
559, 1.7526, 0.226258, 181.529, 0, -0.000976562, 0, -0.0185547, 0.288086, -9.75098, 1.28.2022 18:24:25.761
560, 1.75959, 0.226352, 181.529, -0.000976562, -0.000976562, 0, -0.0947266, 0.308594, -9.69238, 1.28.2022 18:24:25.769
561, 1.75959, 0.226352, 181.529, -0.000976562, -0.000976562, 0, 0.00488281, 0.299805, -9.72266, 1.28.2022 18:24:25.777
562, 1.75959, 0.226352, 181.529, -0.000976562, 0, 0, -0.0253906, 0.323242, -9.71484, 1.28.2022 18:24:25.785
563, 1.75959, 0.226352, 181.529, -0.000976562, -0.000976562, 0, -0.078125, 0.333008, -9.73242, 1.28.2022 18:24:25.793
564, 1.75959, 0.226352, 181.529, -0.000976562, -0.000976562, 0, 0.0244141, 0.301758, -9.70898, 1.28.2022 18:24:25.801
565, 1.75959, 0.226352, 181.529, 0, 0, 0, -0.0556641, 0.31543, -9.68652, 1.28.2022 18:24:25.809
566, 1.75959, 0.226352, 181.529, -0.000976562, 0.000976562, 0, -0.00878906, 0.347656, -9.73047, 1.28.2022 18:24:25.817
567, 1.76667, 0.219452, 181.529, 0, 0, 0, -0.00683594, 0.304688, -9.75098, 1.28.2022 18:24:25.825
568, 1.76667, 0.219452, 181.529, -0.000976562, 0, -0.000976562, -0.0810547, 0.322266, -9.74414, 1.28.2022 18:24:25.833
569, 1.76667, 0.219452, 181.529, 0, -0.000976562, -0.000976562, 0.0205078, 0.298828, -9.69531, 1.28.2022 18:24:25.841
570, 1.76667, 0.219452, 181.529, -0.000976562, 0, -0.000976562, -0.0283203, 0.283203, -9.73242, 1.28.2022 18:24:25.849
571, 1.77366, 0.219546, 181.529, -0.000976562, 0, 0, -0.0898438, 0.321289, -9.7207, 1.28.2022 18:24:25.857
572, 1.77366, 0.219546, 181.529, 0, 0, 0.000976562, 0.0107422, 0.291016, -9.68359, 1.28.2022 18:24:25.865
573, 1.77366, 0.219546, 181.529, -0.000976562, -0.000976562, 0, -0.046875, 0.306641, -9.70801, 1.28.2022 18:24:25.873
574, 1.77375, 0.212553, 181.529, -0.000976562, 0, -0.000976562, -0.0634766, 0.326172, -9.7207, 1.28.2022 18:24:25.881
575, 1.78074, 0.212646, 181.529, -0.000976562, 0, -0.000976562, -0.00585938, 0.27832, -9.65918, 1.28.2022 18:24:25.889
576, 1.78074, 0.212646, 181.529, -0.000976562, -0.000976562, 0, -0.0917969, 0.318359, -9.70215, 1.28.2022 18:24:25.897
577, 1.78074, 0.212646, 181.529, -0.000976562, 0, 0, -0.0224609, 0.289062, -9.70117, 1.28.2022 18:24:25.905
578, 1.78074, 0.212646, 181.529, 0, 0, 0, -0.0253906, 0.294922, -9.71582, 1.28.2022 18:24:25.913
579, 1.78074, 0.212646, 181.529, -0.000976562, 0, 0, -0.0634766, 0.303711, -9.70801, 1.28.2022 18:24:25.921
580, 1.78074, 0.212646, 181.529, -0.000976562, 0, 0, 0.0244141, 0.293945, -9.7041, 1.28.2022 18:24:25.929
581, 1.78773, 0.21274, 181.529, -0.000976562, 0, 0, -0.0419922, 0.306641, -9.71484, 1.28.2022 18:24:25.937
582, 1.78773, 0.21274, 181.529, -0.000976562, 0, 0, -0.0615234, 0.313477, -9.71484, 1.28.2022 18:24:25.945
583, 1.78773, 0.21274, 181.529, -0.000976562, -0.000976562, 0.000976562, -0.0185547, 0.280273, -9.72754, 1.28.2022 18:24:25.953
584, 1.78773, 0.21274, 181.529, 0, -0.000976562, 0, -0.113281, 0.328125, -9.71777, 1.28.2022 18:24:25.961
585, 1.78773, 0.21274, 181.529, -0.000976562, -0.000976562, -0.000976562, -0.00292969, 0.3125, -9.76074, 1.28.2022 18:24:25.969
586, 1.78773, 0.21274, 181.529, -0.000976562, 0, -0.000976562, -0.0351562, 0.282227, -9.70898, 1.28.2022 18:24:25.977
587, 1.78773, 0.21274, 181.529, -0.000976562, -0.000976562, 0, -0.0634766, 0.333008, -9.71875, 1.28.2022 18:24:25.985
588, 1.78773, 0.21274, 181.529, -0.000976562, 0, 0.000976562, 0.0195312, 0.298828, -9.71387, 1.28.2022 18:24:25.993
589, 1.78773, 0.21274, 181.529, -0.000976562, 0, 0, -0.0527344, 0.317383, -9.66211, 1.28.2022 18:24:25.999
590, 1.78773, 0.21274, 181.529, -0.000976562, 0, 0, -0.0341797, 0.305664, -9.67773, 1.28.2022 18:24:26.007
591, 1.79472, 0.212833, 181.529, 0, 0, 0, 0.0107422, 0.272461, -9.69043, 1.28.2022 18:24:26.015
592, 1.79472, 0.212833, 181.529, 0.000976562, 0, 0, -0.0869141, 0.267578, -9.68262, 1.28.2022 18:24:26.023
593, 1.78773, 0.21274, 181.529, 0.000976562, 0, -0.000976562, -0.0166016, 0.292969, -9.73438, 1.28.2022 18:24:26.031
594, 1.78773, 0.21274, 181.529, 0, -0.000976562, -0.000976562, -0.0253906, 0.294922, -9.72949, 1.28.2022 18:24:26.039
595, 1.78773, 0.21274, 181.529, -0.000976562, 0, -0.000976562, -0.118164, 0.323242, -9.72266, 1.28.2022 18:24:26.047
596, 1.78773, 0.21274, 181.529, 0, 0, 0, -0.0195312, 0.311523, -9.65332, 1.28.2022 18:24:26.055
597, 1.78773, 0.21274, 181.529, 0, 0, -0.000976562, -0.0625, 0.286133, -9.66113, 1.28.2022 18:24:26.063
598, 1.78764, 0.219733, 181.529, -0.00195312, 0, 0, -0.0634766, 0.301758, -9.7002, 1.28.2022 18:24:26.071
599, 1.78764, 0.219733, 181.529, 0, 0, 0, -0.0117188, 0.304688, -9.71777, 1.28.2022 18:24:26.079
600, 1.78764, 0.219733, 181.529, 0.000976562, -0.000976562, 0, -0.0966797, 0.291992, -9.68848, 1.28.2022 18:24:26.087
601, 1.78764, 0.219733, 181.529, 0, 0, 0, -0.0283203, 0.304688, -9.72461, 1.28.2022 18:24:26.095
602, 1.78764, 0.219733, 181.529, -0.000976562, 0, 0.000976562, -0.00488281, 0.283203, -9.74707, 1.28.2022 18:24:26.103
603, 1.78764, 0.219733, 181.529, -0.000976562, 0, 0, -0.078125, 0.319336, -9.74023, 1.28.2022 18:24:26.111
604, 1.78754, 0.226726, 181.528, -0.000976562, 0, 0, -0.00488281, 0.297852, -9.76074, 1.28.2022 18:24:26.119
605, 1.78754, 0.226726, 181.528, -0.000976562, 0, 0, -0.0400391, 0.323242, -9.70312, 1.28.2022 18:24:26.127
606, 1.78754, 0.226726, 181.528, -0.000976562, 0.000976562, 0, -0.0429688, 0.314453, -9.75488, 1.28.2022 18:24:26.135
607, 1.78754, 0.226726, 181.528, -0.000976562, -0.000976562, 0, 0.0195312, 0.294922, -9.73535, 1.28.2022 18:24:26.143
608, 1.78754, 0.226726, 181.528, -0.00195312, 0, 0, -0.0830078, 0.294922, -9.72852, 1.28.2022 18:24:26.151
609, 1.78754, 0.226726, 181.528, -0.000976562, 0, 0.000976562, -0.0400391, 0.311523, -9.71973, 1.28.2022 18:24:26.159
610, 1.78754, 0.226726, 181.528, -0.000976562, -0.000976562, 0, -0.0185547, 0.291992, -9.71387, 1.28.2022 18:24:26.167
611, 1.78754, 0.226726, 181.528, -0.000976562, 0, 0.000976562, -0.0947266, 0.314453, -9.71875, 1.28.2022 18:24:26.175
612, 1.78756, 0.226616, 181.521, 0.000976562, -0.000976562, 0, 0.00976562, 0.288086, -9.73242, 1.28.2022 18:24:26.183
613, 1.78057, 0.226523, 181.521, -0.000976562, -0.000976562, 0, -0.0380859, 0.280273, -9.72949, 1.28.2022 18:24:26.191
614, 1.78057, 0.226523, 181.521, -0.000976562, 0, 0, -0.0722656, 0.310547, -9.68848, 1.28.2022 18:24:26.199
615, 1.78057, 0.226523, 181.521, -0.000976562, 0, 0, -0.0117188, 0.276367, -9.74707, 1.28.2022 18:24:26.207
616, 1.78057, 0.226523, 181.521, 0, 0, 0, -0.106445, 0.287109, -9.69531, 1.28.2022 18:24:26.215
617, 1.78057, 0.226523, 181.521, -0.000976562, 0, -0.000976562, -0.0478516, 0.302734, -9.73828, 1.28.2022 18:24:26.223
618, 1.78048, 0.233516, 181.521, 0, 0, -0.000976562, -0.0253906, 0.287109, -9.71387, 1.28.2022 18:24:26.231
619, 1.78046, 0.233625, 181.528, 0, 0, -0.000976562, -0.104492, 0.321289, -9.72559, 1.28.2022 18:24:26.239
620, 1.78046, 0.233625, 181.528, 0, 0, 0, 0.00585938, 0.321289, -9.71484, 1.28.2022 18:24:26.247
621, 1.78046, 0.233625, 181.528, 0, 0, -0.000976562, -0.0351562, 0.318359, -9.71191, 1.28.2022 18:24:26.255
622, 1.78046, 0.233625, 181.528, 0, 0, -0.000976562, -0.0517578, 0.31543, -9.68848, 1.28.2022 18:24:26.263
623, 1.78046, 0.233625, 181.528, -0.00195312, -0.000976562, 0, -0.0117188, 0.299805, -9.73242, 1.28.2022 18:24:26.271
624, 1.78046, 0.233625, 181.528, -0.000976562, 0, 0, -0.0683594, 0.306641, -9.7002, 1.28.2022 18:24:26.279
625, 1.78046, 0.233625, 181.528, 0, 0, 0, -0.0566406, 0.30957, -9.75, 1.28.2022 18:24:26.287
626, 1.78037, 0.240618, 181.528, -0.000976562, 0.000976562, 0, -0.00390625, 0.296875, -9.72266, 1.28.2022 18:24:26.295
627, 1.78037, 0.240618, 181.528, -0.000976562, 0.000976562, 0, -0.101562, 0.311523, -9.70703, 1.28.2022 18:24:26.303
628, 1.78037, 0.240618, 181.528, -0.00195312, 0, 0, -0.0205078, 0.287109, -9.70605, 1.28.2022 18:24:26.311
629, 1.78037, 0.240618, 181.528, -0.000976562, 0.000976562, -0.000976562, -0.046875, 0.288086, -9.73145, 1.28.2022 18:24:26.319
630, 1.78037, 0.240618, 181.528, -0.000976562, 0, 0, -0.0585938, 0.308594, -9.71484, 1.28.2022 18:24:26.327
631, 1.78037, 0.240618, 181.528, -0.000976562, 0, 0, 0.0195312, 0.292969, -9.74023, 1.28.2022 18:24:26.335
632, 1.78037, 0.240618, 181.528, 0, 0, 0, -0.0878906, 0.314453, -9.72852, 1.28.2022 18:24:26.343
633, 1.78037, 0.240618, 181.528, 0, -0.00195312, 0, -0.0644531, 0.307617, -9.74316, 1.28.2022 18:24:26.351
634, 1.78037, 0.240618, 181.528, 0, -0.00195312, 0, -0.0234375, 0.291016, -9.74121, 1.28.2022 18:24:26.359
635, 1.78037, 0.240618, 181.528, 0, 0, 0, -0.0849609, 0.334961, -9.69238, 1.28.2022 18:24:26.367
636, 1.78028, 0.247611, 181.528, -0.000976562, -0.00195312, 0, -0.0117188, 0.308594, -9.71973, 1.28.2022 18:24:26.375
637, 1.78028, 0.247611, 181.528, -0.000976562, 0, 0, -0.0302734, 0.323242, -9.70801, 1.28.2022 18:24:26.383
638, 1.78028, 0.247611, 181.528, 0, 0, 0, -0.0498047, 0.336914, -9.75684, 1.28.2022 18:24:26.391
639, 1.78028, 0.247611, 181.528, 0, -0.00195312, -0.00195312, 0.0126953, 0.279297, -9.69043, 1.28.2022 18:24:26.399
640, 1.78028, 0.247611, 181.528, -0.000976562, 0, -0.000976562, -0.0517578, 0.285156, -9.70312, 1.28.2022 18:24:26.407
641, 1.78028, 0.247611, 181.528, -0.000976562, 0, 0, -0.0449219, 0.304688, -9.71973, 1.28.2022 18:24:26.415
642, 1.78726, 0.247704, 181.528, 0, 0, 0, -0.0185547, 0.263672, -9.7334, 1.28.2022 18:24:26.423
643, 1.78726, 0.247704, 181.528, -0.000976562, 0, 0, -0.0664062, 0.291992, -9.71289, 1.28.2022 18:24:26.431
644, 1.78028, 0.247611, 181.528, 0, 0, 0.000976562, 0.0078125, 0.298828, -9.7041, 1.28.2022 18:24:26.439
645, 1.78028, 0.247611, 181.528, -0.000976562, 0, 0, -0.0341797, 0.305664, -9.68457, 1.28.2022 18:24:26.447
646, 1.78028, 0.247611, 181.528, 0, 0, 0, -0.0585938, 0.306641, -9.71191, 1.28.2022 18:24:26.455
647, 1.78037, 0.240618, 181.528, -0.000976562, 0.000976562, 0, 0.0175781, 0.273438, -9.7168, 1.28.2022 18:24:26.463
648, 1.78037, 0.240618, 181.528, 0, 0, 0, -0.0761719, 0.3125, -9.73535, 1.28.2022 18:24:26.471
649, 1.78037, 0.240618, 181.528, 0.000976562, -0.00195312, 0, -0.0449219, 0.324219, -9.74707, 1.28.2022 18:24:26.479
650, 1.78037, 0.240618, 181.528, 0, 0, 0, 0.00292969, 0.299805, -9.72754, 1.28.2022 18:24:26.487
651, 1.78037, 0.240618, 181.528, -0.000976562, 0, 0, -0.103516, 0.310547, -9.68066, 1.28.2022 18:24:26.495
652, 1.78037, 0.240618, 181.528, -0.000976562, -0.00195312, 0, -0.0283203, 0.302734, -9.73145, 1.28.2022 18:24:26.503
653, 1.78037, 0.240618, 181.528, -0.000976562, 0, 0, -0.0488281, 0.277344, -9.69434, 1.28.2022 18:24:26.511
654, 1.78037, 0.240618, 181.528, 0, -0.00195312, 0, -0.0849609, 0.296875, -9.70996, 1.28.2022 18:24:26.519
655, 1.78037, 0.240618, 181.528, -0.000976562, 0, 0.000976562, 0.00976562, 0.301758, -9.72754, 1.28.2022 18:24:26.527
656, 1.78039, 0.240509, 181.521, 0, 0, 0, -0.0517578, 0.296875, -9.70996, 1.28.2022 18:24:26.535
657, 1.78039, 0.240509, 181.521, 0, 0, 0, -0.0517578, 0.290039, -9.71289, 1.28.2022 18:24:26.543
658, 1.78039, 0.240509, 181.521, 0, -0.00195312, 0, -0.00683594, 0.268555, -9.74023, 1.28.2022 18:24:26.551
659, 1.7734, 0.240416, 181.521, 0, -0.00195312, 0, -0.101562, 0.320312, -9.7041, 1.28.2022 18:24:26.559
660, 1.7734, 0.240416, 181.521, 0, -0.00195312, 0, -0.0166016, 0.286133, -9.74219, 1.28.2022 18:24:26.567
661, 1.7734, 0.240416, 181.521, -0.00195312, 0, 0, -0.0322266, 0.286133, -9.6875, 1.28.2022 18:24:26.575
662, 1.7734, 0.240416, 181.521, -0.000976562, 0, -0.00195312, -0.0888672, 0.329102, -9.66211, 1.28.2022 18:24:26.583
663, 1.77338, 0.240525, 181.528, -0.000976562, 0, 0, 0.0146484, 0.272461, -9.70996, 1.28.2022 18:24:26.591
664, 1.77338, 0.240525, 181.528, 0, 0, 0, -0.0849609, 0.305664, -9.68555, 1.28.2022 18:24:26.599
665, 1.77338, 0.240525, 181.528, -0.000976562, 0, 0, -0.0537109, 0.333984, -9.67578, 1.28.2022 18:24:26.607
666, 1.77338, 0.240525, 181.528, 0, 0, 0, -0.0117188, 0.291992, -9.7207, 1.28.2022 18:24:26.615
667, 1.77338, 0.240525, 181.528, 0, 0.000976562, 0, -0.101562, 0.324219, -9.72754, 1.28.2022 18:24:26.623
668, 1.7734, 0.240416, 181.521, -0.000976562, 0, 0.000976562, -0.0419922, 0.288086, -9.71973, 1.28.2022 18:24:26.631
669, 1.7734, 0.240416, 181.521, -0.000976562, 0, 0.000976562, -0.0166016, 0.273438, -9.72852, 1.28.2022 18:24:26.639
670, 1.77331, 0.247409, 181.521, 0, 0, -0.00195312, -0.0644531, 0.286133, -9.73633, 1.28.2022 18:24:26.647
671, 1.77331, 0.247409, 181.521, -0.000976562, 0, -0.00195312, 0.0117188, 0.269531, -9.74512, 1.28.2022 18:24:26.655
672, 1.77329, 0.247517, 181.528, -0.000976562, -0.000976562, -0.00195312, -0.0380859, 0.285156, -9.72949, 1.28.2022 18:24:26.663
673, 1.7663, 0.247424, 181.528, -0.000976562, 0, -0.00195312, -0.0322266, 0.31543, -9.70117, 1.28.2022 18:24:26.671
674, 1.7663, 0.247424, 181.528, -0.000976562, 0, 0, 0.0126953, 0.299805, -9.73242, 1.28.2022 18:24:26.679
675, 1.7663, 0.247424, 181.528, 0, -0.000976562, -0.000976562, -0.0869141, 0.303711, -9.69531, 1.28.2022 18:24:26.687
676, 1.7663, 0.247424, 181.528, 0, 0, 0.000976562, -0.0419922, 0.303711, -9.70312, 1.28.2022 18:24:26.695
677, 1.76639, 0.240431, 181.528, -0.000976562, 0, 0, -0.0273438, 0.279297, -9.68555, 1.28.2022 18:24:26.703
678, 1.76639, 0.240431, 181.528, -0.000976562, 0.000976562, 0, -0.0644531, 0.310547, -9.76172, 1.28.2022 18:24:26.711
679, 1.76639, 0.240431, 181.528, -0.000976562, 0, 0, 0.0234375, 0.291016, -9.75, 1.28.2022 18:24:26.719
680, 1.76639, 0.240431, 181.528, 0, 0.000976562, -0.00195312, -0.0429688, 0.299805, -9.73438, 1.28.2022 18:24:26.727
681, 1.76639, 0.240431, 181.528, 0, 0, -0.00195312, -0.0283203, 0.301758, -9.71094, 1.28.2022 18:24:26.735
682, 1.76639, 0.240431, 181.528, -0.000976562, 0, 0, 0.0175781, 0.311523, -9.70898, 1.28.2022 18:24:26.743
683, 1.76639, 0.240431, 181.528, 0, -0.000976562, -0.000976562, -0.0703125, 0.323242, -9.71387, 1.28.2022 18:24:26.751
684, 1.76648, 0.233438, 181.528, -0.000976562, 0, 0, -0.0234375, 0.324219, -9.73145, 1.28.2022 18:24:26.759
685, 1.76648, 0.233438, 181.528, -0.000976562, 0, -0.00195312, -0.0117188, 0.276367, -9.74219, 1.28.2022 18:24:26.767
686, 1.76648, 0.233438, 181.528, 0, 0, -0.00195312, -0.0849609, 0.311523, -9.7168, 1.28.2022 18:24:26.775
687, 1.76648, 0.233438, 181.528, 0, -0.000976562, -0.00195312, 0.00488281, 0.271484, -9.75195, 1.28.2022 18:24:26.783
688, 1.76648, 0.233438, 181.528, 0, -0.000976562, -0.000976562, -0.0712891, 0.306641, -9.72168, 1.28.2022 18:24:26.791
689, 1.76658, 0.226445, 181.528, -0.000976562, 0, -0.00195312, -0.0615234, 0.321289, -9.73828, 1.28.2022 18:24:26.799
690, 1.76658, 0.226445, 181.528, 0, 0, 0.000976562, 0.00292969, 0.313477, -9.71973, 1.28.2022 18:24:26.807
691, 1.76658, 0.226445, 181.528, 0, 0, -0.00195312, -0.0878906, 0.316406, -9.73535, 1.28.2022 18:24:26.815
692, 1.76658, 0.226445, 181.528, 0, 0, 0, -0.0400391, 0.311523, -9.70508, 1.28.2022 18:24:26.823
693, 1.76658, 0.226445, 181.528, 0, 0, 0, -0.0175781, 0.304688, -9.66797, 1.28.2022 18:24:26.831
694, 1.76658, 0.226445, 181.528, 0, 0, -0.000976562, -0.0917969, 0.327148, -9.67383, 1.28.2022 18:24:26.839
695, 1.76658, 0.226445, 181.528, 0, 0.000976562, 0, 0.0126953, 0.277344, -9.7002, 1.28.2022 18:24:26.847
696, 1.76658, 0.226445, 181.528, 0, -0.00195312, 0, -0.0634766, 0.27832, -9.71582, 1.28.2022 18:24:26.855
697, 1.76658, 0.226445, 181.528, 0, 0, -0.000976562, -0.0810547, 0.329102, -9.74414, 1.28.2022 18:24:26.863
698, 1.76658, 0.226445, 181.528, 0, -0.00195312, -0.000976562, 0.0117188, 0.294922, -9.74023, 1.28.2022 18:24:26.871
699, 1.76658, 0.226445, 181.528, 0, 0, -0.000976562, -0.078125, 0.304688, -9.72656, 1.28.2022 18:24:26.879
700, 1.76658, 0.226445, 181.528, 0, 0, 0, -0.046875, 0.344727, -9.7041, 1.28.2022 18:24:26.887
701, 1.77357, 0.226539, 181.528, 0, 0, 0, -0.0351562, 0.283203, -9.73242, 1.28.2022 18:24:26.895
702, 1.77357, 0.226539, 181.528, 0, 0.000976562, 0, -0.0810547, 0.307617, -9.74219, 1.28.2022 18:24:26.903
703, 1.77357, 0.226539, 181.528, 0, 0, 0.000976562, 0.00585938, 0.293945, -9.71094, 1.28.2022 18:24:26.911
704, 1.77357, 0.226539, 181.528, 0, 0, 0, -0.0332031, 0.30957, -9.74316, 1.28.2022 18:24:26.919
705, 1.77357, 0.226539, 181.528, -0.000976562, 0.000976562, 0, -0.0351562, 0.30957, -9.72461, 1.28.2022 18:24:26.927
706, 1.77357, 0.226539, 181.528, -0.000976562, 0, 0, 0.0205078, 0.289062, -9.68848, 1.28.2022 18:24:26.935
707, 1.77357, 0.226539, 181.528, 0, -0.00195312, 0, -0.0800781, 0.308594, -9.70996, 1.28.2022 18:24:26.943
708, 1.77357, 0.226539, 181.528, 0, -0.00195312, 0, -0.0234375, 0.288086, -9.74219, 1.28.2022 18:24:26.951
709, 1.77357, 0.226539, 181.528, -0.000976562, 0, 0, -0.0214844, 0.289062, -9.75879, 1.28.2022 18:24:26.959
710, 1.77357, 0.226539, 181.528, -0.000976562, 0, 0.000976562, -0.0947266, 0.313477, -9.70898, 1.28.2022 18:24:26.967
711, 1.78056, 0.226632, 181.528, 0, 0, 0, 0.000976562, 0.322266, -9.69141, 1.28.2022 18:24:26.973
712, 1.78056, 0.226632, 181.528, -0.000976562, 0, -0.000976562, -0.0380859, 0.294922, -9.73438, 1.28.2022 18:24:26.981
713, 1.78056, 0.226632, 181.528, 0, 0, 0, -0.0556641, 0.308594, -9.69336, 1.28.2022 18:24:26.989
714, 1.78056, 0.226632, 181.528, -0.000976562, -0.00195312, 0, 0.0107422, 0.279297, -9.69336, 1.28.2022 18:24:26.997
715, 1.78056, 0.226632, 181.528, -0.000976562, 0, 0.000976562, -0.0732422, 0.282227, -9.70605, 1.28.2022 18:24:27.005
716, 1.78056, 0.226632, 181.528, -0.000976562, -0.00195312, 0, -0.0332031, 0.288086, -9.72266, 1.28.2022 18:24:27.013
717, 1.78056, 0.226632, 181.528, 0, 0, 0, -0.0224609, 0.301758, -9.70117, 1.28.2022 18:24:27.021
718, 1.78056, 0.226632, 181.528, -0.000976562, 0, 0, -0.0966797, 0.323242, -9.7207, 1.28.2022 18:24:27.029
719, 1.78056, 0.226632, 181.528, -0.000976562, 0, -0.000976562, -0.0371094, 0.296875, -9.69922, 1.28.2022 18:24:27.037
720, 1.78056, 0.226632, 181.528, -0.000976562, 0, 0, -0.0302734, 0.299805, -9.72266, 1.28.2022 18:24:27.045
721, 1.78056, 0.226632, 181.528, -0.000976562, 0, 0, -0.0712891, 0.324219, -9.74707, 1.28.2022 18:24:27.053
722, 1.78056, 0.226632, 181.528, 0, -0.00195312, 0, 0.00292969, 0.301758, -9.71387, 1.28.2022 18:24:27.061
723, 1.78056, 0.226632, 181.528, -0.000976562, 0, 0, -0.0439453, 0.291992, -9.69141, 1.28.2022 18:24:27.069
724, 1.78056, 0.226632, 181.528, -0.000976562, 0.000976562, 0.000976562, -0.0332031, 0.316406, -9.73828, 1.28.2022 18:24:27.077
725, 1.78056, 0.226632, 181.528, -0.000976562, -0.00195312, 0, -0.00195312, 0.292969, -9.72754, 1.28.2022 18:24:27.085
726, 1.78046, 0.233625, 181.528, -0.000976562, -0.000976562, 0, -0.0927734, 0.30957, -9.72363, 1.28.2022 18:24:27.093
727, 1.78046, 0.233625, 181.528, -0.000976562, -0.000976562, 0, -0.0126953, 0.30957, -9.66309, 1.28.2022 18:24:27.101
728, 1.78048, 0.233516, 181.521, -0.000976562, -0.000976562, 0.000976562, -0.0283203, 0.290039, -9.71582, 1.28.2022 18:24:27.109
729, 1.78048, 0.233516, 181.521, -0.000976562, 0, 0, -0.0751953, 0.316406, -9.70508, 1.28.2022 18:24:27.117
730, 1.78048, 0.233516, 181.521, -0.000976562, 0, 0, 0.0175781, 0.298828, -9.70898, 1.28.2022 18:24:27.125
731, 1.78048, 0.233516, 181.521, 0, 0, 0, -0.0546875, 0.299805, -9.72168, 1.28.2022 18:24:27.133
732, 1.78048, 0.233516, 181.521, 0, 0, -0.00195312, -0.0537109, 0.320312, -9.7002, 1.28.2022 18:24:27.141
733, 1.78056, 0.226632, 181.528, 0, 0, -0.00195312, 0.0117188, 0.273438, -9.74023, 1.28.2022 18:24:27.149
734, 1.78056, 0.226632, 181.528, 0, 0.000976562, 0, -0.0820312, 0.303711, -9.69824, 1.28.2022 18:24:27.157
735, 1.78056, 0.226632, 181.528, 0, 0.000976562, 0, -0.0302734, 0.290039, -9.71289, 1.28.2022 18:24:27.165
736, 1.78056, 0.226632, 181.528, -0.000976562, 0, 0, -0.0585938, 0.306641, -9.7168, 1.28.2022 18:24:27.173
737, 1.78056, 0.226632, 181.528, -0.000976562, 0, 0, -0.0976562, 0.304688, -9.72168, 1.28.2022 18:24:27.181
738, 1.78056, 0.226632, 181.528, -0.000976562, -0.000976562, 0, 0.0175781, 0.298828, -9.70898, 1.28.2022 18:24:27.189
739, 1.78056, 0.226632, 181.528, 0, 0, -0.00195312, -0.0664062, 0.296875, -9.7168, 1.28.2022 18:24:27.197
740, 1.78056, 0.226632, 181.528, 0, 0, 0, -0.0283203, 0.3125, -9.74805, 1.28.2022 18:24:27.205
741, 1.78056, 0.226632, 181.528, 0, 0, 0, 0.00488281, 0.273438, -9.72852, 1.28.2022 18:24:27.213
742, 1.78056, 0.226632, 181.528, 0, 0, 0, -0.0732422, 0.316406, -9.71875, 1.28.2022 18:24:27.221
743, 1.78056, 0.226632, 181.528, 0, 0, 0, -0.0117188, 0.304688, -9.74121, 1.28.2022 18:24:27.229
744, 1.78056, 0.226632, 181.528, -0.000976562, 0, 0, -0.0185547, 0.313477, -9.70996, 1.28.2022 18:24:27.237
745, 1.78056, 0.226632, 181.528, -0.000976562, 0, 0, -0.0878906, 0.286133, -9.74805, 1.28.2022 18:24:27.245
746, 1.78056, 0.226632, 181.528, 0, 0, 0, 0.0244141, 0.260742, -9.70801, 1.28.2022 18:24:27.253
747, 1.78056, 0.226632, 181.528, 0, -0.000976562, -0.00195312, -0.0439453, 0.323242, -9.70312, 1.28.2022 18:24:27.261
748, 1.78056, 0.226632, 181.528, 0, 0, 0, -0.0439453, 0.31543, -9.70312, 1.28.2022 18:24:27.269
749, 1.78056, 0.226632, 181.528, -0.000976562, 0, 0, 0.00292969, 0.286133, -9.74707, 1.28.2022 18:24:27.277
750, 1.78056, 0.226632, 181.528, -0.00195312, -0.000976562, 0, -0.0917969, 0.332031, -9.69727, 1.28.2022 18:24:27.285
751, 1.78056, 0.226632, 181.528, -0.000976562, 0, 0, -0.0449219, 0.333984, -9.73535, 1.28.2022 18:24:27.293
752, 1.78056, 0.226632, 181.528, 0, 0, 0, -0.0166016, 0.268555, -9.73535, 1.28.2022 18:24:27.301
753, 1.78056, 0.226632, 181.528, -0.000976562, 0, 0, -0.0732422, 0.306641, -9.70703, 1.28.2022 18:24:27.309
754, 1.78056, 0.226632, 181.528, -0.000976562, -0.000976562, 0, 0.0126953, 0.275391, -9.70508, 1.28.2022 18:24:27.317
755, 1.78056, 0.226632, 181.528, -0.000976562, -0.000976562, 0, -0.0166016, 0.285156, -9.73242, 1.28.2022 18:24:27.325
756, 1.78056, 0.226632, 181.528, -0.000976562, 0, 0, -0.0322266, 0.310547, -9.69336, 1.28.2022 18:24:27.333
757, 1.78056, 0.226632, 181.528, -0.000976562, 0, 0, 0.0273438, 0.287109, -9.71387, 1.28.2022 18:24:27.341
758, 1.78065, 0.219639, 181.529, 0, -0.000976562, 0, -0.101562, 0.311523, -9.71387, 1.28.2022 18:24:27.349
759, 1.78065, 0.219639, 181.529, 0, -0.000976562, 0, -0.0234375, 0.313477, -9.72168, 1.28.2022 18:24:27.357
760, 1.77366, 0.219546, 181.529, -0.000976562, 0.000976562, 0.000976562, 0.00683594, 0.268555, -9.74316, 1.28.2022 18:24:27.365
761, 1.77366, 0.219546, 181.529, -0.000976562, 0, 0.000976562, -0.0830078, 0.307617, -9.74707, 1.28.2022 18:24:27.373
762, 1.77366, 0.219546, 181.529, -0.000976562, 0, 0, 0.000976562, 0.272461, -9.71191, 1.28.2022 18:24:27.381
763, 1.77366, 0.219546, 181.529, -0.000976562, -0.000976562, -0.00195312, -0.0302734, 0.299805, -9.72461, 1.28.2022 18:24:27.389
764, 1.77366, 0.219546, 181.529, -0.000976562, -0.000976562, 0, -0.0585938, 0.308594, -9.70312, 1.28.2022 18:24:27.397
765, 1.77366, 0.219546, 181.529, -0.000976562, -0.000976562, 0, -0.0224609, 0.274414, -9.68262, 1.28.2022 18:24:27.405
766, 1.77375, 0.212553, 181.529, 0, 0, 0, -0.0878906, 0.306641, -9.72852, 1.28.2022 18:24:27.413
767, 1.77375, 0.212553, 181.529, -0.000976562, 0, 0, -0.0205078, 0.292969, -9.72754, 1.28.2022 18:24:27.421
768, 1.77375, 0.212553, 181.529, -0.000976562, 0.000976562, -0.000976562, -0.0214844, 0.288086, -9.75098, 1.28.2022 18:24:27.429
769, 1.77375, 0.212553, 181.529, -0.000976562, 0, -0.000976562, -0.0849609, 0.310547, -9.68066, 1.28.2022 18:24:27.437
770, 1.77375, 0.212553, 181.529, -0.000976562, 0, -0.000976562, 0.00878906, 0.302734, -9.67383, 1.28.2022 18:24:27.445
771, 1.76676, 0.212459, 181.529, 0, 0, -0.000976562, -0.0302734, 0.304688, -9.73633, 1.28.2022 18:24:27.453
772, 1.76676, 0.212459, 181.529, 0, 0, 0, -0.0498047, 0.305664, -9.75977, 1.28.2022 18:24:27.461
773, 1.76676, 0.212459, 181.529, 0, 0.000976562, 0, 0.00488281, 0.268555, -9.72852, 1.28.2022 18:24:27.469
774, 1.76676, 0.212459, 181.529, 0, 0, 0, -0.0849609, 0.299805, -9.73145, 1.28.2022 18:24:27.477
775, 1.76676, 0.212459, 181.529, -0.000976562, 0, 0, -0.0332031, 0.301758, -9.72949, 1.28.2022 18:24:27.485
776, 1.76676, 0.212459, 181.529, 0, -0.000976562, 0.000976562, -0.0234375, 0.3125, -9.74609, 1.28.2022 18:24:27.493
777, 1.76676, 0.212459, 181.529, -0.000976562, -0.000976562, 0.000976562, -0.0732422, 0.344727, -9.7041, 1.28.2022 18:24:27.501
778, 1.76676, 0.212459, 181.529, -0.000976562, 0, 0.000976562, -0.00195312, 0.311523, -9.71582, 1.28.2022 18:24:27.509
779, 1.76676, 0.212459, 181.529, 0, 0, 0, -0.0253906, 0.291016, -9.68262, 1.28.2022 18:24:27.517
780, 1.76676, 0.212459, 181.529, 0, -0.000976562, 0, -0.0654297, 0.293945, -9.69336, 1.28.2022 18:24:27.525
781, 1.76676, 0.212459, 181.529, -0.00195312, 0, -0.000976562, 0.0175781, 0.298828, -9.71387, 1.28.2022 18:24:27.533
782, 1.76676, 0.212459, 181.529, -0.000976562, 0, -0.000976562, -0.0546875, 0.286133, -9.7627, 1.28.2022 18:24:27.541
783, 1.76676, 0.212459, 181.529, 0, -0.000976562, -0.00195312, -0.0634766, 0.3125, -9.68359, 1.28.2022 18:24:27.549
784, 1.76676, 0.212459, 181.529, -0.000976562, 0, 0, -0.0205078, 0.277344, -9.70703, 1.28.2022 18:24:27.557
785, 1.76676, 0.212459, 181.529, -0.00195312, -0.000976562, 0, -0.0722656, 0.31543, -9.67383, 1.28.2022 18:24:27.565
786, 1.76676, 0.212459, 181.529, -0.00195312, 0, 0.000976562, -0.000976562, 0.279297, -9.66895, 1.28.2022 18:24:27.573
787, 1.76676, 0.212459, 181.529, 0, 0, 0, -0.0107422, 0.286133, -9.67383, 1.28.2022 18:24:27.581
788, 1.76676, 0.212459, 181.529, 0, -0.000976562, -0.00195312, -0.09375, 0.327148, -9.67773, 1.28.2022 18:24:27.589
789, 1.76676, 0.212459, 181.529, -0.000976562, -0.000976562, 0, 0.0126953, 0.280273, -9.71875, 1.28.2022 18:24:27.597
790, 1.76676, 0.212459, 181.529, -0.000976562, -0.000976562, 0, -0.0654297, 0.305664, -9.68164, 1.28.2022 18:24:27.605
791, 1.76676, 0.212459, 181.529, -0.000976562, 0, 0, -0.0419922, 0.310547, -9.7002, 1.28.2022 18:24:27.613
792, 1.76676, 0.212459, 181.529, -0.000976562, 0, -0.000976562, -0.0322266, 0.287109, -9.69434, 1.28.2022 18:24:27.621
793, 1.76676, 0.212459, 181.529, -0.000976562, 0, 0, -0.0712891, 0.317383, -9.74512, 1.28.2022 18:24:27.629
794, 1.76676, 0.212459, 181.529, -0.000976562, 0.000976562, -0.000976562, -0.0107422, 0.290039, -9.70898, 1.28.2022 18:24:27.637
795, 1.76676, 0.212459, 181.529, 0, 0.000976562, 0, -0.0566406, 0.306641, -9.71191, 1.28.2022 18:24:27.645
796, 1.76676, 0.212459, 181.529, -0.000976562, -0.000976562, 0, -0.046875, 0.308594, -9.70801, 1.28.2022 18:24:27.653
797, 1.76676, 0.212459, 181.529, -0.000976562, 0.000976562, 0, 0.0126953, 0.285156, -9.7168, 1.28.2022 18:24:27.661
798, 1.76676, 0.212459, 181.529, -0.000976562, 0, 0, -0.078125, 0.304688, -9.7168, 1.28.2022 18:24:27.669
799, 1.76676, 0.212459, 181.529, -0.000976562, 0, 0, -0.0517578, 0.311523, -9.7168, 1.28.2022 18:24:27.677
800, 1.76676, 0.212459, 181.529, -0.000976562, 0, 0, -0.0263672, 0.289062, -9.75586, 1.28.2022 18:24:27.685
801, 1.76676, 0.212459, 181.529, -0.00195312, 0, 0, -0.0810547, 0.347656, -9.73926, 1.28.2022 18:24:27.693
802, 1.77366, 0.219546, 181.529, -0.000976562, 0, 0, -0.0351562, 0.299805, -9.73438, 1.28.2022 18:24:27.701
803, 1.77366, 0.219546, 181.529, 0, 0, 0, -0.0234375, 0.290039, -9.73242, 1.28.2022 18:24:27.709
804, 1.77366, 0.219546, 181.529, 0, 0, 0, -0.0849609, 0.3125, -9.68359, 1.28.2022 18:24:27.717
805, 1.77366, 0.219546, 181.529, -0.000976562, 0, 0, 0.03125, 0.323242, -9.72559, 1.28.2022 18:24:27.725
806, 1.77366, 0.219546, 181.529, -0.000976562, 0, 0, -0.0517578, 0.298828, -9.69336, 1.28.2022 18:24:27.733
807, 1.77366, 0.219546, 181.529, -0.000976562, 0, 0, -0.0351562, 0.30957, -9.71973, 1.28.2022 18:24:27.741
808, 1.77366, 0.219546, 181.529, 0, 0.000976562, -0.000976562, 0.0107422, 0.283203, -9.66211, 1.28.2022 18:24:27.749
809, 1.77366, 0.219546, 181.529, -0.000976562, -0.000976562, 0, -0.0908203, 0.288086, -9.64844, 1.28.2022 18:24:27.757
810, 1.77366, 0.219546, 181.529, -0.000976562, 0, -0.000976562, -0.0380859, 0.304688, -9.74121, 1.28.2022 18:24:27.765
811, 1.77366, 0.219546, 181.529, -0.000976562, 0, 0, -0.00878906, 0.292969, -9.72754, 1.28.2022 18:24:27.773
812, 1.77366, 0.219546, 181.529, 0, -0.000976562, 0, -0.0820312, 0.300781, -9.66699, 1.28.2022 18:24:27.781
813, 1.77366, 0.219546, 181.529, 0, 0, 0, 0.00390625, 0.267578, -9.68848, 1.28.2022 18:24:27.789
814, 1.77366, 0.219546, 181.529, 0, 0, 0, -0.0585938, 0.291992, -9.71484, 1.28.2022 18:24:27.797
815, 1.77366, 0.219546, 181.529, 0, -0.000976562, 0, -0.0332031, 0.301758, -9.71973, 1.28.2022 18:24:27.805
816, 1.77366, 0.219546, 181.529, 0, -0.000976562, 0.000976562, 0, 0.280273, -9.72559, 1.28.2022 18:24:27.813
817, 1.77366, 0.219546, 181.529, 0, 0, 0, -0.0996094, 0.326172, -9.72266, 1.28.2022 18:24:27.821
818, 1.77366, 0.219546, 181.529, 0, 0, 0.000976562, -0.0234375, 0.306641, -9.71484, 1.28.2022 18:24:27.829
819, 1.77366, 0.219546, 181.529, 0, -0.000976562, 0, -0.0351562, 0.299805, -9.72754, 1.28.2022 18:24:27.837
820, 1.77366, 0.219546, 181.529, -0.000976562, 0, -0.000976562, -0.0849609, 0.333984, -9.68066, 1.28.2022 18:24:27.845
821, 1.77366, 0.219546, 181.529, -0.000976562, 0, 0, 0.0273438, 0.289062, -9.70898, 1.28.2022 18:24:27.853
822, 1.77357, 0.226539, 181.528, -0.000976562, -0.000976562, 0, -0.0371094, 0.282227, -9.70605, 1.28.2022 18:24:27.861
823, 1.77357, 0.226539, 181.528, -0.000976562, 0, 0, -0.0664062, 0.305664, -9.75977, 1.28.2022 18:24:27.869
824, 1.77357, 0.226539, 181.528, -0.000976562, 0, 0.000976562, 0.0107422, 0.282227, -9.69531, 1.28.2022 18:24:27.877
825, 1.77357, 0.226539, 181.528, 0, 0, -0.00195312, -0.0830078, 0.325195, -9.7041, 1.28.2022 18:24:27.885
826, 1.77366, 0.219546, 181.529, -0.000976562, 0.00195312, 0, -0.0351562, 0.306641, -9.70801, 1.28.2022 18:24:27.893
827, 1.77366, 0.219546, 181.529, -0.000976562, 0, 0.000976562, -0.0263672, 0.297852, -9.73633, 1.28.2022 18:24:27.901
828, 1.77366, 0.219546, 181.529, -0.000976562, 0, 0, -0.0800781, 0.328125, -9.71875, 1.28.2022 18:24:27.909
829, 1.77357, 0.226539, 181.528, -0.000976562, -0.00195312, 0.000976562, 0, 0.290039, -9.73926, 1.28.2022 18:24:27.917
830, 1.77357, 0.226539, 181.528, -0.000976562, 0.000976562, 0, -0.0712891, 0.304688, -9.71484, 1.28.2022 18:24:27.925
831, 1.77357, 0.226539, 181.528, -0.000976562, 0, 0, -0.0419922, 0.293945, -9.70117, 1.28.2022 18:24:27.933
832, 1.77357, 0.226539, 181.528, -0.000976562, -0.000976562, 0, 0.0341797, 0.273438, -9.72656, 1.28.2022 18:24:27.941
833, 1.77357, 0.226539, 181.528, -0.000976562, -0.000976562, 0, -0.0566406, 0.30957, -9.74805, 1.28.2022 18:24:27.949
834, 1.77359, 0.22643, 181.521, 0, 0, 0, -0.0478516, 0.305664, -9.76953, 1.28.2022 18:24:27.955
835, 1.77359, 0.22643, 181.521, -0.000976562, 0, 0, -0.0136719, 0.301758, -9.71094, 1.28.2022 18:24:27.963
836, 1.77359, 0.22643, 181.521, -0.000976562, 0, 0, -0.0634766, 0.311523, -9.70508, 1.28.2022 18:24:27.971
837, 1.77359, 0.22643, 181.521, -0.000976562, 0, 0, 0.00976562, 0.275391, -9.72168, 1.28.2022 18:24:27.979
838, 1.77368, 0.219437, 181.522, -0.000976562, 0, 0, -0.0351562, 0.31543, -9.69336, 1.28.2022 18:24:27.987
839, 1.77368, 0.219437, 181.522, -0.000976562, -0.000976562, 0, -0.0537109, 0.328125, -9.70215, 1.28.2022 18:24:27.995
840, 1.77368, 0.219437, 181.522, 0, 0, 0, -0.00878906, 0.246094, -9.70508, 1.28.2022 18:24:28.003
841, 1.77368, 0.219437, 181.522, 0, 0, 0, -0.0947266, 0.292969, -9.72168, 1.28.2022 18:24:28.011
842, 1.77368, 0.219437, 181.522, -0.000976562, 0, 0, -0.0400391, 0.283203, -9.74121, 1.28.2022 18:24:28.019
843, 1.77368, 0.219437, 181.522, -0.000976562, -0.000976562, 0, -0.00585938, 0.296875, -9.70117, 1.28.2022 18:24:28.027
844, 1.77368, 0.219437, 181.522, 0, -0.000976562, 0, -0.0664062, 0.337891, -9.72754, 1.28.2022 18:24:28.035
845, 1.77368, 0.219437, 181.522, -0.000976562, 0, 0, -0.0175781, 0.31543, -9.68945, 1.28.2022 18:24:28.043
846, 1.77368, 0.219437, 181.522, -0.00195312, 0.000976562, 0, -0.0273438, 0.298828, -9.69141, 1.28.2022 18:24:28.051
847, 1.77368, 0.219437, 181.522, 0, 0, 0, -0.0537109, 0.304688, -9.71484, 1.28.2022 18:24:28.059
848, 1.77368, 0.219437, 181.522, -0.000976562, 0, 0, 0.00488281, 0.304688, -9.72949, 1.28.2022 18:24:28.067
849, 1.77368, 0.219437, 181.522, 0, -0.000976562, 0, -0.0908203, 0.310547, -9.76172, 1.28.2022 18:24:28.075
850, 1.77368, 0.219437, 181.522, 0, -0.000976562, 0, -0.0517578, 0.30957, -9.71973, 1.28.2022 18:24:28.083
851, 1.77368, 0.219437, 181.522, -0.000976562, -0.000976562, 0, 0, 0.292969, -9.72754, 1.28.2022 18:24:28.091
852, 1.77368, 0.219437, 181.522, -0.000976562, -0.00292969, 0, -0.0849609, 0.305664, -9.68164, 1.28.2022 18:24:28.099
853, 1.77368, 0.219437, 181.522, 0, 0, 0, 0.000976562, 0.296875, -9.71387, 1.28.2022 18:24:28.107
854, 1.77368, 0.219437, 181.522, 0, -0.000976562, -0.000976562, -0.0332031, 0.295898, -9.75586, 1.28.2022 18:24:28.115
855, 1.77359, 0.22643, 181.521, 0, -0.000976562, -0.000976562, -0.0634766, 0.320312, -9.67871, 1.28.2022 18:24:28.123
856, 1.77359, 0.22643, 181.521, -0.000976562, 0, -0.000976562, 0.015625, 0.269531, -9.68848, 1.28.2022 18:24:28.131
857, 1.77368, 0.219437, 181.522, -0.000976562, 0.000976562, -0.000976562, -0.0615234, 0.333008, -9.72852, 1.28.2022 18:24:28.139
858, 1.77368, 0.219437, 181.522, -0.000976562, 0, -0.000976562, -0.0419922, 0.306641, -9.70996, 1.28.2022 18:24:28.147
859, 1.77368, 0.219437, 181.522, 0, 0, -0.000976562, -0.00390625, 0.303711, -9.71777, 1.28.2022 18:24:28.155
860, 1.77368, 0.219437, 181.522, 0, 0.000976562, -0.00195312, -0.0947266, 0.322266, -9.74219, 1.28.2022 18:24:28.163
861, 1.77368, 0.219437, 181.522, 0, 0, -0.000976562, 0.00390625, 0.335938, -9.66992, 1.28.2022 18:24:28.171
862, 1.77368, 0.219437, 181.522, -0.000976562, 0.000976562, -0.000976562, -0.0195312, 0.305664, -9.6709, 1.28.2022 18:24:28.179
863, 1.77368, 0.219437, 181.522, 0, 0, -0.000976562, -0.0712891, 0.304688, -9.72656, 1.28.2022 18:24:28.187
864, 1.77368, 0.219437, 181.522, 0, 0, -0.000976562, 0.00292969, 0.271484, -9.74707, 1.28.2022 18:24:28.195
865, 1.78065, 0.219639, 181.529, -0.000976562, 0, -0.00195312, -0.0693359, 0.307617, -9.76367, 1.28.2022 18:24:28.203
866, 1.78065, 0.219639, 181.529, -0.000976562, -0.000976562, -0.000976562, -0.0449219, 0.295898, -9.74805, 1.28.2022 18:24:28.211
867, 1.78065, 0.219639, 181.529, -0.000976562, 0, -0.000976562, -0.0234375, 0.290039, -9.72949, 1.28.2022 18:24:28.219
868, 1.78065, 0.219639, 181.529, 0, 0, -0.00195312, -0.0898438, 0.318359, -9.71191, 1.28.2022 18:24:28.227
869, 1.78065, 0.219639, 181.529, -0.000976562, 0, -0.000976562, -0.0205078, 0.289062, -9.69434, 1.28.2022 18:24:28.235
870, 1.78065, 0.219639, 181.529, -0.000976562, 0, -0.000976562, -0.0283203, 0.296875, -9.71973, 1.28.2022 18:24:28.243
871, 1.78065, 0.219639, 181.529, -0.000976562, -0.000976562, -0.000976562, -0.0917969, 0.296875, -9.69531, 1.28.2022 18:24:28.251
872, 1.78065, 0.219639, 181.529, -0.000976562, -0.000976562, -0.000976562, -0.0136719, 0.283203, -9.73242, 1.28.2022 18:24:28.259
873, 1.78065, 0.219639, 181.529, -0.000976562, 0, 0.000976562, -0.0566406, 0.292969, -9.73828, 1.28.2022 18:24:28.267
874, 1.78065, 0.219639, 181.529, -0.000976562, 0.000976562, -0.000976562, -0.0517578, 0.301758, -9.71973, 1.28.2022 18:24:28.275
875, 1.78065, 0.219639, 181.529, -0.000976562, 0.000976562, -0.000976562, 0.0146484, 0.306641, -9.7207, 1.28.2022 18:24:28.283
876, 1.78065, 0.219639, 181.529, 0, -0.000976562, -0.000976562, -0.0693359, 0.3125, -9.74316, 1.28.2022 18:24:28.291
877, 1.78065, 0.219639, 181.529, 0, 0, -0.000976562, -0.00878906, 0.30957, -9.72461, 1.28.2022 18:24:28.299
878, 1.78065, 0.219639, 181.529, 0, 0, -0.00195312, -0.0253906, 0.294922, -9.73242, 1.28.2022 18:24:28.307
879, 1.78056, 0.226632, 181.528, -0.000976562, -0.000976562, -0.000976562, -0.0927734, 0.30957, -9.74023, 1.28.2022 18:24:28.315
880, 1.78056, 0.226632, 181.528, -0.000976562, 0, -0.000976562, -0.0136719, 0.256836, -9.73535, 1.28.2022 18:24:28.323
881, 1.78056, 0.226632, 181.528, -0.000976562, -0.000976562, -0.000976562, -0.0732422, 0.301758, -9.70996, 1.28.2022 18:24:28.331
882, 1.78056, 0.226632, 181.528, 0, 0, -0.00195312, -0.0419922, 0.316406, -9.72656, 1.28.2022 18:24:28.339
883, 1.77357, 0.226539, 181.528, 0, -0.000976562, -0.000976562, 0.00292969, 0.320312, -9.70605, 1.28.2022 18:24:28.347
884, 1.77357, 0.226539, 181.528, -0.000976562, -0.000976562, -0.000976562, -0.0966797, 0.308594, -9.70215, 1.28.2022 18:24:28.355
885, 1.77357, 0.226539, 181.528, 0, -0.000976562, -0.000976562, -0.015625, 0.320312, -9.69336, 1.28.2022 18:24:28.363
886, 1.77357, 0.226539, 181.528, -0.000976562, 0, 0, -0.0117188, 0.290039, -9.71875, 1.28.2022 18:24:28.371
887, 1.78056, 0.226632, 181.528, -0.00195312, 0.000976562, -0.000976562, -0.0878906, 0.297852, -9.73535, 1.28.2022 18:24:28.379
888, 1.78056, 0.226632, 181.528, 0, 0, -0.000976562, 0.0107422, 0.305664, -9.69727, 1.28.2022 18:24:28.387
889, 1.78056, 0.226632, 181.528, 0.000976562, 0, 0, -0.0302734, 0.298828, -9.69629, 1.28.2022 18:24:28.395
890, 1.77357, 0.226539, 181.528, -0.000976562, 0, 0, -0.0234375, 0.306641, -9.73145, 1.28.2022 18:24:28.403
891, 1.77357, 0.226539, 181.528, 0, 0, 0, 0.0146484, 0.277344, -9.71387, 1.28.2022 18:24:28.411
892, 1.77357, 0.226539, 181.528, 0, 0, 0, -0.0712891, 0.317383, -9.76367, 1.28.2022 18:24:28.419
893, 1.77357, 0.226539, 181.528, 0, 0, 0, -0.0166016, 0.295898, -9.75391, 1.28.2022 18:24:28.427
894, 1.77357, 0.226539, 181.528, -0.000976562, -0.000976562, 0, -0.0419922, 0.298828, -9.70117, 1.28.2022 18:24:28.435
895, 1.77357, 0.226539, 181.528, -0.000976562, 0.000976562, 0, -0.120117, 0.341797, -9.68945, 1.28.2022 18:24:28.443
896, 1.77357, 0.226539, 181.528, -0.000976562, 0, 0, 0.015625, 0.267578, -9.70312, 1.28.2022 18:24:28.451
897, 1.77357, 0.226539, 181.528, 0, 0, 0.000976562, -0.0351562, 0.291016, -9.73926, 1.28.2022 18:24:28.459
898, 1.77357, 0.226539, 181.528, 0, 0, 0, -0.0498047, 0.299805, -9.71777, 1.28.2022 18:24:28.467
899, 1.77357, 0.226539, 181.528, -0.000976562, 0, 0, -0.00976562, 0.298828, -9.78418, 1.28.2022 18:24:28.475
900, 1.77357, 0.226539, 181.528, 0, 0, 0, -0.0800781, 0.328125, -9.72363, 1.28.2022 18:24:28.483
901, 1.77357, 0.226539, 181.528, -0.000976562, -0.000976562, -0.000976562, -0.0302734, 0.316406, -9.71484, 1.28.2022 18:24:28.491
902, 1.77357, 0.226539, 181.528, -0.000976562, -0.000976562, -0.000976562, -0.0234375, 0.318359, -9.72656, 1.28.2022 18:24:28.499
903, 1.78056, 0.226632, 181.528, -0.000976562, 0, 0, -0.0761719, 0.30957, -9.74707, 1.28.2022 18:24:28.507
904, 1.78056, 0.226632, 181.528, 0, 0, 0, 0.0126953, 0.306641, -9.73047, 1.28.2022 18:24:28.515
905, 1.78056, 0.226632, 181.528, -0.000976562, 0, 0, -0.0634766, 0.290039, -9.70605, 1.28.2022 18:24:28.523
906, 1.78056, 0.226632, 181.528, -0.000976562, 0, 0, -0.0585938, 0.303711, -9.69141, 1.28.2022 18:24:28.531
907, 1.78056, 0.226632, 181.528, -0.000976562, 0, -0.000976562, 0.000976562, 0.320312, -9.71289, 1.28.2022 18:24:28.539
908, 1.78056, 0.226632, 181.528, -0.000976562, 0, 0, -0.0722656, 0.325195, -9.6875, 1.28.2022 18:24:28.547
909, 1.78056, 0.226632, 181.528, -0.00195312, 0, 0.000976562, -0.0605469, 0.310547, -9.69824, 1.28.2022 18:24:28.555
910, 1.78056, 0.226632, 181.528, -0.000976562, 0, 0, -0.0136719, 0.275391, -9.70898, 1.28.2022 18:24:28.563
911, 1.78754, 0.226726, 181.528, 0, 0, -0.000976562, -0.0869141, 0.313477, -9.68555, 1.28.2022 18:24:28.571
912, 1.78754, 0.226726, 181.528, 0, 0, 0, -0.0205078, 0.25293, -9.69531, 1.28.2022 18:24:28.579
913, 1.78754, 0.226726, 181.528, 0, 0.000976562, 0.000976562, -0.0498047, 0.299805, -9.74316, 1.28.2022 18:24:28.587
914, 1.78754, 0.226726, 181.528, 0, -0.000976562, 0, -0.0664062, 0.324219, -9.74219, 1.28.2022 18:24:28.595
915, 1.78754, 0.226726, 181.528, 0, -0.000976562, -0.00195312, 0.0175781, 0.285156, -9.72559, 1.28.2022 18:24:28.603
916, 1.78754, 0.226726, 181.528, 0, 0, -0.000976562, -0.0732422, 0.323242, -9.71875, 1.28.2022 18:24:28.611
917, 1.78754, 0.226726, 181.528, -0.000976562, 0, -0.000976562, -0.0263672, 0.288086, -9.74609, 1.28.2022 18:24:28.619
918, 1.78056, 0.226632, 181.528, 0, 0, 0.000976562, -0.0273438, 0.301758, -9.70801, 1.28.2022 18:24:28.627
919, 1.78046, 0.233625, 181.528, 0, -0.00195312, 0, -0.101562, 0.314453, -9.72559, 1.28.2022 18:24:28.635
920, 1.78046, 0.233625, 181.528, 0, 0, 0, 0.00878906, 0.289062, -9.67871, 1.28.2022 18:24:28.643
921, 1.78046, 0.233625, 181.528, -0.000976562, 0, 0, -0.0371094, 0.320312, -9.69336, 1.28.2022 18:24:28.651
922, 1.78046, 0.233625, 181.528, 0, -0.00195312, 0, -0.0693359, 0.310547, -9.75684, 1.28.2022 18:24:28.659
923, 1.78046, 0.233625, 181.528, 0, 0, 0, 0.0263672, 0.294922, -9.73047, 1.28.2022 18:24:28.667
924, 1.78046, 0.233625, 181.528, -0.000976562, 0, -0.000976562, -0.0732422, 0.297852, -9.72656, 1.28.2022 18:24:28.675
925, 1.78046, 0.233625, 181.528, 0, 0, -0.000976562, -0.0351562, 0.285156, -9.7207, 1.28.2022 18:24:28.683
926, 1.78046, 0.233625, 181.528, -0.000976562, 0, 0, -0.00683594, 0.285156, -9.73535, 1.28.2022 18:24:28.691
927, 1.78046, 0.233625, 181.528, -0.000976562, -0.00195312, 0, -0.0732422, 0.326172, -9.71582, 1.28.2022 18:24:28.699
928, 1.78046, 0.233625, 181.528, -0.00195312, 0.000976562, 0, 0.00390625, 0.293945, -9.6875, 1.28.2022 18:24:28.707
929, 1.78046, 0.233625, 181.528, -0.000976562, 0, -0.000976562, -0.0400391, 0.288086, -9.73926, 1.28.2022 18:24:28.715
930, 1.78046, 0.233625, 181.528, 0, 0, -0.000976562, -0.0751953, 0.325195, -9.68066, 1.28.2022 18:24:28.723
931, 1.78046, 0.233625, 181.528, 0, 0, 0, -0.0136719, 0.289062, -9.69238, 1.28.2022 18:24:28.731
932, 1.78046, 0.233625, 181.528, 0, 0, -0.000976562, -0.0917969, 0.310547, -9.68555, 1.28.2022 18:24:28.739
933, 1.78046, 0.233625, 181.528, 0, 0, 0.000976562, -0.0351562, 0.303711, -9.70312, 1.28.2022 18:24:28.747
934, 1.78046, 0.233625, 181.528, 0.000976562, -0.00195312, 0, -0.0136719, 0.285156, -9.71094, 1.28.2022 18:24:28.755
935, 1.78046, 0.233625, 181.528, 0, 0, 0, -0.0917969, 0.295898, -9.68652, 1.28.2022 18:24:28.763
936, 1.78046, 0.233625, 181.528, -0.000976562, 0, 0, -0.0253906, 0.289062, -9.7041, 1.28.2022 18:24:28.771
937, 1.78046, 0.233625, 181.528, -0.000976562, 0.000976562, 0, -0.0566406, 0.301758, -9.69824, 1.28.2022 18:24:28.779
938, 1.78046, 0.233625, 181.528, -0.000976562, 0, 0, -0.0996094, 0.301758, -9.70703, 1.28.2022 18:24:28.787
939, 1.78046, 0.233625, 181.528, -0.000976562, 0.000976562, 0.000976562, -0.00195312, 0.270508, -9.72559, 1.28.2022 18:24:28.795
940, 1.78046, 0.233625, 181.528, 0, 0, 0, -0.0800781, 0.298828, -9.69336, 1.28.2022 18:24:28.803
941, 1.78046, 0.233625, 181.528, -0.00195312, 0, 0, -0.0585938, 0.311523, -9.72363, 1.28.2022 18:24:28.811
942, 1.78037, 0.240618, 181.528, -0.000976562, 0, 0, -0.00292969, 0.292969, -9.66895, 1.28.2022 18:24:28.819
943, 1.78037, 0.240618, 181.528, 0, 0.000976562, 0, -0.0830078, 0.3125, -9.73535, 1.28.2022 18:24:28.827
944, 1.77338, 0.240525, 181.528, -0.000976562, 0, 0, -0.00683594, 0.308594, -9.71777, 1.28.2022 18:24:28.835
945, 1.77338, 0.240525, 181.528, 0, 0, -0.000976562, -0.0380859, 0.296875, -9.72461, 1.28.2022 18:24:28.843
946, 1.77338, 0.240525, 181.528, -0.000976562, -0.00195312, -0.000976562, -0.0478516, 0.321289, -9.74316, 1.28.2022 18:24:28.851
947, 1.77338, 0.240525, 181.528, -0.000976562, 0, 0, 0.00292969, 0.290039, -9.72363, 1.28.2022 18:24:28.859
948, 1.77338, 0.240525, 181.528, -0.000976562, 0, 0, -0.0537109, 0.298828, -9.70801, 1.28.2022 18:24:28.867
949, 1.77338, 0.240525, 181.528, 0, 0, -0.000976562, -0.0380859, 0.3125, -9.74512, 1.28.2022 18:24:28.875
950, 1.77338, 0.240525, 181.528, -0.000976562, 0.000976562, 0, 0, 0.283203, -9.72852, 1.28.2022 18:24:28.883
951, 1.77338, 0.240525, 181.528, -0.000976562, 0.00195312, 0, 0.139648, 0.296875, -9.79883, 1.28.2022 18:24:28.891
952, 1.77338, 0.240525, 181.528, -0.000976562, 0.000976562, -0.000976562, 0.198242, 0.31543, -9.71387, 1.28.2022 18:24:28.899
953, 1.77347, 0.233532, 181.528, 0, 0.000976562, -0.00195312, 0.132812, 0.330078, -9.7832, 1.28.2022 18:24:28.907
954, 1.77357, 0.226539, 181.528, 0, 0.000976562, -0.000976562, 0.0507812, 0.370117, -9.69531, 1.28.2022 18:24:28.915
955, 1.77375, 0.212553, 181.529, 0, -0.000976562, 0, 0.175781, 0.206055, -9.81055, 1.28.2022 18:24:28.921
956, 1.77385, 0.20556, 181.529, -0.000976562, 0.000976562, -0.000976562, 0.262695, 0.338867, -9.6123, 1.28.2022 18:24:28.929
957, 1.77403, 0.191574, 181.529, 0.000976562, -0.00195312, -0.00292969, 0.210938, 0.305664, -9.7002, 1.28.2022 18:24:28.937
958, 1.77431, 0.170596, 181.529, -0.000976562, 0, -0.000976562, 0.229492, 0.330078, -9.73535, 1.28.2022 18:24:28.945
959, 1.77458, 0.149726, 181.537, -0.000976562, -0.000976562, 0, 0.120117, 0.364258, -9.72266, 1.28.2022 18:24:28.953
960, 1.78185, 0.128841, 181.537, -0.000976562, -0.000976562, 0, 0.201172, 0.291992, -9.70996, 1.28.2022 18:24:28.961
961, 1.78213, 0.107862, 181.537, -0.00195312, 0, -0.000976562, 0.285156, 0.240234, -9.83105, 1.28.2022 18:24:28.969
962, 1.78251, 0.079891, 181.538, -0.000976562, 0.00292969, -0.00292969, 0.414062, 0.289062, -9.65234, 1.28.2022 18:24:28.977
963, 1.78288, 0.0519197, 181.538, 0, -0.000976562, -0.00585938, 0.324219, 0.34375, -9.78809, 1.28.2022 18:24:28.985
964, 1.78335, 0.0170644, 181.546, -0.000976562, 0.00195312, -0.00488281, 0.316406, 0.305664, -9.6377, 1.28.2022 18:24:28.993
965, 1.78382, 359.982, 181.546, -0.00195312, 0.000976562, -0.00390625, 0.258789, 0.342773, -9.67383, 1.28.2022 18:24:29.001
966, 1.78429, 359.947, 181.547, -0.000976562, -0.00292969, -0.00390625, 0.298828, 0.333984, -9.70801, 1.28.2022 18:24:29.009
967, 1.78476, 359.912, 181.554, -0.00195312, 0.00195312, -0.00488281, 0.449219, 0.285156, -9.67871, 1.28.2022 18:24:29.017
968, 1.79232, 359.87, 181.555, -0.00195312, -0.00390625, -0.00585938, 0.432617, 0.3125, -9.71289, 1.28.2022 18:24:29.025
969, 1.79289, 359.829, 181.563, -0.00195312, 0, -0.00585938, 0.458008, 0.294922, -9.75684, 1.28.2022 18:24:29.033
970, 1.79357, 359.78, 181.57, -0.00292969, -0.000976562, -0.00683594, 0.357422, 0.337891, -9.74902, 1.28.2022 18:24:29.041
971, 1.79414, 359.738, 181.571, -0.00292969, -0.000976562, -0.0078125, 0.527344, 0.306641, -9.85156, 1.28.2022 18:24:29.049
972, 1.80191, 359.682, 181.579, -0.00292969, 0.00195312, -0.00878906, 0.607422, 0.268555, -9.76855, 1.28.2022 18:24:29.057
973, 1.8026, 359.633, 181.587, -0.00390625, 0.000976562, -0.0117188, 0.624023, 0.291992, -9.66699, 1.28.2022 18:24:29.065
974, 1.80351, 359.57, 181.602, -0.00292969, 0, -0.015625, 0.681641, 0.21875, -9.63184, 1.28.2022 18:24:29.073
975, 1.80431, 359.515, 181.61, -0.00488281, -0.000976562, -0.0175781, 0.458984, 0.3125, -9.70898, 1.28.2022 18:24:29.081
976, 1.80525, 359.452, 181.625, -0.00488281, 0.000976562, -0.0195312, 0.806641, 0.318359, -9.5957, 1.28.2022 18:24:29.089
977, 1.8062, 359.389, 181.64, -0.00488281, -0.00585938, -0.0214844, 0.777344, 0.367188, -9.73535, 1.28.2022 18:24:29.097
978, 1.8076, 359.32, 181.655, -0.00488281, -0.00195312, -0.0205078, 0.798828, 0.375, -9.73828, 1.28.2022 18:24:29.105
979, 1.81568, 359.25, 181.67, -0.00585938, -0.00390625, -0.0185547, 0.834961, 0.432617, -9.58398, 1.28.2022 18:24:29.113
980, 1.81657, 359.194, 181.685, -0.00683594, -0.00683594, -0.0166016, 0.918945, 0.361328, -9.86328, 1.28.2022 18:24:29.121
981, 1.82422, 359.152, 181.692, -0.00683594, -0.00292969, -0.0146484, 0.899414, 0.389648, -9.60938, 1.28.2022 18:24:29.129
982, 1.82489, 359.111, 181.7, -0.00585938, -0.00683594, -0.0146484, 0.790039, 0.290039, -9.86523, 1.28.2022 18:24:29.137
983, 1.8255, 359.076, 181.715, -0.00585938, 0, -0.0166016, 0.787109, 0.291016, -9.73145, 1.28.2022 18:24:29.145
984, 1.83296, 359.048, 181.722, -0.00488281, 0.00195312, -0.0195312, 0.804688, 0.319336, -9.81348, 1.28.2022 18:24:29.153
985, 1.83343, 359.02, 181.73, -0.00292969, 0.00488281, -0.0244141, 0.930664, 0.236328, -9.8291, 1.28.2022 18:24:29.161
986, 1.83396, 358.992, 181.744, 0, 0.0107422, -0.0302734, 1.03613, 0.543945, -9.72559, 1.28.2022 18:24:29.169
987, 1.8345, 358.965, 181.759, 0.00390625, 0.0146484, -0.0292969, 1.08105, 0.547852, -9.85156, 1.28.2022 18:24:29.177
988, 1.83494, 358.944, 181.773, 0.00878906, 0.0185547, -0.0263672, 0.967773, 0.564453, -9.93457, 1.28.2022 18:24:29.185
989, 1.8285, 358.916, 181.787, 0.015625, 0.0166016, -0.0224609, 0.887695, 0.517578, -9.89453, 1.28.2022 18:24:29.193
990, 1.822, 358.888, 181.795, 0.0195312, 0.0205078, -0.0214844, 1.11133, 0.374023, -9.50195, 1.28.2022 18:24:29.201
991, 1.80842, 358.867, 181.802, 0.0205078, 0.0107422, -0.0214844, 0.933594, 0.459961, -9.55176, 1.28.2022 18:24:29.209
992, 1.80177, 358.853, 181.816, 0.0214844, 0.00585938, -0.0214844, 0.978516, 0.431641, -9.56445, 1.28.2022 18:24:29.217
993, 1.79518, 358.832, 181.823, 0.0166016, 0.00488281, -0.0185547, 1.13086, 0.332031, -9.4541, 1.28.2022 18:24:29.225
994, 1.78848, 358.818, 181.83, 0.0107422, -0.00195312, -0.0175781, 1.04395, 0.263672, -9.62207, 1.28.2022 18:24:29.233
995, 1.78883, 358.804, 181.845, 0.00292969, -0.00195312, -0.0195312, 1.20801, 0.100586, -9.63672, 1.28.2022 18:24:29.241
996, 1.78934, 358.798, 181.852, -0.00683594, -0.00683594, -0.0205078, 1.18945, 0.0820312, -9.73828, 1.28.2022 18:24:29.249
997, 1.79663, 358.784, 181.859, -0.0136719, -0.00976562, -0.0214844, 1.05469, 0.0283203, -9.84863, 1.28.2022 18:24:29.257
998, 1.80387, 358.777, 181.873, -0.0214844, -0.0146484, -0.0234375, 0.962891, 0.0107422, -9.74902, 1.28.2022 18:24:29.265
999, 1.81104, 358.77, 181.88, -0.0244141, -0.0136719, -0.0253906, 0.856445, 0.0517578, -9.57129, 1.28.2022 18:24:29.273
1000, 1.82527, 358.764, 181.895, -0.0253906, -0.0126953, -0.0263672, 0.888672, 0.239258, -9.52344, 1.28.2022 18:24:29.281
1001, 1.83944, 358.757, 181.902, -0.0205078, -0.0126953, -0.0273438, 0.84375, 0.303711, -9.7666, 1.28.2022 18:24:29.289
1002, 1.84668, 358.751, 181.916, -0.0146484, -0.00976562, -0.0302734, 0.861328, 0.466797, -9.71289, 1.28.2022 18:24:29.297
1003, 1.85393, 358.744, 181.93, -0.00488281, -0.0107422, -0.0332031, 0.817383, 0.633789, -9.83789, 1.28.2022 18:24:29.305
1004, 1.8543, 358.73, 181.944, 0.00488281, -0.00585938, -0.0341797, 0.673828, 0.6875, -9.87695, 1.28.2022 18:24:29.313
1005, 1.84765, 358.723, 181.965, 0.00878906, -0.00195312, -0.0361328, 0.581055, 0.794922, -9.86035, 1.28.2022 18:24:29.321
1006, 1.84803, 358.71, 181.98, 0.0126953, 0.00488281, -0.0380859, 0.939453, 0.672852, -9.53906, 1.28.2022 18:24:29.329
1007, 1.8415, 358.696, 182.001, 0.0146484, 0.000976562, -0.0400391, 0.776367, 0.552734, -9.44922, 1.28.2022 18:24:29.337
1008, 1.83491, 358.682, 182.015, 0.00878906, 0.00195312, -0.0410156, 0.682617, 0.432617, -9.75586, 1.28.2022 18:24:29.345
1009, 1.83537, 358.668, 182.036, -0.000976562, 0.00292969, -0.0410156, 0.650391, 0.266602, -10.1807, 1.28.2022 18:24:29.353
1010, 1.83597, 358.648, 182.058, -0.00488281, 0.00683594, -0.0410156, 0.905273, -0.0654297, -10.4609, 1.28.2022 18:24:29.361
1011, 1.83638, 358.634, 182.072, -0.00292969, 0.0175781, -0.0458984, 1.25098, -0.279297, -9.88672, 1.28.2022 18:24:29.369
1012, 1.84439, 358.614, 182.1, 0, 0.0175781, -0.0517578, 1.18848, -0.150391, -9.08398, 1.28.2022 18:24:29.377
1013, 1.83802, 358.593, 182.121, 0.00390625, 0.0263672, -0.0595703, 0.870117, 0.226562, -9.89453, 1.28.2022 18:24:29.385
1014, 1.83886, 358.565, 182.15, 0.0126953, 0.0380859, -0.0644531, 1.25391, 0.477539, -10.3408, 1.28.2022 18:24:29.393
1015, 1.8328, 358.538, 182.185, 0.0195312, 0.0224609, -0.0654297, 0.646484, 0.850586, -10.4648, 1.28.2022 18:24:29.401
1016, 1.82668, 358.51, 182.214, 0.0205078, 0.0361328, -0.0566406, 0.945312, 0.768555, -9.06836, 1.28.2022 18:24:29.409
1017, 1.82048, 358.482, 182.235, 0.0078125, 0.0185547, -0.046875, 0.806641, 0.615234, -8.79395, 1.28.2022 18:24:29.417
1018, 1.82101, 358.469, 182.256, -0.0078125, 0.00585938, -0.0410156, 0.680664, 0.506836, -9.16309, 1.28.2022 18:24:29.425
1019, 1.82845, 358.455, 182.27, -0.0146484, -0.00390625, -0.0400391, 1.02637, -0.0625, -9.36426, 1.28.2022 18:24:29.433
1020, 1.83584, 358.448, 182.292, -0.0234375, -0.0205078, -0.0478516, 1.2002, -0.395508, -8.95312, 1.28.2022 18:24:29.441
1021, 1.85017, 358.449, 182.32, -0.0332031, -0.0361328, -0.0595703, 0.65625, -0.286133, -9.78711, 1.28.2022 18:24:29.449
1022, 1.86484, 358.45, 182.348, -0.0371094, -0.0244141, -0.0693359, 0.730469, -0.120117, -10.8896, 1.28.2022 18:24:29.457
1023, 1.88631, 358.444, 182.376, -0.03125, 0.00195312, -0.0732422, 1.39453, -0.0605469, -10.0176, 1.28.2022 18:24:29.465
1024, 1.90102, 358.431, 182.412, -0.0234375, -0.0126953, -0.0800781, 1.05371, 0.262695, -9.92773, 1.28.2022 18:24:29.473
1025, 1.90883, 358.418, 182.454, -0.0253906, 0, -0.0800781, 0.767578, 0.860352, -9.66504, 1.28.2022 18:24:29.481
1026, 1.91657, 358.404, 182.489, -0.0107422, 0.03125, -0.0771484, 0.733398, 0.666016, -10.1191, 1.28.2022 18:24:29.489
1027, 1.92476, 358.37, 182.525, 0.00488281, 0.0458984, -0.0791016, 1.26562, 0.501953, -9.69238, 1.28.2022 18:24:29.497
1028, 1.91921, 358.343, 182.56, 0.0136719, 0.0371094, -0.0839844, 0.676758, 0.695312, -10.3701, 1.28.2022 18:24:29.505
1029, 1.91356, 358.308, 182.603, 0.0224609, 0.0488281, -0.0878906, 0.751953, 0.768555, -9.62793, 1.28.2022 18:24:29.513
1030, 1.90095, 358.274, 182.645, 0.0361328, 0.0419922, -0.0849609, 0.928711, 0.388672, -9.5625, 1.28.2022 18:24:29.521
1031, 1.88811, 358.246, 182.681, 0.0332031, 0.0234375, -0.0791016, 0.893555, 0.586914, -8.5957, 1.28.2022 18:24:29.529
1032, 1.87495, 358.232, 182.716, 0.0273438, -0.00878906, -0.0751953, 0.443359, 0.640625, -8.56836, 1.28.2022 18:24:29.537
1033, 1.86863, 358.225, 182.751, 0.015625, -0.0263672, -0.0742188, 0.78418, 0.270508, -8.80762, 1.28.2022 18:24:29.545
1034, 1.86214, 358.226, 182.786, -0.00683594, -0.0380859, -0.0751953, 1.04688, -0.160156, -9.04102, 1.28.2022 18:24:29.553
1035, 1.87662, 358.241, 182.82, -0.0302734, -0.0625, -0.0820312, 0.758789, -0.145508, -10.4941, 1.28.2022 18:24:29.561
1036, 1.89092, 358.249, 182.856, -0.0351562, -0.046875, -0.0917969, 1.00195, -0.466797, -11.2998, 1.28.2022 18:24:29.569
1037, 1.9123, 358.257, 182.898, -0.0507812, -0.0214844, -0.09375, 1.36426, -0.310547, -10.8057, 1.28.2022 18:24:29.577
1038, 1.94102, 358.251, 182.94, -0.0556641, -0.0185547, -0.0888672, 1.47266, 0.424805, -9.13574, 1.28.2022 18:24:29.585
1039, 1.96275, 358.246, 182.983, -0.0322266, -0.0195312, -0.0869141, 0.323242, 0.529297, -10.3926, 1.28.2022 18:24:29.593
1040, 1.97059, 358.232, 183.018, -0.015625, 0.0341797, -0.0839844, 0.320312, 0.68457, -10.875, 1.28.2022 18:24:29.601
1041, 1.97946, 358.198, 183.061, 0, 0.0605469, -0.0849609, 1.24512, 0.551758, -10.1709, 1.28.2022 18:24:29.609
1042, 1.97401, 358.164, 183.103, 0.0244141, 0.0302734, -0.0869141, 0.657227, 0.641602, -9.70312, 1.28.2022 18:24:29.617
1043, 1.96111, 358.143, 183.139, 0.0341797, 0.0302734, -0.0849609, 0.320312, 1.2168, -8.98438, 1.28.2022 18:24:29.625
1044, 1.94173, 358.108, 183.181, 0.0488281, 0.0556641, -0.0791016, 1.96484, 0.645508, -8.27539, 1.28.2022 18:24:29.633
1045, 1.92168, 358.094, 183.216, 0.0585938, -0.0419922, -0.0820312, -0.188477, 1.12793, -10.9463, 1.28.2022 18:24:29.641
1046, 1.90179, 358.087, 183.25, 0.0439453, 0.0117188, -0.0810547, 1.21387, 0.921875, -9.24121, 1.28.2022 18:24:29.649
1047, 1.88167, 358.081, 183.292, 0.0332031, -0.0224609, -0.0820312, 0.793945, -0.205078, -10.2783, 1.28.2022 18:24:29.657
1048, 1.87542, 358.074, 183.327, 0.00292969, -0.0205078, -0.0820312, 1.08691, 0.0517578, -8.52148, 1.28.2022 18:24:29.665
1049, 1.88315, 358.068, 183.362, -0.0126953, 0.00292969, -0.0820312, 1.68359, -0.505859, -8.96191, 1.28.2022 18:24:29.673
1050, 1.89099, 358.062, 183.405, -0.0205078, -0.0214844, -0.0888672, 0.407227, -0.305664, -11.1211, 1.28.2022 18:24:29.681
1051, 1.90623, 358.042, 183.447, -0.0185547, 0.0527344, -0.0957031, 1.2002, -0.370117, -11.2695, 1.28.2022 18:24:29.689
1052, 1.9155, 358.001, 183.49, -0.0126953, 0.0517578, -0.100586, 1.67969, -0.742188, -9.71289, 1.28.2022 18:24:29.697
1053, 1.92412, 357.974, 183.54, -0.0244141, 0.0263672, -0.0996094, 0.9375, 0.589844, -6.98242, 1.28.2022 18:24:29.705
1054, 1.93243, 357.954, 183.582, -0.00976562, 0.00976562, -0.09375, 0.813477, 0.274414, -8.51074, 1.28.2022 18:24:29.713
1055, 1.9409, 357.941, 183.625, -0.0126953, -0.00292969, -0.0869141, -0.167969, 0.75, -9.74316, 1.28.2022 18:24:29.721
1056, 1.94902, 357.928, 183.667, -0.015625, -0.0117188, -0.0917969, 0.938477, 0.182617, -9.23047, 1.28.2022 18:24:29.729
1057, 1.95647, 357.936, 183.709, -0.0175781, -0.0712891, -0.100586, -0.0664062, 0.757812, -11.9746, 1.28.2022 18:24:29.737
