Seq, Rot x, Rot y, Rot z, Vel x, Vel y, Vel z, Acc x, Acc y, Acc z, Time(m.d.y h:m:s.ms)
0, 2.12458, 0.345454, 183.156, 0, -0.000976562, -0.000976562, -0.115234, 0.375, -9.68555, 1.28.2022 18:0:33.595
1, 2.12458, 0.345454, 183.156, 0.000976562, -0.000976562, -0.000976562, -0.0400391, 0.364258, -9.7207, 1.28.2022 18:0:33.601
2, 2.12458, 0.345454, 183.156, 0, -0.00195312, -0.000976562, -0.0332031, 0.352539, -9.7373, 1.28.2022 18:0:33.609
3, 2.12458, 0.345454, 183.156, 0, -0.00195312, -0.000976562, -0.0966797, 0.371094, -9.69336, 1.28.2022 18:0:33.617
4, 2.12439, 0.352444, 183.156, 0, -0.000976562, -0.000976562, 0.00292969, 0.368164, -9.70898, 1.28.2022 18:0:33.625
5, 2.13137, 0.352637, 183.156, 0, -0.000976562, -0.000976562, -0.0761719, 0.37207, -9.73145, 1.28.2022 18:0:33.633
6, 2.13137, 0.352637, 183.156, 0.000976562, -0.000976562, -0.000976562, -0.0576172, 0.375, -9.66797, 1.28.2022 18:0:33.641
7, 2.13137, 0.352637, 183.156, 0, -0.000976562, -0.000976562, -0.0234375, 0.344727, -9.72168, 1.28.2022 18:0:33.649
8, 2.13137, 0.352637, 183.156, 0, -0.000976562, -0.000976562, -0.0947266, 0.352539, -9.72266, 1.28.2022 18:0:33.657
9, 2.13137, 0.352637, 183.156, 0, 0, -0.000976562, -0.015625, 0.361328, -9.69531, 1.28.2022 18:0:33.665
10, 2.13157, 0.345647, 183.156, 0, 0, -0.000976562, -0.0185547, 0.344727, -9.70703, 1.28.2022 18:0:33.673
11, 2.13157, 0.345647, 183.156, 0, -0.000976562, -0.000976562, -0.0947266, 0.356445, -9.69824, 1.28.2022 18:0:33.681
12, 2.13157, 0.345647, 183.156, 0.000976562, -0.000976562, -0.000976562, -0.0185547, 0.344727, -9.71191, 1.28.2022 18:0:33.689
13, 2.13157, 0.345647, 183.156, 0.000976562, -0.00195312, -0.000976562, -0.0546875, 0.374023, -9.74121, 1.28.2022 18:0:33.697
14, 2.13157, 0.345647, 183.156, 0, -0.000976562, 0, -0.0712891, 0.37207, -9.74121, 1.28.2022 18:0:33.705
15, 2.13157, 0.345647, 183.156, 0.000976562, -0.000976562, 0, -0.015625, 0.321289, -9.71484, 1.28.2022 18:0:33.713
16, 2.13157, 0.345647, 183.156, 0, 0, -0.000976562, -0.113281, 0.380859, -9.72168, 1.28.2022 18:0:33.721
17, 2.13157, 0.345647, 183.156, 0, 0, -0.000976562, -0.0419922, 0.355469, -9.73535, 1.28.2022 18:0:33.729
18, 2.13176, 0.338656, 183.156, 0, -0.000976562, -0.000976562, -0.0488281, 0.363281, -9.69922, 1.28.2022 18:0:33.737
19, 2.13176, 0.338656, 183.156, 0, -0.000976562, -0.000976562, -0.0800781, 0.369141, -9.71777, 1.28.2022 18:0:33.745
20, 2.13176, 0.338656, 183.156, 0, -0.00195312, -0.000976562, -0.0205078, 0.349609, -9.7168, 1.28.2022 18:0:33.753
21, 2.13176, 0.338656, 183.156, -0.00195312, -0.000976562, -0.000976562, -0.0585938, 0.359375, -9.72461, 1.28.2022 18:0:33.761
22, 2.13176, 0.338656, 183.156, 0, -0.000976562, -0.000976562, -0.0498047, 0.349609, -9.72559, 1.28.2022 18:0:33.769
23, 2.12477, 0.338463, 183.156, 0.000976562, -0.000976562, -0.000976562, -0.00195312, 0.354492, -9.72363, 1.28.2022 18:0:33.777
24, 2.12477, 0.338463, 183.156, 0.000976562, -0.000976562, -0.000976562, -0.111328, 0.369141, -9.73828, 1.28.2022 18:0:33.785
25, 2.12477, 0.338463, 183.156, 0.000976562, -0.000976562, -0.00195312, -0.0585938, 0.37793, -9.70996, 1.28.2022 18:0:33.793
26, 2.12477, 0.338463, 183.156, -0.00195312, -0.000976562, -0.00195312, -0.0419922, 0.361328, -9.71387, 1.28.2022 18:0:33.801
27, 2.12477, 0.338463, 183.156, 0, -0.000976562, 0, -0.106445, 0.389648, -9.7041, 1.28.2022 18:0:33.809
28, 2.12477, 0.338463, 183.156, 0, -0.000976562, 0, -0.0351562, 0.370117, -9.75391, 1.28.2022 18:0:33.817
29, 2.12477, 0.338463, 183.156, -0.000976562, -0.000976562, 0, -0.0419922, 0.347656, -9.72363, 1.28.2022 18:0:33.825
30, 2.12477, 0.338463, 183.156, -0.000976562, -0.000976562, -0.000976562, -0.078125, 0.344727, -9.72266, 1.28.2022 18:0:33.833
31, 2.12497, 0.331473, 183.156, -0.00195312, -0.000976562, -0.00195312, -0.0224609, 0.352539, -9.65527, 1.28.2022 18:0:33.841
32, 2.12497, 0.331473, 183.156, 0, -0.000976562, -0.000976562, -0.111328, 0.378906, -9.73047, 1.28.2022 18:0:33.849
33, 2.12497, 0.331473, 183.156, 0, -0.00195312, 0, -0.0322266, 0.365234, -9.6875, 1.28.2022 18:0:33.857
34, 2.12497, 0.331473, 183.156, -0.000976562, -0.000976562, -0.000976562, -0.0644531, 0.358398, -9.76953, 1.28.2022 18:0:33.865
35, 2.12477, 0.338463, 183.156, 0, -0.000976562, -0.000976562, -0.109375, 0.392578, -9.71875, 1.28.2022 18:0:33.873
36, 2.12477, 0.338463, 183.156, -0.000976562, -0.000976562, -0.000976562, -0.0234375, 0.326172, -9.74023, 1.28.2022 18:0:33.881
37, 2.12477, 0.338463, 183.156, -0.000976562, -0.000976562, -0.000976562, -0.0546875, 0.323242, -9.72168, 1.28.2022 18:0:33.889
38, 2.12477, 0.338463, 183.156, -0.000976562, -0.00195312, -0.00195312, -0.046875, 0.357422, -9.72754, 1.28.2022 18:0:33.897
39, 2.12477, 0.338463, 183.156, -0.00195312, -0.000976562, -0.00292969, -0.00878906, 0.349609, -9.71387, 1.28.2022 18:0:33.905
40, 2.12477, 0.338463, 183.156, -0.00195312, -0.000976562, -0.000976562, -0.12793, 0.356445, -9.7002, 1.28.2022 18:0:33.913
41, 2.12477, 0.338463, 183.156, -0.000976562, -0.000976562, -0.000976562, -0.0517578, 0.368164, -9.7041, 1.28.2022 18:0:33.921
42, 2.12477, 0.338463, 183.156, -0.000976562, -0.00195312, -0.000976562, -0.0302734, 0.344727, -9.71387, 1.28.2022 18:0:33.929
43, 2.12477, 0.338463, 183.156, -0.000976562, -0.000976562, -0.000976562, -0.125, 0.368164, -9.69043, 1.28.2022 18:0:33.937
44, 2.12477, 0.338463, 183.156, -0.000976562, -0.000976562, -0.000976562, -0.0400391, 0.362305, -9.72266, 1.28.2022 18:0:33.945
45, 2.12477, 0.338463, 183.156, -0.000976562, -0.000976562, -0.000976562, -0.0712891, 0.350586, -9.72949, 1.28.2022 18:0:33.953
46, 2.12477, 0.338463, 183.156, -0.000976562, -0.000976562, -0.000976562, -0.0976562, 0.383789, -9.74219, 1.28.2022 18:0:33.961
47, 2.12477, 0.338463, 183.156, -0.000976562, -0.000976562, -0.000976562, 0.000976562, 0.351562, -9.70703, 1.28.2022 18:0:33.969
48, 2.12477, 0.338463, 183.156, -0.000976562, -0.000976562, 0, -0.0947266, 0.356445, -9.70801, 1.28.2022 18:0:33.977
49, 2.12458, 0.345454, 183.156, -0.000976562, -0.000976562, -0.000976562, -0.0517578, 0.364258, -9.72266, 1.28.2022 18:0:33.985
50, 2.12458, 0.345454, 183.156, -0.000976562, -0.000976562, -0.000976562, -0.0693359, 0.345703, -9.75098, 1.28.2022 18:0:33.993
51, 2.12458, 0.345454, 183.156, -0.000976562, -0.000976562, -0.000976562, -0.108398, 0.380859, -9.70508, 1.28.2022 18:0:34.001
52, 2.12458, 0.345454, 183.156, -0.000976562, -0.00195312, 0, -0.0273438, 0.320312, -9.69629, 1.28.2022 18:0:34.009
53, 2.12458, 0.345454, 183.156, 0, 0.000976562, -0.000976562, -0.0732422, 0.329102, -9.73535, 1.28.2022 18:0:34.017
54, 2.12458, 0.345454, 183.156, -0.000976562, -0.000976562, -0.00195312, -0.0488281, 0.389648, -9.69824, 1.28.2022 18:0:34.025
55, 2.12458, 0.345454, 183.156, -0.000976562, -0.000976562, -0.000976562, -0.00488281, 0.345703, -9.75, 1.28.2022 18:0:34.033
56, 2.1176, 0.345261, 183.156, -0.000976562, -0.000976562, 0, -0.113281, 0.347656, -9.71289, 1.28.2022 18:0:34.041
57, 2.1174, 0.352251, 183.156, -0.000976562, -0.00195312, -0.000976562, -0.0654297, 0.351562, -9.70898, 1.28.2022 18:0:34.049
58, 2.1174, 0.352251, 183.156, -0.000976562, -0.000976562, -0.000976562, -0.0234375, 0.37207, -9.75098, 1.28.2022 18:0:34.057
59, 2.1174, 0.352251, 183.156, -0.000976562, -0.00292969, -0.000976562, -0.110352, 0.384766, -9.69043, 1.28.2022 18:0:34.065
60, 2.1174, 0.352251, 183.156, 0, -0.000976562, -0.000976562, -0.015625, 0.349609, -9.70508, 1.28.2022 18:0:34.073
61, 2.1174, 0.352251, 183.156, -0.000976562, 0, 0, -0.0439453, 0.365234, -9.68066, 1.28.2022 18:0:34.081
62, 2.1174, 0.352251, 183.156, -0.000976562, 0, -0.00195312, -0.0488281, 0.375977, -9.71484, 1.28.2022 18:0:34.089
63, 2.1174, 0.352251, 183.156, 0.000976562, 0, 0, -0.000976562, 0.350586, -9.68164, 1.28.2022 18:0:34.097
64, 2.1174, 0.352251, 183.156, -0.000976562, 0, 0, -0.118164, 0.374023, -9.7168, 1.28.2022 18:0:34.105
65, 2.1174, 0.352251, 183.156, -0.000976562, -0.000976562, 0, -0.0371094, 0.356445, -9.70898, 1.28.2022 18:0:34.113
66, 2.1174, 0.352251, 183.156, 0.000976562, 0, 0, -0.0400391, 0.363281, -9.70605, 1.28.2022 18:0:34.121
67, 2.1174, 0.352251, 183.156, 0, 0, -0.00195312, -0.137695, 0.355469, -9.73535, 1.28.2022 18:0:34.129
68, 2.1174, 0.352251, 183.156, -0.000976562, 0.00195312, -0.000976562, -0.0273438, 0.392578, -9.71777, 1.28.2022 18:0:34.137
69, 2.1174, 0.352251, 183.156, -0.000976562, 0.000976562, 0, -0.0751953, 0.344727, -9.69434, 1.28.2022 18:0:34.145
70, 2.1174, 0.352251, 183.156, -0.000976562, 0, 0.000976562, -0.0800781, 0.380859, -9.71484, 1.28.2022 18:0:34.153
71, 2.1174, 0.352251, 183.156, 0.000976562, 0, 0, -0.0146484, 0.348633, -9.75195, 1.28.2022 18:0:34.161
72, 2.1174, 0.352251, 183.156, -0.000976562, 0.000976562, -0.00195312, -0.108398, 0.349609, -9.70996, 1.28.2022 18:0:34.169
73, 2.1174, 0.352251, 183.156, -0.000976562, 0, 0, -0.046875, 0.361328, -9.69727, 1.28.2022 18:0:34.175
74, 2.1174, 0.352251, 183.156, -0.000976562, 0, 0, -0.0205078, 0.314453, -9.6748, 1.28.2022 18:0:34.183
75, 2.1174, 0.352251, 183.156, -0.000976562, -0.000976562, 0, -0.0888672, 0.367188, -9.6582, 1.28.2022 18:0:34.191
76, 2.1174, 0.352251, 183.156, -0.00195312, 0, 0, -0.046875, 0.353516, -9.69043, 1.28.2022 18:0:34.199
77, 2.1174, 0.352251, 183.156, -0.000976562, 0.000976562, 0.000976562, -0.0634766, 0.356445, -9.71094, 1.28.2022 18:0:34.207
78, 2.1174, 0.352251, 183.156, -0.00195312, -0.000976562, 0, -0.0751953, 0.369141, -9.71484, 1.28.2022 18:0:34.215
79, 2.1174, 0.352251, 183.156, -0.000976562, 0, 0, 0, 0.357422, -9.74219, 1.28.2022 18:0:34.223
80, 2.1176, 0.345261, 183.156, -0.000976562, 0.000976562, 0, -0.078125, 0.383789, -9.73145, 1.28.2022 18:0:34.231
81, 2.1176, 0.345261, 183.156, -0.000976562, 0.000976562, 0.000976562, -0.0546875, 0.362305, -9.73242, 1.28.2022 18:0:34.239
82, 2.1176, 0.345261, 183.156, -0.000976562, 0, 0.000976562, -0.0449219, 0.362305, -9.72266, 1.28.2022 18:0:34.247
83, 2.1176, 0.345261, 183.156, -0.000976562, 0, 0, -0.107422, 0.367188, -9.75195, 1.28.2022 18:0:34.255
84, 2.1176, 0.345261, 183.156, -0.000976562, 0, 0, -0.0322266, 0.365234, -9.68945, 1.28.2022 18:0:34.263
85, 2.1176, 0.345261, 183.156, -0.000976562, -0.000976562, 0, -0.0664062, 0.37207, -9.73633, 1.28.2022 18:0:34.271
86, 2.1176, 0.345261, 183.156, -0.000976562, 0.000976562, -0.00195312, -0.0742188, 0.375, -9.66797, 1.28.2022 18:0:34.279
87, 2.1176, 0.345261, 183.156, -0.000976562, 0, -0.00195312, 0.00292969, 0.352539, -9.7334, 1.28.2022 18:0:34.287
88, 2.12458, 0.345454, 183.156, 0.000976562, 0.000976562, 0, -0.0849609, 0.378906, -9.71973, 1.28.2022 18:0:34.295
89, 2.12458, 0.345454, 183.156, 0, 0, -0.00195312, -0.0654297, 0.394531, -9.69043, 1.28.2022 18:0:34.303
90, 2.12458, 0.345454, 183.156, -0.000976562, 0, 0, -0.015625, 0.378906, -9.72559, 1.28.2022 18:0:34.311
91, 2.12458, 0.345454, 183.156, -0.00195312, 0, 0, -0.107422, 0.384766, -9.76172, 1.28.2022 18:0:34.319
92, 2.12458, 0.345454, 183.156, -0.00195312, 0, 0.000976562, -0.000976562, 0.355469, -9.66699, 1.28.2022 18:0:34.327
93, 2.12458, 0.345454, 183.156, 0, -0.00195312, -0.00195312, -0.0634766, 0.334961, -9.70703, 1.28.2022 18:0:34.335
94, 2.12458, 0.345454, 183.156, 0, -0.000976562, 0, -0.0849609, 0.361328, -9.69629, 1.28.2022 18:0:34.343
95, 2.13157, 0.345647, 183.156, 0.000976562, -0.000976562, 0.000976562, -0.0214844, 0.342773, -9.74219, 1.28.2022 18:0:34.351
96, 2.13176, 0.338656, 183.156, 0, 0, 0, -0.0947266, 0.359375, -9.73145, 1.28.2022 18:0:34.359
97, 2.13176, 0.338656, 183.156, -0.000976562, -0.00195312, 0, -0.0654297, 0.361328, -9.70801, 1.28.2022 18:0:34.367
98, 2.13176, 0.338656, 183.156, -0.000976562, -0.00195312, 0, -0.0234375, 0.349609, -9.7207, 1.28.2022 18:0:34.375
99, 2.13176, 0.338656, 183.156, -0.000976562, -0.000976562, 0, -0.101562, 0.384766, -9.68848, 1.28.2022 18:0:34.383
100, 2.13176, 0.338656, 183.156, 0, -0.000976562, 0, -0.0146484, 0.363281, -9.75879, 1.28.2022 18:0:34.391
101, 2.13176, 0.338656, 183.156, -0.00195312, -0.000976562, 0, -0.0712891, 0.355469, -9.75586, 1.28.2022 18:0:34.399
102, 2.13176, 0.338656, 183.156, -0.00195312, -0.000976562, 0, -0.0898438, 0.384766, -9.7002, 1.28.2022 18:0:34.407
103, 2.13176, 0.338656, 183.156, -0.00195312, -0.000976562, 0, -0.0185547, 0.34375, -9.75488, 1.28.2022 18:0:34.415
104, 2.13176, 0.338656, 183.156, -0.000976562, -0.000976562, 0, -0.0722656, 0.370117, -9.69141, 1.28.2022 18:0:34.423
105, 2.13176, 0.338656, 183.156, -0.000976562, -0.00292969, 0, -0.0683594, 0.369141, -9.71777, 1.28.2022 18:0:34.431
106, 2.13176, 0.338656, 183.156, 0, -0.000976562, -0.00195312, -0.0175781, 0.348633, -9.67676, 1.28.2022 18:0:34.439
107, 2.13176, 0.338656, 183.156, -0.000976562, -0.000976562, 0, -0.09375, 0.375, -9.68652, 1.28.2022 18:0:34.447
108, 2.13176, 0.338656, 183.156, -0.000976562, -0.000976562, -0.000976562, -0.0234375, 0.339844, -9.7168, 1.28.2022 18:0:34.455
109, 2.13176, 0.338656, 183.156, 0, -0.000976562, -0.00195312, -0.0703125, 0.348633, -9.69238, 1.28.2022 18:0:34.463
110, 2.13176, 0.338656, 183.156, -0.000976562, 0, -0.000976562, -0.0820312, 0.401367, -9.67676, 1.28.2022 18:0:34.471
111, 2.13874, 0.338849, 183.156, -0.00195312, -0.000976562, -0.000976562, -0.0136719, 0.37207, -9.75098, 1.28.2022 18:0:34.479
112, 2.13874, 0.338849, 183.156, -0.000976562, 0, -0.000976562, -0.0732422, 0.361328, -9.71094, 1.28.2022 18:0:34.487
113, 2.13874, 0.338849, 183.156, -0.000976562, -0.000976562, 0, -0.046875, 0.359375, -9.70605, 1.28.2022 18:0:34.495
114, 2.13874, 0.338849, 183.156, -0.000976562, -0.000976562, 0, -0.0449219, 0.342773, -9.71387, 1.28.2022 18:0:34.503
115, 2.13874, 0.338849, 183.156, -0.000976562, -0.000976562, 0, -0.0869141, 0.392578, -9.70508, 1.28.2022 18:0:34.511
116, 2.13874, 0.338849, 183.156, 0, -0.00195312, 0, -0.0332031, 0.362305, -9.74414, 1.28.2022 18:0:34.519
117, 2.13874, 0.338849, 183.156, 0, -0.000976562, 0, -0.0517578, 0.342773, -9.7373, 1.28.2022 18:0:34.527
118, 2.13874, 0.338849, 183.156, -0.000976562, -0.000976562, 0, -0.109375, 0.370117, -9.74512, 1.28.2022 18:0:34.535
119, 2.13874, 0.338849, 183.156, 0, -0.000976562, 0, -0.00292969, 0.350586, -9.68164, 1.28.2022 18:0:34.543
120, 2.13874, 0.338849, 183.156, 0, -0.000976562, 0, -0.0947266, 0.344727, -9.71582, 1.28.2022 18:0:34.551
121, 2.13874, 0.338849, 183.156, -0.000976562, -0.00195312, 0, -0.0351562, 0.354492, -9.70898, 1.28.2022 18:0:34.559
122, 2.13874, 0.338849, 183.156, 0, -0.000976562, 0, -0.0146484, 0.353516, -9.76172, 1.28.2022 18:0:34.567
123, 2.13874, 0.338849, 183.156, -0.000976562, 0, -0.000976562, -0.103516, 0.385742, -9.70898, 1.28.2022 18:0:34.575
124, 2.13874, 0.338849, 183.156, -0.000976562, -0.000976562, 0, -0.0419922, 0.353516, -9.69922, 1.28.2022 18:0:34.583
125, 2.13874, 0.338849, 183.156, -0.000976562, 0, 0, -0.0488281, 0.344727, -9.70898, 1.28.2022 18:0:34.591
126, 2.13176, 0.338656, 183.156, -0.000976562, -0.00195312, 0.000976562, -0.118164, 0.364258, -9.70312, 1.28.2022 18:0:34.599
127, 2.13176, 0.338656, 183.156, -0.00195312, 0, 0, -0.0205078, 0.337891, -9.71191, 1.28.2022 18:0:34.607
128, 2.13176, 0.338656, 183.156, -0.00195312, -0.00195312, 0, -0.101562, 0.361328, -9.70996, 1.28.2022 18:0:34.615
129, 2.13176, 0.338656, 183.156, -0.000976562, 0, 0, -0.0634766, 0.374023, -9.72949, 1.28.2022 18:0:34.623
130, 2.13176, 0.338656, 183.156, -0.000976562, 0, -0.000976562, -0.0292969, 0.368164, -9.68555, 1.28.2022 18:0:34.631
131, 2.13176, 0.338656, 183.156, -0.000976562, 0, 0, -0.0966797, 0.359375, -9.71777, 1.28.2022 18:0:34.639
132, 2.13176, 0.338656, 183.156, -0.000976562, 0, -0.000976562, -0.0283203, 0.355469, -9.76074, 1.28.2022 18:0:34.647
133, 2.13176, 0.338656, 183.156, -0.000976562, 0, 0, -0.0703125, 0.351562, -9.70898, 1.28.2022 18:0:34.655
134, 2.13176, 0.338656, 183.156, -0.000976562, 0.000976562, 0, -0.106445, 0.361328, -9.70996, 1.28.2022 18:0:34.663
135, 2.13176, 0.338656, 183.156, -0.000976562, 0.000976562, 0, -0.00878906, 0.366211, -9.71582, 1.28.2022 18:0:34.671
136, 2.13176, 0.338656, 183.156, -0.000976562, 0, 0.000976562, -0.0898438, 0.367188, -9.73145, 1.28.2022 18:0:34.679
137, 2.13176, 0.338656, 183.156, -0.00195312, 0, 0, -0.0537109, 0.363281, -9.68945, 1.28.2022 18:0:34.687
138, 2.13157, 0.345647, 183.156, -0.000976562, 0, -0.000976562, -0.0234375, 0.316406, -9.73828, 1.28.2022 18:0:34.695
139, 2.13157, 0.345647, 183.156, -0.000976562, 0, 0.000976562, -0.134766, 0.370117, -9.68359, 1.28.2022 18:0:34.703
140, 2.13157, 0.345647, 183.156, 0, 0, 0, -0.0351562, 0.352539, -9.73535, 1.28.2022 18:0:34.711
141, 2.13157, 0.345647, 183.156, 0, 0.000976562, -0.000976562, -0.0302734, 0.339844, -9.70996, 1.28.2022 18:0:34.719
142, 2.13157, 0.345647, 183.156, -0.00195312, 0, 0, -0.0966797, 0.384766, -9.69336, 1.28.2022 18:0:34.727
143, 2.13157, 0.345647, 183.156, -0.000976562, 0, 0, -0.0322266, 0.368164, -9.7041, 1.28.2022 18:0:34.735
144, 2.13157, 0.345647, 183.156, -0.000976562, 0, 0, -0.0820312, 0.361328, -9.69141, 1.28.2022 18:0:34.743
145, 2.12458, 0.345454, 183.156, 0, -0.00195312, 0, -0.0664062, 0.375, -9.75488, 1.28.2022 18:0:34.751
146, 2.12458, 0.345454, 183.156, 0, 0, 0, -0.0351562, 0.350586, -9.74023, 1.28.2022 18:0:34.759
147, 2.12458, 0.345454, 183.156, 0, 0, 0, -0.0830078, 0.368164, -9.75781, 1.28.2022 18:0:34.767
148, 2.12458, 0.345454, 183.156, -0.000976562, 0, -0.000976562, -0.0273438, 0.341797, -9.70703, 1.28.2022 18:0:34.775
149, 2.12458, 0.345454, 183.156, -0.00195312, 0, -0.000976562, -0.0449219, 0.383789, -9.73145, 1.28.2022 18:0:34.783
150, 2.12439, 0.352444, 183.156, 0, -0.00195312, 0, -0.0732422, 0.374023, -9.71289, 1.28.2022 18:0:34.791
151, 2.12439, 0.352444, 183.156, -0.000976562, 0, 0, -0.015625, 0.328125, -9.71484, 1.28.2022 18:0:34.799
152, 2.12439, 0.352444, 183.156, 0, 0, 0, -0.0615234, 0.357422, -9.72949, 1.28.2022 18:0:34.807
153, 2.12439, 0.352444, 183.156, 0, 0, 0, -0.0615234, 0.361328, -9.71777, 1.28.2022 18:0:34.815
154, 2.12458, 0.345454, 183.156, -0.000976562, 0, -0.000976562, -0.0351562, 0.347656, -9.72852, 1.28.2022 18:0:34.823
155, 2.12458, 0.345454, 183.156, -0.000976562, 0, -0.000976562, -0.0996094, 0.380859, -9.71191, 1.28.2022 18:0:34.831
156, 2.12458, 0.345454, 183.156, 0, 0, 0, -0.0458984, 0.345703, -9.67578, 1.28.2022 18:0:34.839
157, 2.12458, 0.345454, 183.156, -0.000976562, 0, 0, -0.0615234, 0.329102, -9.74219, 1.28.2022 18:0:34.847
158, 2.12458, 0.345454, 183.156, -0.000976562, 0, 0, -0.0820312, 0.365234, -9.68457, 1.28.2022 18:0:34.855
159, 2.12458, 0.345454, 183.156, -0.000976562, 0, -0.000976562, -0.0136719, 0.314453, -9.73145, 1.28.2022 18:0:34.863
160, 2.12458, 0.345454, 183.156, -0.000976562, 0, 0, -0.0800781, 0.369141, -9.72656, 1.28.2022 18:0:34.871
161, 2.1176, 0.345261, 183.156, 0, 0, 0, -0.0537109, 0.363281, -9.70117, 1.28.2022 18:0:34.879
162, 2.1176, 0.345261, 183.156, 0, 0, -0.000976562, -0.0136719, 0.364258, -9.71875, 1.28.2022 18:0:34.887
163, 2.1176, 0.345261, 183.156, 0, 0, -0.000976562, -0.116211, 0.369141, -9.72852, 1.28.2022 18:0:34.895
164, 2.1176, 0.345261, 183.156, -0.000976562, 0.000976562, 0, -0.0302734, 0.362305, -9.73047, 1.28.2022 18:0:34.903
165, 2.1176, 0.345261, 183.156, -0.000976562, -0.00195312, 0.000976562, -0.0673828, 0.34375, -9.68066, 1.28.2022 18:0:34.911
166, 2.1176, 0.345261, 183.156, -0.00195312, 0.000976562, 0, -0.09375, 0.363281, -9.69336, 1.28.2022 18:0:34.919
167, 2.1176, 0.345261, 183.156, -0.00195312, 0, -0.000976562, -0.00195312, 0.334961, -9.72168, 1.28.2022 18:0:34.927
168, 2.1176, 0.345261, 183.156, -0.00195312, 0.000976562, 0, -0.0585938, 0.361328, -9.7207, 1.28.2022 18:0:34.935
169, 2.1176, 0.345261, 183.156, -0.000976562, 0, 0, -0.0712891, 0.376953, -9.74805, 1.28.2022 18:0:34.943
170, 2.1176, 0.345261, 183.156, 0, 0, -0.000976562, -0.0380859, 0.359375, -9.73438, 1.28.2022 18:0:34.951
171, 2.11061, 0.345068, 183.156, 0, -0.00195312, 0, -0.12793, 0.388672, -9.73926, 1.28.2022 18:0:34.959
172, 2.11061, 0.345068, 183.156, -0.000976562, 0.000976562, 0, -0.0234375, 0.383789, -9.72461, 1.28.2022 18:0:34.967
173, 2.11061, 0.345068, 183.156, -0.000976562, 0, 0, -0.0332031, 0.34375, -9.74707, 1.28.2022 18:0:34.975
174, 2.11061, 0.345068, 183.156, -0.000976562, 0.000976562, 0, -0.0996094, 0.383789, -9.7334, 1.28.2022 18:0:34.983
175, 2.11779, 0.338271, 183.156, -0.000976562, 0.000976562, 0, -0.0205078, 0.354492, -9.72559, 1.28.2022 18:0:34.991
176, 2.11779, 0.338271, 183.156, -0.00195312, -0.00195312, -0.000976562, -0.0976562, 0.355469, -9.74121, 1.28.2022 18:0:34.999
177, 2.1176, 0.345261, 183.156, -0.00195312, 0, 0, -0.0664062, 0.366211, -9.71777, 1.28.2022 18:0:35.007
178, 2.11779, 0.338271, 183.156, -0.00195312, 0.000976562, 0, -0.00195312, 0.316406, -9.71777, 1.28.2022 18:0:35.015
179, 2.11779, 0.338271, 183.156, -0.000976562, -0.00195312, 0, -0.0996094, 0.359375, -9.71484, 1.28.2022 18:0:35.023
180, 2.1176, 0.345261, 183.156, 0, 0, 0, -0.0546875, 0.337891, -9.72559, 1.28.2022 18:0:35.031
181, 2.1176, 0.345261, 183.156, -0.000976562, 0, 0, -0.0478516, 0.370117, -9.74609, 1.28.2022 18:0:35.039
182, 2.1176, 0.345261, 183.156, -0.000976562, 0, 0, -0.078125, 0.393555, -9.72656, 1.28.2022 18:0:35.047
183, 2.1176, 0.345261, 183.156, 0, 0.000976562, 0, -0.0302734, 0.342773, -9.74219, 1.28.2022 18:0:35.055
184, 2.11779, 0.338271, 183.156, -0.000976562, 0, 0, -0.0546875, 0.373047, -9.77246, 1.28.2022 18:0:35.063
185, 2.11779, 0.338271, 183.156, -0.000976562, 0, 0, -0.078125, 0.364258, -9.72266, 1.28.2022 18:0:35.071
186, 2.11779, 0.338271, 183.156, -0.000976562, 0, -0.000976562, -0.0253906, 0.313477, -9.69629, 1.28.2022 18:0:35.079
187, 2.1176, 0.345261, 183.156, -0.00195312, -0.00195312, 0.000976562, -0.118164, 0.369141, -9.71191, 1.28.2022 18:0:35.087
188, 2.1176, 0.345261, 183.156, 0, 0, 0, -0.0400391, 0.380859, -9.72461, 1.28.2022 18:0:35.095
189, 2.1176, 0.345261, 183.156, -0.000976562, -0.000976562, 0, -0.0566406, 0.351562, -9.70898, 1.28.2022 18:0:35.103
190, 2.1176, 0.345261, 183.156, 0.000976562, -0.00195312, 0.000976562, -0.0966797, 0.375977, -9.70508, 1.28.2022 18:0:35.111
191, 2.1176, 0.345261, 183.156, -0.000976562, 0, 0, -0.0166016, 0.331055, -9.7334, 1.28.2022 18:0:35.119
192, 2.1176, 0.345261, 183.156, -0.000976562, -0.000976562, 0, -0.104492, 0.368164, -9.75977, 1.28.2022 18:0:35.127
193, 2.1176, 0.345261, 183.156, -0.00195312, -0.000976562, 0, -0.0537109, 0.379883, -9.69336, 1.28.2022 18:0:35.135
194, 2.1176, 0.345261, 183.156, -0.000976562, -0.000976562, 0, -0.0224609, 0.351562, -9.7041, 1.28.2022 18:0:35.143
195, 2.1176, 0.345261, 183.156, -0.000976562, 0, 0, -0.0986328, 0.384766, -9.68848, 1.28.2022 18:0:35.149
196, 2.1176, 0.345261, 183.156, -0.000976562, -0.000976562, 0, -0.0634766, 0.37793, -9.69336, 1.28.2022 18:0:35.157
197, 2.1176, 0.345261, 183.156, -0.000976562, 0, 0, -0.0390625, 0.353516, -9.69727, 1.28.2022 18:0:35.165
198, 2.1176, 0.345261, 183.156, 0.000976562, -0.000976562, 0.000976562, -0.104492, 0.367188, -9.73145, 1.28.2022 18:0:35.173
199, 2.1176, 0.345261, 183.156, -0.000976562, 0, 0, -0.0185547, 0.34668, -9.70996, 1.28.2022 18:0:35.181
200, 2.1176, 0.345261, 183.156, 0.000976562, -0.000976562, -0.000976562, -0.0849609, 0.342773, -9.71582, 1.28.2022 18:0:35.189
201, 2.1176, 0.345261, 183.156, -0.000976562, 0, 0, -0.0585938, 0.379883, -9.70117, 1.28.2022 18:0:35.197
202, 2.1176, 0.345261, 183.156, -0.000976562, -0.000976562, 0, -0.0136719, 0.347656, -9.73828, 1.28.2022 18:0:35.205
203, 2.1176, 0.345261, 183.156, -0.000976562, -0.00195312, 0, -0.119141, 0.370117, -9.7666, 1.28.2022 18:0:35.213
204, 2.1174, 0.352251, 183.156, -0.000976562, -0.000976562, -0.000976562, -0.0283203, 0.344727, -9.72168, 1.28.2022 18:0:35.221
205, 2.1174, 0.352251, 183.156, 0.000976562, 0, 0, -0.0498047, 0.379883, -9.75098, 1.28.2022 18:0:35.229
206, 2.1174, 0.352251, 183.156, -0.000976562, -0.000976562, 0, -0.0830078, 0.381836, -9.74316, 1.28.2022 18:0:35.237
207, 2.1174, 0.352251, 183.156, 0.000976562, -0.00195312, 0, -0.00683594, 0.357422, -9.72852, 1.28.2022 18:0:35.245
208, 2.1174, 0.352251, 183.156, 0.000976562, -0.000976562, 0, -0.0771484, 0.338867, -9.67578, 1.28.2022 18:0:35.253
209, 2.1174, 0.352251, 183.156, -0.000976562, -0.000976562, 0, -0.0537109, 0.336914, -9.67383, 1.28.2022 18:0:35.261
210, 2.1174, 0.352251, 183.156, -0.000976562, -0.000976562, 0, -0.0136719, 0.367188, -9.74414, 1.28.2022 18:0:35.269
211, 2.1174, 0.352251, 183.156, -0.000976562, -0.000976562, 0.000976562, -0.106445, 0.366211, -9.70312, 1.28.2022 18:0:35.277
212, 2.1174, 0.352251, 183.156, -0.000976562, 0, 0.000976562, -0.0615234, 0.359375, -9.73438, 1.28.2022 18:0:35.285
213, 2.1176, 0.345261, 183.156, -0.000976562, 0, 0, -0.0322266, 0.366211, -9.70605, 1.28.2022 18:0:35.293
214, 2.1176, 0.345261, 183.156, -0.000976562, -0.000976562, 0, -0.111328, 0.359375, -9.70312, 1.28.2022 18:0:35.301
215, 2.1176, 0.345261, 183.156, -0.000976562, -0.000976562, 0.000976562, 0.00390625, 0.353516, -9.68848, 1.28.2022 18:0:35.309
216, 2.1176, 0.345261, 183.156, -0.00195312, 0, 0.000976562, -0.0800781, 0.344727, -9.70605, 1.28.2022 18:0:35.317
217, 2.1176, 0.345261, 183.156, -0.000976562, -0.000976562, 0, -0.0771484, 0.375, -9.68848, 1.28.2022 18:0:35.325
218, 2.1176, 0.345261, 183.156, -0.000976562, -0.000976562, 0, -0.0400391, 0.34668, -9.70898, 1.28.2022 18:0:35.333
219, 2.1176, 0.345261, 183.156, -0.00195312, -0.000976562, 0, -0.134766, 0.366211, -9.7002, 1.28.2022 18:0:35.341
220, 2.12458, 0.345454, 183.156, -0.000976562, -0.000976562, 0, -0.0449219, 0.364258, -9.71777, 1.28.2022 18:0:35.349
221, 2.12458, 0.345454, 183.156, -0.000976562, 0, -0.00195312, -0.0498047, 0.362305, -9.74121, 1.28.2022 18:0:35.357
222, 2.12458, 0.345454, 183.156, 0, -0.000976562, -0.00195312, -0.0966797, 0.375977, -9.72656, 1.28.2022 18:0:35.365
223, 2.12458, 0.345454, 183.156, -0.000976562, -0.00195312, -0.000976562, 0.015625, 0.379883, -9.69531, 1.28.2022 18:0:35.373
224, 2.12439, 0.352444, 183.156, -0.000976562, 0, -0.000976562, -0.0634766, 0.385742, -9.70996, 1.28.2022 18:0:35.381
225, 2.12458, 0.345454, 183.156, -0.000976562, 0, -0.000976562, -0.0703125, 0.37793, -9.69824, 1.28.2022 18:0:35.389
226, 2.12458, 0.345454, 183.156, 0, -0.000976562, -0.000976562, 0.0175781, 0.347656, -9.72852, 1.28.2022 18:0:35.397
227, 2.12458, 0.345454, 183.156, -0.000976562, -0.000976562, -0.000976562, -0.0820312, 0.356445, -9.70312, 1.28.2022 18:0:35.405
228, 2.12458, 0.345454, 183.156, -0.000976562, -0.000976562, 0, -0.0400391, 0.347656, -9.71582, 1.28.2022 18:0:35.413
229, 2.12458, 0.345454, 183.156, -0.000976562, 0, -0.000976562, -0.0507812, 0.363281, -9.68457, 1.28.2022 18:0:35.421
230, 2.12458, 0.345454, 183.156, -0.000976562, -0.000976562, -0.000976562, -0.119141, 0.356445, -9.63184, 1.28.2022 18:0:35.429
231, 2.12458, 0.345454, 183.156, -0.000976562, -0.000976562, -0.000976562, -0.0253906, 0.361328, -9.71094, 1.28.2022 18:0:35.437
232, 2.12458, 0.345454, 183.156, 0, 0, -0.000976562, -0.0273438, 0.351562, -9.70898, 1.28.2022 18:0:35.445
233, 2.12458, 0.345454, 183.156, 0, 0, -0.00195312, -0.0664062, 0.369141, -9.73438, 1.28.2022 18:0:35.453
234, 2.12458, 0.345454, 183.156, -0.000976562, 0, -0.000976562, -0.0117188, 0.337891, -9.7334, 1.28.2022 18:0:35.461
235, 2.12477, 0.338463, 183.156, -0.000976562, 0, 0.000976562, -0.0878906, 0.357422, -9.73633, 1.28.2022 18:0:35.469
236, 2.12477, 0.338463, 183.156, -0.000976562, -0.000976562, -0.000976562, -0.0595703, 0.393555, -9.73828, 1.28.2022 18:0:35.477
237, 2.12477, 0.338463, 183.156, 0, -0.000976562, -0.000976562, -0.0322266, 0.361328, -9.69922, 1.28.2022 18:0:35.485
238, 2.12477, 0.338463, 183.156, -0.000976562, -0.000976562, -0.000976562, -0.104492, 0.374023, -9.71484, 1.28.2022 18:0:35.493
239, 2.12477, 0.338463, 183.156, 0, -0.00195312, 0, -0.0371094, 0.364258, -9.70898, 1.28.2022 18:0:35.501
240, 2.12477, 0.338463, 183.156, 0, -0.00195312, -0.000976562, -0.0537109, 0.339844, -9.70898, 1.28.2022 18:0:35.509
241, 2.12477, 0.338463, 183.156, -0.000976562, -0.000976562, -0.000976562, -0.0888672, 0.341797, -9.67773, 1.28.2022 18:0:35.517
242, 2.12477, 0.338463, 183.156, -0.000976562, -0.000976562, -0.000976562, -0.0224609, 0.366211, -9.70215, 1.28.2022 18:0:35.525
243, 2.12477, 0.338463, 183.156, 0, -0.00195312, -0.000976562, -0.111328, 0.397461, -9.72559, 1.28.2022 18:0:35.533
244, 2.12477, 0.338463, 183.156, -0.000976562, -0.000976562, 0, -0.0585938, 0.375977, -9.72461, 1.28.2022 18:0:35.541
245, 2.12477, 0.338463, 183.156, -0.000976562, -0.00195312, 0, -0.00683594, 0.344727, -9.72363, 1.28.2022 18:0:35.549
246, 2.13176, 0.338656, 183.156, -0.000976562, -0.00195312, 0, -0.0888672, 0.383789, -9.66699, 1.28.2022 18:0:35.557
247, 2.13176, 0.338656, 183.156, -0.000976562, 0, -0.000976562, -0.0214844, 0.364258, -9.7373, 1.28.2022 18:0:35.565
248, 2.13176, 0.338656, 183.156, 0, 0, -0.000976562, -0.0683594, 0.356445, -9.70801, 1.28.2022 18:0:35.573
249, 2.13176, 0.338656, 183.156, 0, -0.000976562, -0.000976562, -0.103516, 0.34668, -9.68457, 1.28.2022 18:0:35.581
250, 2.13176, 0.338656, 183.156, -0.000976562, -0.000976562, 0, -0.0117188, 0.369141, -9.73047, 1.28.2022 18:0:35.589
251, 2.13176, 0.338656, 183.156, -0.000976562, 0, -0.00195312, -0.0996094, 0.355469, -9.74805, 1.28.2022 18:0:35.597
252, 2.13176, 0.338656, 183.156, -0.00195312, -0.00195312, -0.00195312, -0.0800781, 0.371094, -9.71289, 1.28.2022 18:0:35.605
253, 2.13176, 0.338656, 183.156, -0.000976562, -0.000976562, -0.00195312, -0.0488281, 0.349609, -9.71094, 1.28.2022 18:0:35.613
254, 2.13176, 0.338656, 183.156, -0.000976562, -0.000976562, 0.000976562, -0.108398, 0.402344, -9.71582, 1.28.2022 18:0:35.621
255, 2.13176, 0.338656, 183.156, 0, -0.000976562, -0.000976562, -0.0302734, 0.351562, -9.71387, 1.28.2022 18:0:35.629
256, 2.13157, 0.345647, 183.156, 0, 0, -0.000976562, -0.0517578, 0.354492, -9.71387, 1.28.2022 18:0:35.637
257, 2.13157, 0.345647, 183.156, 0, -0.000976562, -0.000976562, -0.0615234, 0.374023, -9.71484, 1.28.2022 18:0:35.645
258, 2.13157, 0.345647, 183.156, -0.000976562, -0.000976562, -0.000976562, 0.000976562, 0.354492, -9.70996, 1.28.2022 18:0:35.653
259, 2.13157, 0.345647, 183.156, 0, -0.000976562, -0.00195312, -0.101562, 0.373047, -9.69141, 1.28.2022 18:0:35.661
260, 2.13157, 0.345647, 183.156, 0, -0.000976562, -0.000976562, -0.0898438, 0.383789, -9.72852, 1.28.2022 18:0:35.669
261, 2.13157, 0.345647, 183.156, -0.000976562, -0.000976562, -0.000976562, -0.0351562, 0.319336, -9.74023, 1.28.2022 18:0:35.677
262, 2.13157, 0.345647, 183.156, -0.000976562, -0.000976562, -0.00195312, -0.0986328, 0.394531, -9.7041, 1.28.2022 18:0:35.685
263, 2.13157, 0.345647, 183.156, -0.000976562, -0.000976562, -0.000976562, 0.0078125, 0.321289, -9.72949, 1.28.2022 18:0:35.693
264, 2.13855, 0.34584, 183.156, -0.000976562, 0, -0.000976562, -0.0644531, 0.357422, -9.74121, 1.28.2022 18:0:35.701
265, 2.13855, 0.34584, 183.156, -0.000976562, -0.000976562, 0.000976562, -0.0800781, 0.394531, -9.70215, 1.28.2022 18:0:35.709
266, 2.13855, 0.34584, 183.156, -0.000976562, -0.00195312, -0.000976562, -0.0166016, 0.335938, -9.74805, 1.28.2022 18:0:35.717
267, 2.13855, 0.34584, 183.156, -0.00195312, -0.00195312, -0.00195312, -0.111328, 0.365234, -9.74316, 1.28.2022 18:0:35.725
268, 2.13855, 0.34584, 183.156, -0.000976562, -0.000976562, -0.000976562, -0.0585938, 0.359375, -9.72754, 1.28.2022 18:0:35.733
269, 2.13855, 0.34584, 183.156, 0, 0.000976562, -0.00195312, -0.0488281, 0.362305, -9.67285, 1.28.2022 18:0:35.741
270, 2.13855, 0.34584, 183.156, 0, -0.000976562, -0.00195312, -0.123047, 0.342773, -9.71973, 1.28.2022 18:0:35.749
271, 2.13855, 0.34584, 183.156, -0.000976562, -0.000976562, -0.000976562, -0.0380859, 0.323242, -9.72852, 1.28.2022 18:0:35.757
272, 2.13157, 0.345647, 183.156, -0.000976562, -0.000976562, -0.000976562, -0.0517578, 0.364258, -9.72754, 1.28.2022 18:0:35.765
273, 2.13137, 0.352637, 183.156, -0.00195312, -0.000976562, -0.000976562, -0.0664062, 0.367188, -9.72949, 1.28.2022 18:0:35.773
274, 2.13137, 0.352637, 183.156, -0.000976562, -0.000976562, -0.000976562, -0.00390625, 0.341797, -9.70312, 1.28.2022 18:0:35.781
275, 2.13137, 0.352637, 183.156, -0.000976562, -0.000976562, -0.000976562, -0.0839844, 0.365234, -9.67969, 1.28.2022 18:0:35.789
276, 2.13137, 0.352637, 183.156, 0, 0, -0.000976562, -0.0498047, 0.385742, -9.71973, 1.28.2022 18:0:35.797
277, 2.13137, 0.352637, 183.156, -0.000976562, -0.000976562, -0.000976562, -0.046875, 0.374023, -9.73145, 1.28.2022 18:0:35.805
278, 2.13137, 0.352637, 183.156, -0.00195312, -0.000976562, 0.000976562, -0.0917969, 0.364258, -9.70996, 1.28.2022 18:0:35.813
279, 2.13137, 0.352637, 183.156, -0.000976562, -0.00195312, -0.000976562, 0.0195312, 0.334961, -9.72461, 1.28.2022 18:0:35.821
280, 2.13137, 0.352637, 183.156, -0.000976562, -0.00195312, -0.00195312, -0.0400391, 0.364258, -9.73242, 1.28.2022 18:0:35.829
281, 2.13137, 0.352637, 183.156, -0.000976562, -0.000976562, -0.000976562, -0.0917969, 0.371094, -9.70996, 1.28.2022 18:0:35.837
282, 2.13137, 0.352637, 183.156, -0.000976562, -0.000976562, -0.000976562, 0.0126953, 0.335938, -9.73145, 1.28.2022 18:0:35.845
283, 2.13157, 0.345647, 183.156, -0.000976562, -0.000976562, -0.000976562, -0.0742188, 0.376953, -9.75293, 1.28.2022 18:0:35.853
284, 2.13157, 0.345647, 183.156, -0.000976562, -0.00195312, -0.000976562, -0.0546875, 0.393555, -9.72852, 1.28.2022 18:0:35.861
285, 2.13157, 0.345647, 183.156, -0.000976562, 0, -0.000976562, -0.0488281, 0.356445, -9.71387, 1.28.2022 18:0:35.869
286, 2.13157, 0.345647, 183.156, -0.000976562, -0.00195312, -0.000976562, -0.112305, 0.367188, -9.66504, 1.28.2022 18:0:35.877
287, 2.13157, 0.345647, 183.156, -0.000976562, 0.000976562, 0, -0.0175781, 0.348633, -9.69531, 1.28.2022 18:0:35.885
288, 2.13157, 0.345647, 183.156, -0.000976562, 0.000976562, -0.000976562, -0.0517578, 0.356445, -9.71582, 1.28.2022 18:0:35.893
289, 2.13157, 0.345647, 183.156, -0.000976562, 0, 0, -0.0732422, 0.366211, -9.69824, 1.28.2022 18:0:35.901
290, 2.13176, 0.338656, 183.156, -0.000976562, 0, -0.000976562, -0.0185547, 0.329102, -9.74023, 1.28.2022 18:0:35.909
291, 2.13176, 0.338656, 183.156, -0.000976562, 0, -0.000976562, -0.0888672, 0.368164, -9.68652, 1.28.2022 18:0:35.917
292, 2.13176, 0.338656, 183.156, -0.000976562, 0, 0, -0.0703125, 0.344727, -9.71582, 1.28.2022 18:0:35.925
293, 2.13176, 0.338656, 183.156, 0, 0.000976562, 0, -0.0136719, 0.347656, -9.7168, 1.28.2022 18:0:35.933
294, 2.13176, 0.338656, 183.156, -0.000976562, 0, -0.000976562, -0.0996094, 0.371094, -9.72168, 1.28.2022 18:0:35.941
295, 2.13176, 0.338656, 183.156, -0.000976562, 0, 0, 0.000976562, 0.366211, -9.7207, 1.28.2022 18:0:35.949
296, 2.12477, 0.338463, 183.156, 0, 0, 0, -0.0585938, 0.334961, -9.70898, 1.28.2022 18:0:35.957
297, 2.12497, 0.331473, 183.156, -0.000976562, 0, 0, -0.0517578, 0.369141, -9.72461, 1.28.2022 18:0:35.965
298, 2.12497, 0.331473, 183.156, -0.00195312, 0, -0.000976562, 0.000976562, 0.363281, -9.69531, 1.28.2022 18:0:35.973
299, 2.12497, 0.331473, 183.156, 0, 0, -0.000976562, -0.0947266, 0.381836, -9.73535, 1.28.2022 18:0:35.981
300, 2.12494, 0.331603, 183.163, 0, -0.00195312, -0.00292969, -0.0625, 0.386719, -9.66504, 1.28.2022 18:0:35.989
301, 2.12494, 0.331603, 183.163, 0, -0.00195312, -0.00195312, -0.0332031, 0.350586, -9.73242, 1.28.2022 18:0:35.997
302, 2.12494, 0.331603, 183.163, -0.000976562, 0, -0.000976562, -0.0947266, 0.352539, -9.73438, 1.28.2022 18:0:36.005
303, 2.12494, 0.331603, 183.163, -0.000976562, 0, -0.000976562, -0.0283203, 0.374023, -9.72266, 1.28.2022 18:0:36.013
304, 2.12494, 0.331603, 183.163, -0.000976562, -0.00195312, -0.000976562, -0.0732422, 0.354492, -9.71582, 1.28.2022 18:0:36.021
305, 2.12494, 0.331603, 183.163, -0.000976562, 0, 0, -0.0917969, 0.380859, -9.70703, 1.28.2022 18:0:36.029
306, 2.12494, 0.331603, 183.163, -0.000976562, 0.000976562, 0, -0.00390625, 0.364258, -9.73535, 1.28.2022 18:0:36.037
307, 2.12513, 0.324613, 183.163, -0.00195312, -0.00195312, 0, -0.0966797, 0.375977, -9.72363, 1.28.2022 18:0:36.045
308, 2.12513, 0.324613, 183.163, -0.000976562, 0, 0, -0.0703125, 0.368164, -9.70801, 1.28.2022 18:0:36.053
309, 2.12513, 0.324613, 183.163, -0.00195312, 0, 0, -0.0351562, 0.337891, -9.7168, 1.28.2022 18:0:36.061
310, 2.13211, 0.324806, 183.163, -0.00195312, 0.000976562, 0, -0.0849609, 0.392578, -9.71191, 1.28.2022 18:0:36.069
311, 2.13211, 0.324806, 183.163, -0.000976562, 0, -0.000976562, -0.00390625, 0.348633, -9.69043, 1.28.2022 18:0:36.077
312, 2.13211, 0.324806, 183.163, -0.000976562, -0.00195312, 0, -0.0634766, 0.326172, -9.71875, 1.28.2022 18:0:36.085
313, 2.13211, 0.324806, 183.163, -0.000976562, 0, -0.000976562, -0.0703125, 0.37207, -9.66504, 1.28.2022 18:0:36.093
314, 2.13211, 0.324806, 183.163, 0, 0, 0, -0.00195312, 0.347656, -9.74316, 1.28.2022 18:0:36.101
315, 2.13211, 0.324806, 183.163, 0, 0.000976562, 0, -0.09375, 0.382812, -9.69043, 1.28.2022 18:0:36.107
316, 2.13211, 0.324806, 183.163, -0.000976562, 0, 0, -0.0605469, 0.392578, -9.7002, 1.28.2022 18:0:36.115
317, 2.13211, 0.324806, 183.163, -0.000976562, -0.000976562, 0, -0.0351562, 0.367188, -9.73438, 1.28.2022 18:0:36.125
318, 2.13211, 0.324806, 183.163, -0.00195312, -0.000976562, 0.000976562, -0.0878906, 0.405273, -9.72363, 1.28.2022 18:0:36.131
319, 2.13211, 0.324806, 183.163, -0.000976562, -0.000976562, 0, -0.0478516, 0.367188, -9.74609, 1.28.2022 18:0:36.139
320, 2.13211, 0.324806, 183.163, -0.000976562, -0.000976562, 0, -0.0878906, 0.329102, -9.75391, 1.28.2022 18:0:36.147
321, 2.13211, 0.324806, 183.163, 0.000976562, -0.00195312, 0.000976562, -0.0556641, 0.363281, -9.69922, 1.28.2022 18:0:36.155
322, 2.13211, 0.324806, 183.163, -0.000976562, -0.000976562, 0, -0.00390625, 0.329102, -9.73633, 1.28.2022 18:0:36.163
323, 2.13211, 0.324806, 183.163, 0, 0.000976562, 0, -0.0917969, 0.344727, -9.71094, 1.28.2022 18:0:36.171
324, 2.13211, 0.324806, 183.163, 0.000976562, -0.000976562, 0.000976562, -0.078125, 0.371094, -9.70508, 1.28.2022 18:0:36.179
325, 2.13214, 0.324676, 183.156, 0, -0.00195312, 0, -0.0322266, 0.333008, -9.70996, 1.28.2022 18:0:36.187
326, 2.13195, 0.331666, 183.156, -0.000976562, -0.000976562, 0, -0.0966797, 0.371094, -9.71191, 1.28.2022 18:0:36.195
327, 2.13195, 0.331666, 183.156, -0.000976562, -0.000976562, 0.000976562, -0.0253906, 0.349609, -9.71875, 1.28.2022 18:0:36.203
328, 2.13195, 0.331666, 183.156, -0.00195312, -0.00195312, 0, -0.0400391, 0.336914, -9.70508, 1.28.2022 18:0:36.211
329, 2.13195, 0.331666, 183.156, 0, 0.000976562, -0.000976562, -0.0849609, 0.336914, -9.6875, 1.28.2022 18:0:36.219
330, 2.13195, 0.331666, 183.156, -0.000976562, 0.000976562, 0, -0.0136719, 0.352539, -9.74512, 1.28.2022 18:0:36.227
331, 2.13195, 0.331666, 183.156, 0, -0.000976562, 0, -0.106445, 0.349609, -9.72266, 1.28.2022 18:0:36.235
332, 2.13195, 0.331666, 183.156, 0, -0.00195312, 0, -0.0869141, 0.387695, -9.70996, 1.28.2022 18:0:36.243
333, 2.12497, 0.331473, 183.156, 0, -0.000976562, 0, -0.046875, 0.359375, -9.73438, 1.28.2022 18:0:36.251
334, 2.12497, 0.331473, 183.156, 0, -0.000976562, 0, -0.104492, 0.344727, -9.70801, 1.28.2022 18:0:36.259
335, 2.12497, 0.331473, 183.156, -0.000976562, -0.00195312, 0, -0.0205078, 0.368164, -9.70605, 1.28.2022 18:0:36.267
336, 2.12497, 0.331473, 183.156, -0.000976562, -0.000976562, 0, -0.0400391, 0.333008, -9.72168, 1.28.2022 18:0:36.275
337, 2.12477, 0.338463, 183.156, 0.000976562, -0.000976562, 0.000976562, -0.0927734, 0.375977, -9.72656, 1.28.2022 18:0:36.283
338, 2.12477, 0.338463, 183.156, 0, -0.000976562, 0, -0.0136719, 0.362305, -9.72559, 1.28.2022 18:0:36.291
339, 2.11779, 0.338271, 183.156, -0.000976562, -0.000976562, 0, -0.0849609, 0.37793, -9.70996, 1.28.2022 18:0:36.299
340, 2.11779, 0.338271, 183.156, -0.000976562, -0.000976562, 0, -0.0654297, 0.373047, -9.69434, 1.28.2022 18:0:36.307
341, 2.11779, 0.338271, 183.156, -0.00195312, -0.000976562, 0.000976562, -0.0283203, 0.347656, -9.7373, 1.28.2022 18:0:36.315
342, 2.11779, 0.338271, 183.156, -0.00195312, -0.000976562, 0.000976562, -0.132812, 0.392578, -9.70215, 1.28.2022 18:0:36.323
343, 2.11779, 0.338271, 183.156, 0.000976562, -0.000976562, 0.000976562, -0.0595703, 0.345703, -9.74219, 1.28.2022 18:0:36.331
344, 2.11779, 0.338271, 183.156, -0.000976562, -0.000976562, 0.000976562, -0.0273438, 0.34375, -9.68555, 1.28.2022 18:0:36.339
345, 2.11782, 0.338141, 183.149, -0.000976562, -0.000976562, 0, -0.0849609, 0.375, -9.69336, 1.28.2022 18:0:36.347
346, 2.11763, 0.345131, 183.149, -0.000976562, -0.00195312, 0, -0.0234375, 0.357422, -9.7207, 1.28.2022 18:0:36.355
347, 2.11763, 0.345131, 183.149, -0.000976562, -0.000976562, 0, -0.0673828, 0.353516, -9.66602, 1.28.2022 18:0:36.363
348, 2.11763, 0.345131, 183.149, -0.000976562, -0.000976562, 0, -0.0605469, 0.368164, -9.69434, 1.28.2022 18:0:36.371
349, 2.11763, 0.345131, 183.149, 0, 0, -0.000976562, -0.0244141, 0.34082, -9.66895, 1.28.2022 18:0:36.379
350, 2.11763, 0.345131, 183.149, 0, 0, -0.000976562, -0.124023, 0.376953, -9.74023, 1.28.2022 18:0:36.387
351, 2.11763, 0.345131, 183.149, 0.000976562, 0, -0.00195312, -0.0302734, 0.34668, -9.7002, 1.28.2022 18:0:36.395
352, 2.1176, 0.345261, 183.156, -0.000976562, 0, -0.00195312, -0.0566406, 0.365234, -9.74609, 1.28.2022 18:0:36.403
353, 2.1176, 0.345261, 183.156, -0.000976562, 0, -0.000976562, -0.0654297, 0.401367, -9.67871, 1.28.2022 18:0:36.411
354, 2.1176, 0.345261, 183.156, -0.000976562, 0, -0.000976562, -0.0166016, 0.337891, -9.73145, 1.28.2022 18:0:36.419
355, 2.1176, 0.345261, 183.156, 0, 0.000976562, -0.000976562, -0.0830078, 0.359375, -9.73145, 1.28.2022 18:0:36.427
356, 2.1176, 0.345261, 183.156, 0, 0.000976562, -0.000976562, -0.0849609, 0.361328, -9.71484, 1.28.2022 18:0:36.435
357, 2.1176, 0.345261, 183.156, 0, 0, -0.000976562, -0.0322266, 0.354492, -9.70703, 1.28.2022 18:0:36.443
358, 2.1176, 0.345261, 183.156, 0, 0, -0.00195312, -0.101562, 0.390625, -9.70703, 1.28.2022 18:0:36.451
359, 2.1176, 0.345261, 183.156, -0.000976562, 0, -0.000976562, -0.0234375, 0.356445, -9.70898, 1.28.2022 18:0:36.459
360, 2.1176, 0.345261, 183.156, -0.00195312, 0, -0.00195312, -0.0419922, 0.317383, -9.68848, 1.28.2022 18:0:36.467
361, 2.12458, 0.345454, 183.156, -0.000976562, 0, -0.000976562, -0.104492, 0.360352, -9.73633, 1.28.2022 18:0:36.475
362, 2.12458, 0.345454, 183.156, -0.000976562, 0, -0.000976562, -0.0117188, 0.326172, -9.73633, 1.28.2022 18:0:36.483
363, 2.12458, 0.345454, 183.156, -0.00195312, 0.000976562, -0.00195312, -0.0947266, 0.348633, -9.74805, 1.28.2022 18:0:36.491
364, 2.12458, 0.345454, 183.156, -0.000976562, 0, -0.00195312, -0.0605469, 0.371094, -9.70117, 1.28.2022 18:0:36.499
365, 2.1176, 0.345261, 183.156, 0, 0, -0.000976562, -0.0322266, 0.368164, -9.7041, 1.28.2022 18:0:36.507
366, 2.1176, 0.345261, 183.156, -0.000976562, 0, -0.00195312, -0.0820312, 0.392578, -9.70508, 1.28.2022 18:0:36.515
367, 2.1176, 0.345261, 183.156, -0.000976562, 0, -0.000976562, -0.00683594, 0.385742, -9.73926, 1.28.2022 18:0:36.523
368, 2.1176, 0.345261, 183.156, -0.000976562, 0, -0.000976562, -0.0185547, 0.369141, -9.72754, 1.28.2022 18:0:36.531
369, 2.1176, 0.345261, 183.156, -0.000976562, 0, -0.000976562, -0.0898438, 0.362305, -9.73633, 1.28.2022 18:0:36.539
370, 2.12458, 0.345454, 183.156, -0.000976562, 0, -0.000976562, -0.0205078, 0.341797, -9.68164, 1.28.2022 18:0:36.547
371, 2.12458, 0.345454, 183.156, -0.000976562, 0, -0.000976562, -0.0634766, 0.34668, -9.68945, 1.28.2022 18:0:36.555
372, 2.12458, 0.345454, 183.156, -0.000976562, 0.000976562, -0.000976562, -0.0751953, 0.359375, -9.70312, 1.28.2022 18:0:36.563
373, 2.12477, 0.338463, 183.156, 0, 0, 0, -0.00585938, 0.365234, -9.69238, 1.28.2022 18:0:36.571
374, 2.12477, 0.338463, 183.156, -0.000976562, 0, 0, -0.12793, 0.384766, -9.69727, 1.28.2022 18:0:36.579
375, 2.12477, 0.338463, 183.156, -0.00195312, -0.000976562, -0.000976562, -0.0556641, 0.368164, -9.69141, 1.28.2022 18:0:36.587
376, 2.12477, 0.338463, 183.156, -0.000976562, 0.000976562, -0.000976562, -0.0751953, 0.353516, -9.69629, 1.28.2022 18:0:36.595
377, 2.12477, 0.338463, 183.156, -0.000976562, 0, -0.000976562, -0.0820312, 0.358398, -9.6748, 1.28.2022 18:0:36.603
378, 2.12477, 0.338463, 183.156, -0.000976562, 0, 0, -0.0273438, 0.348633, -9.69727, 1.28.2022 18:0:36.611
379, 2.12477, 0.338463, 183.156, -0.000976562, 0, 0, -0.0957031, 0.350586, -9.75586, 1.28.2022 18:0:36.619
380, 2.12477, 0.338463, 183.156, -0.000976562, 0, -0.00195312, -0.0634766, 0.385742, -9.72168, 1.28.2022 18:0:36.627
381, 2.12477, 0.338463, 183.156, -0.000976562, -0.000976562, 0, -0.0117188, 0.34082, -9.75684, 1.28.2022 18:0:36.635
382, 2.12477, 0.338463, 183.156, -0.000976562, -0.000976562, 0, -0.106445, 0.37793, -9.70703, 1.28.2022 18:0:36.643
383, 2.12477, 0.338463, 183.156, -0.000976562, -0.000976562, 0, -0.0253906, 0.37793, -9.70898, 1.28.2022 18:0:36.651
384, 2.12477, 0.338463, 183.156, 0, -0.000976562, 0.000976562, -0.0146484, 0.360352, -9.76367, 1.28.2022 18:0:36.659
385, 2.12477, 0.338463, 183.156, -0.000976562, -0.000976562, 0, -0.0800781, 0.356445, -9.71484, 1.28.2022 18:0:36.667
386, 2.12477, 0.338463, 183.156, 0, -0.000976562, 0, 0.0126953, 0.349609, -9.71191, 1.28.2022 18:0:36.675
387, 2.12477, 0.338463, 183.156, -0.000976562, -0.000976562, 0, -0.0585938, 0.363281, -9.67969, 1.28.2022 18:0:36.683
388, 2.13176, 0.338656, 183.156, -0.000976562, -0.000976562, -0.000976562, -0.0830078, 0.375977, -9.72168, 1.28.2022 18:0:36.691
389, 2.13176, 0.338656, 183.156, 0, -0.00195312, -0.00195312, -0.0205078, 0.371094, -9.70898, 1.28.2022 18:0:36.699
390, 2.13176, 0.338656, 183.156, 0, -0.00195312, -0.00195312, -0.108398, 0.378906, -9.66211, 1.28.2022 18:0:36.707
391, 2.13176, 0.338656, 183.156, -0.000976562, -0.000976562, 0, -0.0380859, 0.383789, -9.73926, 1.28.2022 18:0:36.715
392, 2.13176, 0.338656, 183.156, -0.000976562, -0.000976562, 0, -0.0283203, 0.385742, -9.72949, 1.28.2022 18:0:36.723
393, 2.13176, 0.338656, 183.156, 0, 0, 0, -0.0986328, 0.373047, -9.7002, 1.28.2022 18:0:36.731
394, 2.13176, 0.338656, 183.156, -0.000976562, -0.000976562, 0, -0.0253906, 0.34082, -9.7334, 1.28.2022 18:0:36.739
395, 2.13176, 0.338656, 183.156, 0, -0.00195312, 0, -0.0898438, 0.388672, -9.72852, 1.28.2022 18:0:36.747
396, 2.13176, 0.338656, 183.156, -0.000976562, -0.00195312, 0, -0.0751953, 0.375977, -9.70996, 1.28.2022 18:0:36.755
397, 2.13176, 0.338656, 183.156, -0.000976562, 0, 0, -0.0136719, 0.326172, -9.7334, 1.28.2022 18:0:36.763
398, 2.13874, 0.338849, 183.156, 0.000976562, -0.000976562, -0.000976562, -0.103516, 0.394531, -9.70215, 1.28.2022 18:0:36.771
399, 2.13874, 0.338849, 183.156, 0, -0.000976562, 0.000976562, -0.0253906, 0.359375, -9.72754, 1.28.2022 18:0:36.779
400, 2.13894, 0.331859, 183.156, -0.000976562, -0.000976562, 0, -0.0185547, 0.344727, -9.70215, 1.28.2022 18:0:36.787
401, 2.13894, 0.331859, 183.156, 0, -0.000976562, 0, -0.0947266, 0.371094, -9.7168, 1.28.2022 18:0:36.795
402, 2.13894, 0.331859, 183.156, -0.000976562, -0.000976562, 0, 0.0292969, 0.37207, -9.74023, 1.28.2022 18:0:36.803
403, 2.13894, 0.331859, 183.156, -0.00195312, -0.000976562, 0, -0.0537109, 0.374023, -9.72461, 1.28.2022 18:0:36.811
404, 2.13894, 0.331859, 183.156, -0.000976562, -0.000976562, 0, -0.0664062, 0.373047, -9.7666, 1.28.2022 18:0:36.819
405, 2.13894, 0.331859, 183.156, 0, -0.000976562, 0, -0.0351562, 0.342773, -9.74219, 1.28.2022 18:0:36.827
406, 2.13894, 0.331859, 183.156, -0.000976562, -0.000976562, 0, -0.0996094, 0.37207, -9.74023, 1.28.2022 18:0:36.835
407, 2.13894, 0.331859, 183.156, 0, 0, -0.000976562, -0.0439453, 0.358398, -9.68262, 1.28.2022 18:0:36.843
408, 2.14592, 0.332052, 183.156, 0, -0.000976562, 0, -0.0419922, 0.354492, -9.72559, 1.28.2022 18:0:36.851
409, 2.14612, 0.325062, 183.156, -0.000976562, -0.00195312, 0.000976562, -0.101562, 0.369141, -9.7168, 1.28.2022 18:0:36.859
410, 2.14612, 0.325062, 183.156, -0.000976562, -0.000976562, 0, -0.0351562, 0.376953, -9.74902, 1.28.2022 18:0:36.867
411, 2.14612, 0.325062, 183.156, -0.000976562, 0, -0.000976562, -0.0810547, 0.34082, -9.73926, 1.28.2022 18:0:36.875
412, 2.14612, 0.325062, 183.156, 0, -0.000976562, -0.000976562, -0.0537109, 0.382812, -9.71289, 1.28.2022 18:0:36.883
413, 2.14612, 0.325062, 183.156, 0, 0, -0.000976562, -0.00390625, 0.34082, -9.73145, 1.28.2022 18:0:36.891
414, 2.14612, 0.325062, 183.156, 0, 0, 0, -0.123047, 0.400391, -9.71582, 1.28.2022 18:0:36.899
415, 2.14612, 0.325062, 183.156, 0, 0, 0.000976562, -0.0683594, 0.371094, -9.72656, 1.28.2022 18:0:36.907
416, 2.14612, 0.325062, 183.156, -0.000976562, 0, 0.000976562, -0.0498047, 0.357422, -9.74414, 1.28.2022 18:0:36.915
417, 2.14612, 0.325062, 183.156, -0.000976562, 0.000976562, 0, -0.0800781, 0.357422, -9.71777, 1.28.2022 18:0:36.923
418, 2.14612, 0.325062, 183.156, -0.000976562, -0.00195312, 0, -0.00878906, 0.350586, -9.73535, 1.28.2022 18:0:36.931
419, 2.14612, 0.325062, 183.156, -0.000976562, -0.00195312, -0.000976562, -0.0566406, 0.344727, -9.72266, 1.28.2022 18:0:36.939
420, 2.14592, 0.332052, 183.156, -0.000976562, -0.00195312, 0, -0.0654297, 0.373047, -9.70312, 1.28.2022 18:0:36.947
421, 2.14592, 0.332052, 183.156, 0, 0, 0.000976562, -0.0224609, 0.368164, -9.70605, 1.28.2022 18:0:36.955
422, 2.14592, 0.332052, 183.156, -0.000976562, 0, 0, -0.0996094, 0.364258, -9.72656, 1.28.2022 18:0:36.963
423, 2.14592, 0.332052, 183.156, -0.000976562, 0, 0, -0.0566406, 0.336914, -9.70215, 1.28.2022 18:0:36.971
424, 2.14592, 0.332052, 183.156, 0, 0, 0, -0.0517578, 0.326172, -9.73828, 1.28.2022 18:0:36.979
425, 2.14592, 0.332052, 183.156, 0, -0.00195312, 0, -0.0917969, 0.344727, -9.69629, 1.28.2022 18:0:36.987
426, 2.14592, 0.332052, 183.156, -0.000976562, 0, 0, -0.0136719, 0.34668, -9.69824, 1.28.2022 18:0:36.995
427, 2.13894, 0.331859, 183.156, -0.000976562, 0, 0, -0.0693359, 0.355469, -9.75293, 1.28.2022 18:0:37.003
428, 2.13894, 0.331859, 183.156, -0.000976562, -0.00195312, 0, -0.078125, 0.375977, -9.70312, 1.28.2022 18:0:37.011
429, 2.13894, 0.331859, 183.156, -0.000976562, 0, 0, -0.0332031, 0.304688, -9.74609, 1.28.2022 18:0:37.019
430, 2.13894, 0.331859, 183.156, -0.000976562, 0.000976562, -0.000976562, -0.103516, 0.349609, -9.70117, 1.28.2022 18:0:37.027
431, 2.13894, 0.331859, 183.156, -0.000976562, 0, -0.000976562, -0.0390625, 0.342773, -9.65234, 1.28.2022 18:0:37.035
432, 2.13195, 0.331666, 183.156, 0, 0, 0, -0.046875, 0.361328, -9.71777, 1.28.2022 18:0:37.043
433, 2.13195, 0.331666, 183.156, -0.000976562, 0, 0, -0.0888672, 0.382812, -9.68848, 1.28.2022 18:0:37.051
434, 2.13195, 0.331666, 183.156, 0, 0.000976562, 0, -0.0302734, 0.361328, -9.71094, 1.28.2022 18:0:37.059
435, 2.13195, 0.331666, 183.156, -0.000976562, 0.000976562, 0.000976562, -0.0751953, 0.332031, -9.68262, 1.28.2022 18:0:37.067
436, 2.12497, 0.331473, 183.156, 0, 0, 0, -0.0986328, 0.371094, -9.69824, 1.28.2022 18:0:37.075
437, 2.12477, 0.338463, 183.156, 0, 0, 0, -0.0263672, 0.333984, -9.74512, 1.28.2022 18:0:37.083
438, 2.12477, 0.338463, 183.156, -0.000976562, 0, -0.000976562, -0.130859, 0.365234, -9.73535, 1.28.2022 18:0:37.089
439, 2.12477, 0.338463, 183.156, 0, 0, -0.000976562, -0.0556641, 0.382812, -9.70117, 1.28.2022 18:0:37.097
440, 2.12477, 0.338463, 183.156, 0, 0, 0.000976562, -0.0351562, 0.345703, -9.74219, 1.28.2022 18:0:37.105
441, 2.11779, 0.338271, 183.156, -0.000976562, -0.00195312, 0, -0.0898438, 0.355469, -9.73145, 1.28.2022 18:0:37.113
442, 2.1176, 0.345261, 183.156, 0, 0, 0, -0.0263672, 0.348633, -9.74902, 1.28.2022 18:0:37.121
443, 2.1176, 0.345261, 183.156, 0, 0.000976562, 0, -0.0800781, 0.342773, -9.71582, 1.28.2022 18:0:37.129
444, 2.1176, 0.345261, 183.156, 0, 0, -0.000976562, -0.0996094, 0.363281, -9.70312, 1.28.2022 18:0:37.137
445, 2.1176, 0.345261, 183.156, -0.000976562, -0.00195312, 0, -0.0283203, 0.34082, -9.73828, 1.28.2022 18:0:37.145
446, 2.1176, 0.345261, 183.156, -0.000976562, 0, 0, -0.0800781, 0.368164, -9.70312, 1.28.2022 18:0:37.153
447, 2.11061, 0.345068, 183.156, -0.00195312, 0, 0, -0.046875, 0.361328, -9.71777, 1.28.2022 18:0:37.161
448, 2.11042, 0.352058, 183.156, 0, 0, 0, -0.0253906, 0.352539, -9.71875, 1.28.2022 18:0:37.169
449, 2.11042, 0.352058, 183.156, 0, 0, 0, -0.0898438, 0.366211, -9.70508, 1.28.2022 18:0:37.177
450, 2.11042, 0.352058, 183.156, -0.000976562, 0.000976562, 0, -0.015625, 0.375977, -9.70215, 1.28.2022 18:0:37.185
451, 2.11042, 0.352058, 183.156, -0.000976562, 0, 0, -0.0488281, 0.34375, -9.67871, 1.28.2022 18:0:37.193
452, 2.11042, 0.352058, 183.156, 0.000976562, 0, 0, -0.0634766, 0.333008, -9.71191, 1.28.2022 18:0:37.201
453, 2.11042, 0.352058, 183.156, 0, 0, 0.000976562, -0.0253906, 0.335938, -9.72363, 1.28.2022 18:0:37.209
454, 2.11042, 0.352058, 183.156, -0.00195312, 0, 0.000976562, -0.118164, 0.370117, -9.68359, 1.28.2022 18:0:37.217
455, 2.11042, 0.352058, 183.156, -0.000976562, 0, 0, -0.0869141, 0.389648, -9.69824, 1.28.2022 18:0:37.225
456, 2.11042, 0.352058, 183.156, -0.000976562, 0.000976562, 0.000976562, -0.0683594, 0.355469, -9.74121, 1.28.2022 18:0:37.233
457, 2.11042, 0.352058, 183.156, -0.000976562, 0, 0.000976562, -0.110352, 0.373047, -9.68652, 1.28.2022 18:0:37.241
458, 2.10343, 0.351865, 183.156, 0, -0.00195312, 0.000976562, -0.0351562, 0.354492, -9.71582, 1.28.2022 18:0:37.249
459, 2.10343, 0.351865, 183.156, -0.000976562, 0, 0.000976562, -0.0449219, 0.333008, -9.72363, 1.28.2022 18:0:37.257
460, 2.10343, 0.351865, 183.156, -0.00195312, 0.000976562, 0, -0.0820312, 0.350586, -9.65625, 1.28.2022 18:0:37.265
461, 2.11042, 0.352058, 183.156, -0.00195312, 0, 0, -0.0322266, 0.371094, -9.71582, 1.28.2022 18:0:37.273
462, 2.11042, 0.352058, 183.156, -0.000976562, 0, -0.00195312, -0.129883, 0.353516, -9.68164, 1.28.2022 18:0:37.281
463, 2.11022, 0.359049, 183.156, -0.000976562, 0.000976562, 0, -0.0722656, 0.353516, -9.67773, 1.28.2022 18:0:37.289
464, 2.11022, 0.359049, 183.156, -0.000976562, 0, 0, -0.0302734, 0.362305, -9.73047, 1.28.2022 18:0:37.297
465, 2.11022, 0.359049, 183.156, -0.000976562, -0.00195312, 0, -0.140625, 0.37207, -9.74023, 1.28.2022 18:0:37.305
466, 2.11022, 0.359049, 183.156, -0.000976562, -0.00195312, 0, -0.00585938, 0.366211, -9.7041, 1.28.2022 18:0:37.313
467, 2.11022, 0.359049, 183.156, -0.000976562, -0.00195312, 0, -0.0214844, 0.353516, -9.75879, 1.28.2022 18:0:37.321
468, 2.11003, 0.366039, 183.156, 0, -0.00195312, -0.00195312, -0.0439453, 0.375977, -9.70312, 1.28.2022 18:0:37.329
469, 2.11003, 0.366039, 183.156, -0.000976562, -0.00195312, 0, -0.0107422, 0.339844, -9.70996, 1.28.2022 18:0:37.337
470, 2.11003, 0.366039, 183.156, -0.000976562, 0, 0.000976562, -0.09375, 0.379883, -9.69531, 1.28.2022 18:0:37.345
471, 2.11003, 0.366039, 183.156, 0, 0, 0.000976562, -0.0419922, 0.349609, -9.70215, 1.28.2022 18:0:37.353
472, 2.11003, 0.366039, 183.156, -0.000976562, 0.000976562, 0, -0.0175781, 0.327148, -9.68652, 1.28.2022 18:0:37.361
473, 2.11003, 0.366039, 183.156, -0.000976562, 0.000976562, -0.00195312, -0.118164, 0.373047, -9.70703, 1.28.2022 18:0:37.369
474, 2.11022, 0.359049, 183.156, -0.000976562, 0.000976562, 0, -0.0234375, 0.34668, -9.70898, 1.28.2022 18:0:37.377
475, 2.11022, 0.359049, 183.156, -0.000976562, 0, 0, -0.0517578, 0.369141, -9.71094, 1.28.2022 18:0:37.385
476, 2.11022, 0.359049, 183.156, -0.000976562, 0, 0, -0.116211, 0.364258, -9.70703, 1.28.2022 18:0:37.393
477, 2.11022, 0.359049, 183.156, 0, -0.000976562, -0.000976562, -0.0283203, 0.347656, -9.71875, 1.28.2022 18:0:37.401
478, 2.11022, 0.359049, 183.156, -0.000976562, -0.000976562, -0.000976562, -0.0996094, 0.352539, -9.71289, 1.28.2022 18:0:37.409
479, 2.11022, 0.359049, 183.156, 0, -0.000976562, -0.000976562, -0.0537109, 0.370117, -9.6748, 1.28.2022 18:0:37.417
480, 2.11022, 0.359049, 183.156, 0, -0.000976562, -0.000976562, -0.0439453, 0.349609, -9.69922, 1.28.2022 18:0:37.425
481, 2.11022, 0.359049, 183.156, 0, -0.000976562, -0.00195312, -0.123047, 0.378906, -9.72559, 1.28.2022 18:0:37.433
482, 2.11022, 0.359049, 183.156, 0, 0, -0.00292969, -0.0400391, 0.362305, -9.74609, 1.28.2022 18:0:37.441
483, 2.11022, 0.359049, 183.156, -0.000976562, -0.000976562, -0.000976562, -0.0732422, 0.368164, -9.70312, 1.28.2022 18:0:37.449
484, 2.11022, 0.359049, 183.156, 0, 0.000976562, -0.000976562, -0.0849609, 0.374023, -9.72852, 1.28.2022 18:0:37.457
485, 2.11022, 0.359049, 183.156, -0.000976562, -0.000976562, -0.000976562, -0.0136719, 0.328125, -9.72852, 1.28.2022 18:0:37.465
486, 2.11022, 0.359049, 183.156, -0.000976562, -0.000976562, -0.00195312, -0.0849609, 0.34375, -9.68945, 1.28.2022 18:0:37.473
487, 2.11022, 0.359049, 183.156, -0.00195312, -0.000976562, -0.00195312, -0.0605469, 0.375, -9.66992, 1.28.2022 18:0:37.481
488, 2.11022, 0.359049, 183.156, -0.000976562, -0.000976562, -0.000976562, -0.0439453, 0.344727, -9.69727, 1.28.2022 18:0:37.489
489, 2.11022, 0.359049, 183.156, 0, -0.000976562, -0.000976562, -0.111328, 0.387695, -9.71191, 1.28.2022 18:0:37.497
490, 2.11022, 0.359049, 183.156, -0.000976562, -0.00195312, 0, -0.0253906, 0.352539, -9.72852, 1.28.2022 18:0:37.505
491, 2.11003, 0.366039, 183.156, 0, -0.000976562, 0, -0.0537109, 0.364258, -9.70801, 1.28.2022 18:0:37.513
492, 2.11003, 0.366039, 183.156, -0.000976562, -0.000976562, -0.000976562, -0.0830078, 0.366211, -9.72168, 1.28.2022 18:0:37.521
493, 2.11003, 0.366039, 183.156, -0.000976562, 0.000976562, -0.000976562, -0.0498047, 0.328125, -9.71387, 1.28.2022 18:0:37.529
494, 2.11003, 0.366039, 183.156, 0, -0.000976562, -0.000976562, -0.0898438, 0.344727, -9.72266, 1.28.2022 18:0:37.537
495, 2.11003, 0.366039, 183.156, -0.000976562, -0.000976562, -0.000976562, -0.0898438, 0.366211, -9.7168, 1.28.2022 18:0:37.545
496, 2.11003, 0.366039, 183.156, -0.000976562, -0.000976562, -0.00195312, -0.0322266, 0.330078, -9.70312, 1.28.2022 18:0:37.553
497, 2.11003, 0.366039, 183.156, 0, -0.000976562, -0.00195312, -0.136719, 0.373047, -9.69043, 1.28.2022 18:0:37.561
498, 2.11003, 0.366039, 183.156, -0.000976562, -0.000976562, -0.000976562, -0.0322266, 0.363281, -9.67578, 1.28.2022 18:0:37.569
499, 2.11003, 0.366039, 183.156, 0, -0.000976562, 0, -0.0664062, 0.323242, -9.72363, 1.28.2022 18:0:37.577
500, 2.11003, 0.366039, 183.156, -0.000976562, -0.000976562, -0.000976562, -0.0488281, 0.379883, -9.68945, 1.28.2022 18:0:37.585
501, 2.11003, 0.366039, 183.156, -0.000976562, -0.000976562, -0.000976562, -0.0185547, 0.324219, -9.73145, 1.28.2022 18:0:37.593
502, 2.11003, 0.366039, 183.156, -0.000976562, 0.000976562, -0.000976562, -0.0771484, 0.363281, -9.69629, 1.28.2022 18:0:37.601
503, 2.10984, 0.37303, 183.155, -0.000976562, -0.000976562, -0.000976562, -0.0683594, 0.380859, -9.70996, 1.28.2022 18:0:37.609
504, 2.10984, 0.37303, 183.155, -0.000976562, -0.000976562, -0.000976562, -0.0322266, 0.363281, -9.69434, 1.28.2022 18:0:37.617
505, 2.10984, 0.37303, 183.155, 0, -0.000976562, -0.000976562, -0.111328, 0.395508, -9.7207, 1.28.2022 18:0:37.625
506, 2.10984, 0.37303, 183.155, 0, 0.000976562, 0, -0.0205078, 0.330078, -9.69141, 1.28.2022 18:0:37.633
507, 2.10984, 0.37303, 183.155, -0.000976562, -0.000976562, -0.000976562, -0.0488281, 0.356445, -9.70605, 1.28.2022 18:0:37.641
508, 2.10984, 0.37303, 183.155, 0.000976562, -0.000976562, -0.000976562, -0.0966797, 0.37793, -9.70703, 1.28.2022 18:0:37.649
509, 2.10984, 0.37303, 183.155, 0.000976562, -0.000976562, 0.000976562, 0, 0.335938, -9.73828, 1.28.2022 18:0:37.657
510, 2.10285, 0.372837, 183.155, -0.000976562, -0.00195312, 0, -0.0800781, 0.361328, -9.69141, 1.28.2022 18:0:37.665
511, 2.11003, 0.366039, 183.156, -0.00195312, -0.000976562, 0, -0.0683594, 0.369141, -9.73145, 1.28.2022 18:0:37.673
512, 2.11003, 0.366039, 183.156, -0.00195312, -0.000976562, 0, -0.0400391, 0.350586, -9.75195, 1.28.2022 18:0:37.681
513, 2.11003, 0.366039, 183.156, -0.000976562, 0, 0, -0.119141, 0.362305, -9.74023, 1.28.2022 18:0:37.689
514, 2.11003, 0.366039, 183.156, -0.000976562, -0.000976562, -0.00195312, -0.0449219, 0.331055, -9.72168, 1.28.2022 18:0:37.697
515, 2.11003, 0.366039, 183.156, 0, -0.00195312, -0.00195312, -0.0634766, 0.352539, -9.72754, 1.28.2022 18:0:37.705
516, 2.11003, 0.366039, 183.156, -0.000976562, -0.000976562, -0.00195312, -0.114258, 0.37793, -9.7666, 1.28.2022 18:0:37.713
517, 2.11003, 0.366039, 183.156, -0.000976562, 0, 0, -0.00390625, 0.323242, -9.70605, 1.28.2022 18:0:37.721
518, 2.11003, 0.366039, 183.156, -0.000976562, 0, 0, -0.0722656, 0.368164, -9.69141, 1.28.2022 18:0:37.729
519, 2.11003, 0.366039, 183.156, -0.000976562, 0.000976562, -0.000976562, -0.0966797, 0.356445, -9.69336, 1.28.2022 18:0:37.737
520, 2.11003, 0.366039, 183.156, -0.000976562, -0.000976562, 0, -0.0498047, 0.34082, -9.73047, 1.28.2022 18:0:37.745
521, 2.11003, 0.366039, 183.156, -0.00195312, -0.00195312, -0.00195312, -0.0966797, 0.382812, -9.70215, 1.28.2022 18:0:37.753
522, 2.11, 0.366168, 183.163, -0.000976562, -0.00195312, -0.00195312, -0.0449219, 0.362305, -9.74902, 1.28.2022 18:0:37.761
523, 2.10981, 0.373159, 183.162, -0.00195312, -0.000976562, -0.00195312, -0.0351562, 0.335938, -9.72363, 1.28.2022 18:0:37.769
524, 2.10981, 0.373159, 183.162, -0.000976562, -0.00195312, -0.00195312, -0.0898438, 0.347656, -9.73633, 1.28.2022 18:0:37.777
525, 2.10981, 0.373159, 183.162, -0.000976562, -0.000976562, 0, 0.0175781, 0.336914, -9.69336, 1.28.2022 18:0:37.785
526, 2.10981, 0.373159, 183.162, -0.000976562, 0, 0, -0.0683594, 0.345703, -9.73926, 1.28.2022 18:0:37.793
527, 2.10981, 0.373159, 183.162, -0.000976562, 0, 0, -0.0771484, 0.353516, -9.68457, 1.28.2022 18:0:37.801
528, 2.11, 0.366168, 183.163, -0.00195312, -0.000976562, 0, -0.0439453, 0.361328, -9.7041, 1.28.2022 18:0:37.809
529, 2.11, 0.366168, 183.163, -0.000976562, -0.00195312, 0, -0.123047, 0.380859, -9.71191, 1.28.2022 18:0:37.817
530, 2.11, 0.366168, 183.163, 0, -0.00195312, 0.000976562, -0.0498047, 0.352539, -9.73926, 1.28.2022 18:0:37.825
531, 2.10282, 0.372966, 183.162, -0.00195312, -0.000976562, 0, -0.0664062, 0.359375, -9.71973, 1.28.2022 18:0:37.833
532, 2.10282, 0.372966, 183.162, -0.000976562, -0.000976562, 0, -0.109375, 0.362305, -9.72852, 1.28.2022 18:0:37.841
533, 2.10282, 0.372966, 183.162, -0.000976562, -0.000976562, -0.00195312, 0.00976562, 0.319336, -9.74121, 1.28.2022 18:0:37.849
534, 2.10282, 0.372966, 183.162, -0.000976562, 0, 0, -0.0957031, 0.351562, -9.75977, 1.28.2022 18:0:37.857
535, 2.10282, 0.372966, 183.162, 0, 0, 0.000976562, -0.0683594, 0.361328, -9.70801, 1.28.2022 18:0:37.865
536, 2.10301, 0.365975, 183.163, -0.000976562, 0, 0, -0.0683594, 0.366211, -9.70801, 1.28.2022 18:0:37.873
537, 2.10282, 0.372966, 183.162, -0.000976562, 0, 0, -0.132812, 0.37207, -9.72363, 1.28.2022 18:0:37.881
538, 2.10282, 0.372966, 183.162, 0, -0.000976562, 0, -0.0292969, 0.34082, -9.67383, 1.28.2022 18:0:37.889
539, 2.10282, 0.372966, 183.162, -0.000976562, -0.000976562, -0.00195312, -0.0439453, 0.348633, -9.69727, 1.28.2022 18:0:37.897
540, 2.10282, 0.372966, 183.162, -0.000976562, -0.00195312, 0, -0.112305, 0.37207, -9.75195, 1.28.2022 18:0:37.905
541, 2.10282, 0.372966, 183.162, 0.000976562, 0, 0, 0.00976562, 0.326172, -9.71973, 1.28.2022 18:0:37.913
542, 2.10282, 0.372966, 183.162, 0, -0.000976562, 0, -0.0947266, 0.349609, -9.70117, 1.28.2022 18:0:37.921
543, 2.10282, 0.372966, 183.162, 0.000976562, -0.00195312, 0.000976562, -0.0771484, 0.353516, -9.67578, 1.28.2022 18:0:37.929
544, 2.10282, 0.372966, 183.162, 0, -0.000976562, -0.000976562, -0.00195312, 0.342773, -9.71484, 1.28.2022 18:0:37.937
545, 2.09583, 0.372772, 183.162, 0, -0.000976562, 0, -0.111328, 0.363281, -9.69824, 1.28.2022 18:0:37.945
546, 2.09583, 0.372772, 183.162, 0, -0.000976562, 0.000976562, -0.0234375, 0.356445, -9.71191, 1.28.2022 18:0:37.953
547, 2.09587, 0.372644, 183.155, 0.000976562, 0, 0.000976562, -0.0234375, 0.357422, -9.7207, 1.28.2022 18:0:37.961
548, 2.09587, 0.372644, 183.155, 0, -0.000976562, 0, -0.0664062, 0.374023, -9.71777, 1.28.2022 18:0:37.969
549, 2.09587, 0.372644, 183.155, 0, 0, 0, -0.0322266, 0.339844, -9.70898, 1.28.2022 18:0:37.977
550, 2.09587, 0.372644, 183.155, 0, 0, 0.000976562, -0.0800781, 0.385742, -9.71484, 1.28.2022 18:0:37.985
551, 2.09587, 0.372644, 183.155, 0.000976562, -0.000976562, 0, -0.0771484, 0.375, -9.67188, 1.28.2022 18:0:37.993
552, 2.09587, 0.372644, 183.155, 0.000976562, -0.000976562, 0, -0.0214844, 0.331055, -9.74023, 1.28.2022 18:0:38.001
553, 2.09606, 0.365653, 183.156, 0.000976562, -0.000976562, -0.000976562, -0.0996094, 0.393555, -9.72852, 1.28.2022 18:0:38.009
554, 2.09606, 0.365653, 183.156, 0, 0, 0, -0.0507812, 0.375, -9.6748, 1.28.2022 18:0:38.015
555, 2.09606, 0.365653, 183.156, 0.000976562, 0, 0, -0.0585938, 0.352539, -9.71582, 1.28.2022 18:0:38.023
556, 2.09606, 0.365653, 183.156, 0, -0.000976562, 0, -0.0996094, 0.354492, -9.71289, 1.28.2022 18:0:38.031
557, 2.09606, 0.365653, 183.156, 0, -0.000976562, 0.000976562, -0.0253906, 0.342773, -9.71191, 1.28.2022 18:0:38.041
558, 2.09606, 0.365653, 183.156, 0, -0.000976562, 0, -0.0849609, 0.359375, -9.72266, 1.28.2022 18:0:38.049
559, 2.09606, 0.365653, 183.156, 0, 0, 0, -0.0751953, 0.37793, -9.71484, 1.28.2022 18:0:38.055
560, 2.09606, 0.365653, 183.156, 0, 0.00195312, 0.000976562, 0.00390625, 0.334961, -9.69824, 1.28.2022 18:0:38.063
561, 2.09606, 0.365653, 183.156, 0.000976562, -0.000976562, 0, -0.125977, 0.359375, -9.72363, 1.28.2022 18:0:38.071
562, 2.09606, 0.365653, 183.156, 0, -0.000976562, 0, -0.0380859, 0.345703, -9.74902, 1.28.2022 18:0:38.079
563, 2.09606, 0.365653, 183.156, 0, -0.00195312, 0, -0.0546875, 0.369141, -9.72461, 1.28.2022 18:0:38.087
564, 2.09606, 0.365653, 183.156, 0, -0.000976562, 0, -0.0800781, 0.392578, -9.70215, 1.28.2022 18:0:38.095
565, 2.09606, 0.365653, 183.156, 0, -0.000976562, 0, -0.0175781, 0.371094, -9.70215, 1.28.2022 18:0:38.103
566, 2.10324, 0.358856, 183.156, 0, 0.000976562, -0.000976562, -0.0820312, 0.353516, -9.68262, 1.28.2022 18:0:38.111
567, 2.10324, 0.358856, 183.156, 0, -0.000976562, 0, -0.0791016, 0.401367, -9.67871, 1.28.2022 18:0:38.119
568, 2.10324, 0.358856, 183.156, 0, -0.000976562, 0, -0.0214844, 0.367188, -9.7373, 1.28.2022 18:0:38.127
569, 2.10324, 0.358856, 183.156, 0.000976562, -0.000976562, 0, -0.151367, 0.365234, -9.67578, 1.28.2022 18:0:38.135
570, 2.10324, 0.358856, 183.156, 0, -0.00195312, 0, -0.0419922, 0.368164, -9.69434, 1.28.2022 18:0:38.143
571, 2.10324, 0.358856, 183.156, -0.00195312, -0.000976562, 0, -0.0478516, 0.352539, -9.74414, 1.28.2022 18:0:38.151
572, 2.11003, 0.366039, 183.156, 0.000976562, -0.000976562, 0, -0.108398, 0.358398, -9.67676, 1.28.2022 18:0:38.159
573, 2.11003, 0.366039, 183.156, -0.000976562, -0.000976562, -0.000976562, -0.0332031, 0.362305, -9.72754, 1.28.2022 18:0:38.167
574, 2.11003, 0.366039, 183.156, -0.00195312, -0.000976562, -0.000976562, -0.078125, 0.34668, -9.70898, 1.28.2022 18:0:38.175
575, 2.11003, 0.366039, 183.156, -0.000976562, -0.00195312, -0.000976562, -0.0966797, 0.379883, -9.69043, 1.28.2022 18:0:38.183
576, 2.11702, 0.366232, 183.156, -0.000976562, -0.00195312, -0.000976562, -0.0341797, 0.350586, -9.66895, 1.28.2022 18:0:38.191
577, 2.11702, 0.366232, 183.156, -0.000976562, -0.000976562, -0.000976562, -0.105469, 0.368164, -9.68164, 1.28.2022 18:0:38.199
578, 2.11702, 0.366232, 183.156, -0.000976562, 0, -0.000976562, -0.0488281, 0.344727, -9.70215, 1.28.2022 18:0:38.207
579, 2.11702, 0.366232, 183.156, -0.000976562, -0.000976562, -0.000976562, -0.0419922, 0.356445, -9.70605, 1.28.2022 18:0:38.215
580, 2.11682, 0.373223, 183.155, -0.000976562, -0.000976562, -0.00195312, -0.0996094, 0.362305, -9.72168, 1.28.2022 18:0:38.223
581, 2.11682, 0.373223, 183.155, -0.000976562, -0.00195312, -0.000976562, 0.0185547, 0.324219, -9.67773, 1.28.2022 18:0:38.231
582, 2.11682, 0.373223, 183.155, 0, -0.00195312, 0, -0.0878906, 0.342773, -9.73242, 1.28.2022 18:0:38.239
583, 2.11682, 0.373223, 183.155, 0, -0.00195312, -0.000976562, -0.0927734, 0.37207, -9.73633, 1.28.2022 18:0:38.247
584, 2.11682, 0.373223, 183.155, -0.000976562, -0.000976562, 0, -0.00878906, 0.359375, -9.71387, 1.28.2022 18:0:38.255
585, 2.11682, 0.373223, 183.155, 0, -0.000976562, -0.000976562, -0.111328, 0.401367, -9.74902, 1.28.2022 18:0:38.263
586, 2.11682, 0.373223, 183.155, -0.000976562, -0.00195312, -0.000976562, -0.0498047, 0.385742, -9.72168, 1.28.2022 18:0:38.271
587, 2.11682, 0.373223, 183.155, 0, -0.00195312, -0.000976562, -0.0332031, 0.331055, -9.73145, 1.28.2022 18:0:38.279
588, 2.11682, 0.373223, 183.155, -0.000976562, -0.00195312, -0.000976562, -0.104492, 0.370117, -9.75488, 1.28.2022 18:0:38.287
589, 2.12381, 0.373415, 183.155, -0.000976562, -0.000976562, -0.000976562, -0.00195312, 0.349609, -9.72656, 1.28.2022 18:0:38.295
590, 2.12381, 0.373415, 183.155, -0.000976562, -0.000976562, -0.000976562, -0.0830078, 0.334961, -9.70898, 1.28.2022 18:0:38.303
591, 2.12381, 0.373415, 183.155, 0, -0.000976562, -0.000976562, -0.0830078, 0.364258, -9.71777, 1.28.2022 18:0:38.311
592, 2.12381, 0.373415, 183.155, -0.000976562, -0.000976562, -0.000976562, -0.0322266, 0.37793, -9.70117, 1.28.2022 18:0:38.319
593, 2.12381, 0.373415, 183.155, -0.00195312, -0.000976562, -0.000976562, -0.112305, 0.37207, -9.66016, 1.28.2022 18:0:38.327
594, 2.12381, 0.373415, 183.155, -0.000976562, -0.000976562, -0.000976562, -0.0585938, 0.349609, -9.72559, 1.28.2022 18:0:38.335
595, 2.12381, 0.373415, 183.155, -0.000976562, -0.000976562, -0.000976562, -0.0380859, 0.345703, -9.7373, 1.28.2022 18:0:38.343
596, 2.12381, 0.373415, 183.155, -0.00195312, -0.000976562, -0.000976562, -0.0996094, 0.381836, -9.7334, 1.28.2022 18:0:38.351
597, 2.12381, 0.373415, 183.155, -0.00195312, -0.000976562, -0.000976562, -0.0351562, 0.333984, -9.74219, 1.28.2022 18:0:38.359
598, 2.12381, 0.373415, 183.155, -0.000976562, -0.000976562, -0.000976562, -0.0634766, 0.358398, -9.68457, 1.28.2022 18:0:38.367
599, 2.12381, 0.373415, 183.155, -0.000976562, -0.000976562, -0.000976562, -0.0791016, 0.365234, -9.75781, 1.28.2022 18:0:38.375
600, 2.12381, 0.373415, 183.155, 0, -0.00195312, -0.000976562, -0.0351562, 0.337891, -9.72363, 1.28.2022 18:0:38.383
601, 2.12362, 0.380406, 183.155, 0, -0.00195312, 0, -0.124023, 0.352539, -9.73633, 1.28.2022 18:0:38.391
602, 2.12362, 0.380406, 183.155, -0.000976562, -0.000976562, -0.000976562, -0.0595703, 0.37207, -9.73145, 1.28.2022 18:0:38.399
603, 2.12362, 0.380406, 183.155, -0.00195312, -0.000976562, -0.000976562, -0.0449219, 0.348633, -9.75195, 1.28.2022 18:0:38.407
604, 2.12362, 0.380406, 183.155, -0.000976562, -0.000976562, -0.000976562, -0.0898438, 0.359375, -9.71973, 1.28.2022 18:0:38.415
605, 2.12362, 0.380406, 183.155, -0.000976562, 0, -0.000976562, -0.0205078, 0.349609, -9.71875, 1.28.2022 18:0:38.423
606, 2.12362, 0.380406, 183.155, 0.000976562, 0, -0.000976562, -0.0810547, 0.360352, -9.74805, 1.28.2022 18:0:38.431
607, 2.12362, 0.380406, 183.155, 0.000976562, 0, -0.000976562, -0.0830078, 0.398438, -9.74219, 1.28.2022 18:0:38.439
608, 2.11663, 0.380213, 183.155, 0.000976562, 0, -0.000976562, -0.00390625, 0.351562, -9.71387, 1.28.2022 18:0:38.447
609, 2.11663, 0.380213, 183.155, -0.000976562, 0, -0.000976562, -0.107422, 0.365234, -9.76465, 1.28.2022 18:0:38.455
610, 2.11663, 0.380213, 183.155, 0.000976562, 0, -0.000976562, -0.0634766, 0.368164, -9.70312, 1.28.2022 18:0:38.463
611, 2.11663, 0.380213, 183.155, -0.000976562, 0, -0.000976562, -0.046875, 0.349609, -9.69922, 1.28.2022 18:0:38.471
612, 2.11663, 0.380213, 183.155, -0.000976562, 0, -0.000976562, -0.111328, 0.362305, -9.74023, 1.28.2022 18:0:38.479
613, 2.11663, 0.380213, 183.155, -0.000976562, 0, -0.000976562, -0.0253906, 0.347656, -9.7168, 1.28.2022 18:0:38.487
614, 2.11663, 0.380213, 183.155, 0.000976562, 0, -0.000976562, -0.0585938, 0.351562, -9.68555, 1.28.2022 18:0:38.495
615, 2.11663, 0.380213, 183.155, -0.000976562, 0.000976562, 0.000976562, -0.0703125, 0.366211, -9.69434, 1.28.2022 18:0:38.503
616, 2.11663, 0.380213, 183.155, -0.000976562, 0.000976562, -0.000976562, -0.00878906, 0.342773, -9.7168, 1.28.2022 18:0:38.511
617, 2.11682, 0.373223, 183.155, -0.000976562, 0, 0.000976562, -0.101562, 0.349609, -9.71973, 1.28.2022 18:0:38.519
618, 2.11682, 0.373223, 183.155, -0.000976562, 0, -0.000976562, -0.0537109, 0.366211, -9.71973, 1.28.2022 18:0:38.527
619, 2.11682, 0.373223, 183.155, -0.00195312, 0.000976562, 0, -0.0371094, 0.34668, -9.68359, 1.28.2022 18:0:38.535
620, 2.11682, 0.373223, 183.155, -0.000976562, 0, -0.000976562, -0.118164, 0.384766, -9.7002, 1.28.2022 18:0:38.543
621, 2.11682, 0.373223, 183.155, 0.000976562, 0, -0.000976562, -0.0224609, 0.356445, -9.7002, 1.28.2022 18:0:38.551
622, 2.11682, 0.373223, 183.155, -0.000976562, 0.000976562, -0.000976562, -0.0732422, 0.334961, -9.70215, 1.28.2022 18:0:38.559
623, 2.11682, 0.373223, 183.155, -0.000976562, 0, -0.000976562, -0.0800781, 0.351562, -9.70117, 1.28.2022 18:0:38.567
624, 2.11682, 0.373223, 183.155, -0.00195312, 0, -0.000976562, -0.00878906, 0.352539, -9.72363, 1.28.2022 18:0:38.575
625, 2.11682, 0.373223, 183.155, 0, 0, -0.00195312, -0.0947266, 0.381836, -9.74512, 1.28.2022 18:0:38.583
626, 2.11682, 0.373223, 183.155, -0.000976562, 0, -0.000976562, -0.046875, 0.387695, -9.71484, 1.28.2022 18:0:38.591
627, 2.11682, 0.373223, 183.155, -0.000976562, 0.000976562, -0.000976562, -0.0351562, 0.354492, -9.71582, 1.28.2022 18:0:38.599
628, 2.11702, 0.366232, 183.156, 0.000976562, 0, -0.000976562, -0.130859, 0.392578, -9.7207, 1.28.2022 18:0:38.607
629, 2.11702, 0.366232, 183.156, -0.000976562, 0, -0.000976562, -0.0166016, 0.347656, -9.72852, 1.28.2022 18:0:38.615
630, 2.11702, 0.366232, 183.156, -0.000976562, 0, -0.00195312, -0.0849609, 0.338867, -9.68262, 1.28.2022 18:0:38.623
631, 2.11702, 0.366232, 183.156, -0.000976562, 0.000976562, -0.000976562, -0.0537109, 0.373047, -9.71289, 1.28.2022 18:0:38.631
632, 2.11702, 0.366232, 183.156, -0.00195312, 0, -0.000976562, -0.0126953, 0.355469, -9.68555, 1.28.2022 18:0:38.639
633, 2.11702, 0.366232, 183.156, -0.00195312, 0, -0.000976562, -0.0869141, 0.375977, -9.7002, 1.28.2022 18:0:38.647
634, 2.11702, 0.366232, 183.156, 0.000976562, 0.000976562, -0.000976562, -0.0488281, 0.378906, -9.66309, 1.28.2022 18:0:38.655
635, 2.11702, 0.366232, 183.156, -0.000976562, -0.000976562, 0, -0.0537109, 0.319336, -9.67383, 1.28.2022 18:0:38.663
636, 2.11702, 0.366232, 183.156, -0.000976562, -0.000976562, -0.000976562, -0.116211, 0.387695, -9.71582, 1.28.2022 18:0:38.671
637, 2.11702, 0.366232, 183.156, 0, -0.000976562, -0.00195312, -0.0332031, 0.359375, -9.72754, 1.28.2022 18:0:38.679
638, 2.11702, 0.366232, 183.156, 0, -0.00195312, -0.00195312, -0.0556641, 0.351562, -9.68555, 1.28.2022 18:0:38.687
639, 2.11702, 0.366232, 183.156, -0.000976562, -0.000976562, -0.000976562, -0.0800781, 0.361328, -9.70605, 1.28.2022 18:0:38.695
640, 2.11702, 0.366232, 183.156, -0.000976562, -0.000976562, -0.000976562, -0.015625, 0.325195, -9.69824, 1.28.2022 18:0:38.703
641, 2.11702, 0.366232, 183.156, 0, -0.000976562, -0.00195312, -0.101562, 0.369141, -9.70996, 1.28.2022 18:0:38.711
642, 2.11702, 0.366232, 183.156, -0.000976562, -0.000976562, -0.000976562, -0.0615234, 0.364258, -9.70801, 1.28.2022 18:0:38.719
643, 2.11702, 0.366232, 183.156, -0.00195312, -0.000976562, 0, -0.0449219, 0.335938, -9.72168, 1.28.2022 18:0:38.727
644, 2.124, 0.366425, 183.156, -0.00195312, -0.000976562, 0, -0.125, 0.363281, -9.68848, 1.28.2022 18:0:38.735
645, 2.124, 0.366425, 183.156, -0.000976562, -0.000976562, -0.00195312, -0.0234375, 0.329102, -9.73633, 1.28.2022 18:0:38.743
646, 2.11702, 0.366232, 183.156, -0.000976562, 0, -0.00195312, -0.0498047, 0.337891, -9.72559, 1.28.2022 18:0:38.751
647, 2.11702, 0.366232, 183.156, -0.000976562, -0.000976562, -0.000976562, -0.0996094, 0.37207, -9.75684, 1.28.2022 18:0:38.759
648, 2.11702, 0.366232, 183.156, -0.000976562, -0.000976562, -0.000976562, -0.00195312, 0.335938, -9.74805, 1.28.2022 18:0:38.767
649, 2.11702, 0.366232, 183.156, -0.00195312, 0, 0, -0.0732422, 0.362305, -9.72266, 1.28.2022 18:0:38.775
650, 2.11702, 0.366232, 183.156, -0.000976562, 0, 0, -0.0253906, 0.342773, -9.7334, 1.28.2022 18:0:38.783
651, 2.11721, 0.359242, 183.156, -0.000976562, -0.000976562, -0.00195312, -0.0361328, 0.355469, -9.76562, 1.28.2022 18:0:38.791
652, 2.11721, 0.359242, 183.156, -0.000976562, -0.000976562, -0.00195312, -0.0849609, 0.382812, -9.71484, 1.28.2022 18:0:38.799
653, 2.11721, 0.359242, 183.156, -0.000976562, -0.00195312, -0.000976562, -0.0263672, 0.327148, -9.75, 1.28.2022 18:0:38.807
654, 2.11721, 0.359242, 183.156, -0.000976562, -0.000976562, -0.000976562, -0.0654297, 0.34375, -9.68555, 1.28.2022 18:0:38.815
655, 2.11019, 0.359178, 183.163, 0, -0.000976562, -0.00195312, -0.0869141, 0.404297, -9.69727, 1.28.2022 18:0:38.823
656, 2.11019, 0.359178, 183.163, -0.000976562, -0.000976562, -0.00195312, 0.0205078, 0.365234, -9.66504, 1.28.2022 18:0:38.831
657, 2.11019, 0.359178, 183.163, -0.000976562, -0.00195312, -0.000976562, -0.0800781, 0.341797, -9.68457, 1.28.2022 18:0:38.839
658, 2.11019, 0.359178, 183.163, -0.000976562, -0.00195312, -0.000976562, -0.0517578, 0.371094, -9.69629, 1.28.2022 18:0:38.847
659, 2.11019, 0.359178, 183.163, -0.000976562, -0.00195312, 0.000976562, -0.015625, 0.344727, -9.72363, 1.28.2022 18:0:38.855
660, 2.11019, 0.359178, 183.163, -0.000976562, -0.00195312, 0.000976562, -0.112305, 0.379883, -9.75391, 1.28.2022 18:0:38.863
661, 2.11039, 0.352188, 183.163, -0.000976562, -0.000976562, -0.00195312, -0.00878906, 0.375, -9.69434, 1.28.2022 18:0:38.871
662, 2.11039, 0.352188, 183.163, -0.000976562, -0.000976562, -0.00195312, -0.0615234, 0.357422, -9.71777, 1.28.2022 18:0:38.879
663, 2.11039, 0.352188, 183.163, -0.000976562, -0.000976562, -0.00195312, -0.0654297, 0.368164, -9.67773, 1.28.2022 18:0:38.887
664, 2.11039, 0.352188, 183.163, -0.000976562, -0.000976562, -0.000976562, -0.00878906, 0.332031, -9.70312, 1.28.2022 18:0:38.895
665, 2.11039, 0.352188, 183.163, -0.00195312, -0.000976562, 0.000976562, -0.109375, 0.354492, -9.71777, 1.28.2022 18:0:38.903
666, 2.11058, 0.345197, 183.163, -0.000976562, -0.000976562, -0.000976562, -0.0556641, 0.368164, -9.69922, 1.28.2022 18:0:38.911
667, 2.11058, 0.345197, 183.163, -0.000976562, -0.000976562, -0.00195312, -0.0273438, 0.337891, -9.70703, 1.28.2022 18:0:38.919
668, 2.11058, 0.345197, 183.163, 0, -0.000976562, -0.000976562, -0.0927734, 0.385742, -9.7334, 1.28.2022 18:0:38.927
669, 2.11058, 0.345197, 183.163, 0.000976562, 0, 0, -0.03125, 0.358398, -9.75391, 1.28.2022 18:0:38.935
670, 2.11058, 0.345197, 183.163, -0.000976562, 0, 0, -0.0732422, 0.362305, -9.72754, 1.28.2022 18:0:38.943
671, 2.11058, 0.345197, 183.163, -0.00195312, 0, 0.000976562, -0.0761719, 0.378906, -9.72852, 1.28.2022 18:0:38.951
672, 2.11058, 0.345197, 183.163, -0.000976562, 0, 0, -0.0205078, 0.369141, -9.71875, 1.28.2022 18:0:38.959
673, 2.1108, 0.338078, 183.156, -0.000976562, 0, 0, -0.0996094, 0.321289, -9.7373, 1.28.2022 18:0:38.967
674, 2.1108, 0.338078, 183.156, -0.00195312, 0.000976562, 0.000976562, -0.0390625, 0.368164, -9.7041, 1.28.2022 18:0:38.975
675, 2.1108, 0.338078, 183.156, -0.000976562, 0, 0.000976562, -0.00683594, 0.355469, -9.74512, 1.28.2022 18:0:38.983
676, 2.1108, 0.338078, 183.156, -0.000976562, 0, 0, -0.118164, 0.385742, -9.7207, 1.28.2022 18:0:38.991
677, 2.11779, 0.338271, 183.156, -0.000976562, 0, 0, -0.0224609, 0.366211, -9.70215, 1.28.2022 18:0:38.999
678, 2.11779, 0.338271, 183.156, -0.000976562, 0, -0.000976562, -0.0556641, 0.373047, -9.69824, 1.28.2022 18:0:39.007
679, 2.11779, 0.338271, 183.156, -0.00195312, 0, 0, -0.0966797, 0.37793, -9.68652, 1.28.2022 18:0:39.015
680, 2.11779, 0.338271, 183.156, -0.00195312, 0, 0, -0.0322266, 0.342773, -9.71875, 1.28.2022 18:0:39.021
681, 2.11779, 0.338271, 183.156, -0.000976562, -0.000976562, 0, -0.106445, 0.359375, -9.7168, 1.28.2022 18:0:39.029
682, 2.11779, 0.338271, 183.156, -0.000976562, 0, 0, -0.0634766, 0.349609, -9.71387, 1.28.2022 18:0:39.037
683, 2.11779, 0.338271, 183.156, -0.000976562, 0, 0, -0.0351562, 0.360352, -9.74902, 1.28.2022 18:0:39.045
684, 2.11779, 0.338271, 183.156, 0.000976562, 0, 0, -0.0849609, 0.371094, -9.71973, 1.28.2022 18:0:39.053
685, 2.11779, 0.338271, 183.156, -0.000976562, 0, 0, -0.0185547, 0.371094, -9.71582, 1.28.2022 18:0:39.061
686, 2.11779, 0.338271, 183.156, -0.000976562, 0, 0, -0.0498047, 0.347656, -9.72363, 1.28.2022 18:0:39.069
687, 2.11779, 0.338271, 183.156, -0.000976562, 0, 0, -0.0703125, 0.366211, -9.69141, 1.28.2022 18:0:39.077
688, 2.11779, 0.338271, 183.156, -0.000976562, 0, 0, -0.0175781, 0.351562, -9.69238, 1.28.2022 18:0:39.085
689, 2.12477, 0.338463, 183.156, -0.00195312, 0, 0, -0.0917969, 0.344727, -9.69922, 1.28.2022 18:0:39.093
690, 2.12477, 0.338463, 183.156, -0.00195312, 0, 0, -0.0566406, 0.351562, -9.69922, 1.28.2022 18:0:39.101
691, 2.12477, 0.338463, 183.156, -0.000976562, 0, 0, -0.0302734, 0.344727, -9.71387, 1.28.2022 18:0:39.109
692, 2.12477, 0.338463, 183.156, -0.000976562, 0, 0, -0.101562, 0.399414, -9.69727, 1.28.2022 18:0:39.117
693, 2.12477, 0.338463, 183.156, 0.000976562, 0, 0, -0.0517578, 0.371094, -9.72461, 1.28.2022 18:0:39.125
694, 2.12477, 0.338463, 183.156, -0.000976562, 0.000976562, -0.000976562, -0.0517578, 0.349609, -9.70898, 1.28.2022 18:0:39.133
695, 2.12477, 0.338463, 183.156, 0.000976562, 0, -0.000976562, -0.113281, 0.354492, -9.7168, 1.28.2022 18:0:39.141
696, 2.12477, 0.338463, 183.156, 0.000976562, 0, -0.000976562, -0.0117188, 0.321289, -9.72949, 1.28.2022 18:0:39.149
697, 2.12477, 0.338463, 183.156, 0.000976562, 0, -0.000976562, -0.0888672, 0.363281, -9.68652, 1.28.2022 18:0:39.157
698, 2.11779, 0.338271, 183.156, -0.000976562, 0, 0, -0.0546875, 0.350586, -9.75098, 1.28.2022 18:0:39.165
699, 2.11779, 0.338271, 183.156, -0.000976562, 0, 0, -0.0078125, 0.338867, -9.66699, 1.28.2022 18:0:39.173
700, 2.11779, 0.338271, 183.156, 0.000976562, 0.000976562, -0.000976562, -0.0947266, 0.371094, -9.70801, 1.28.2022 18:0:39.181
701, 2.11779, 0.338271, 183.156, 0, -0.000976562, 0.000976562, -0.0322266, 0.359375, -9.71094, 1.28.2022 18:0:39.189
702, 2.11779, 0.338271, 183.156, -0.00195312, -0.000976562, 0.000976562, -0.0615234, 0.337891, -9.72559, 1.28.2022 18:0:39.197
703, 2.11779, 0.338271, 183.156, 0, 0.000976562, 0, -0.0878906, 0.385742, -9.71875, 1.28.2022 18:0:39.205
704, 2.11779, 0.338271, 183.156, 0.000976562, 0.000976562, 0, 0.00390625, 0.355469, -9.68164, 1.28.2022 18:0:39.213
705, 2.11779, 0.338271, 183.156, 0.00195312, -0.00195312, 0.000976562, -0.0849609, 0.339844, -9.70605, 1.28.2022 18:0:39.221
706, 2.11779, 0.338271, 183.156, -0.000976562, -0.00195312, 0, -0.0634766, 0.349609, -9.72266, 1.28.2022 18:0:39.229
707, 2.1108, 0.338078, 183.156, 0.000976562, -0.00195312, 0, -0.0351562, 0.321289, -9.72168, 1.28.2022 18:0:39.237
708, 2.1108, 0.338078, 183.156, -0.00195312, -0.00195312, -0.00195312, -0.139648, 0.375977, -9.70215, 1.28.2022 18:0:39.245
709, 2.1108, 0.338078, 183.156, -0.000976562, -0.00195312, 0, -0.0253906, 0.369141, -9.72559, 1.28.2022 18:0:39.253
710, 2.11061, 0.345068, 183.156, 0, -0.000976562, 0, -0.0488281, 0.339844, -9.70898, 1.28.2022 18:0:39.261
711, 2.11061, 0.345068, 183.156, 0, 0.000976562, 0, -0.0634766, 0.369141, -9.72949, 1.28.2022 18:0:39.269
712, 2.11061, 0.345068, 183.156, 0.000976562, -0.000976562, -0.00195312, -0.0214844, 0.376953, -9.74219, 1.28.2022 18:0:39.277
713, 2.11061, 0.345068, 183.156, -0.00195312, -0.000976562, 0, -0.078125, 0.376953, -9.74316, 1.28.2022 18:0:39.285
714, 2.11061, 0.345068, 183.156, -0.000976562, -0.000976562, -0.00195312, -0.0849609, 0.348633, -9.68262, 1.28.2022 18:0:39.293
715, 2.11061, 0.345068, 183.156, -0.000976562, 0.000976562, -0.000976562, -0.0175781, 0.320312, -9.69141, 1.28.2022 18:0:39.301
716, 2.11061, 0.345068, 183.156, 0, -0.000976562, 0, -0.107422, 0.370117, -9.75, 1.28.2022 18:0:39.309
717, 2.11061, 0.345068, 183.156, 0.000976562, -0.000976562, 0.000976562, -0.0537109, 0.365234, -9.67969, 1.28.2022 18:0:39.317
718, 2.11061, 0.345068, 183.156, 0.000976562, 0.000976562, -0.00195312, -0.0585938, 0.353516, -9.69238, 1.28.2022 18:0:39.325
719, 2.10362, 0.344875, 183.156, 0.000976562, 0.000976562, -0.00195312, -0.101562, 0.359375, -9.7168, 1.28.2022 18:0:39.333
720, 2.10362, 0.344875, 183.156, 0.000976562, 0.000976562, -0.00195312, -0.0136719, 0.331055, -9.73828, 1.28.2022 18:0:39.341
721, 2.10362, 0.344875, 183.156, 0.000976562, 0.000976562, 0, -0.0966797, 0.380859, -9.71875, 1.28.2022 18:0:39.349
722, 2.10362, 0.344875, 183.156, 0.000976562, -0.000976562, 0, -0.0683594, 0.380859, -9.72949, 1.28.2022 18:0:39.357
723, 2.10362, 0.344875, 183.156, 0.000976562, -0.000976562, 0, -0.0234375, 0.342773, -9.7168, 1.28.2022 18:0:39.365
724, 2.10362, 0.344875, 183.156, 0, -0.000976562, 0, -0.0869141, 0.396484, -9.67871, 1.28.2022 18:0:39.373
725, 2.10362, 0.344875, 183.156, 0, -0.000976562, 0, -0.0107422, 0.349609, -9.70215, 1.28.2022 18:0:39.381
726, 2.10362, 0.344875, 183.156, 0.000976562, -0.000976562, 0, -0.0419922, 0.362305, -9.73242, 1.28.2022 18:0:39.389
727, 2.10362, 0.344875, 183.156, -0.000976562, -0.00195312, 0, -0.0947266, 0.347656, -9.71777, 1.28.2022 18:0:39.397
728, 2.10362, 0.344875, 183.156, 0.000976562, -0.000976562, 0, -0.0146484, 0.333984, -9.76855, 1.28.2022 18:0:39.405
729, 2.10362, 0.344875, 183.156, 0, -0.000976562, 0, -0.0830078, 0.347656, -9.71094, 1.28.2022 18:0:39.413
730, 2.10362, 0.344875, 183.156, 0, -0.000976562, 0, -0.0732422, 0.374023, -9.71777, 1.28.2022 18:0:39.421
731, 2.10362, 0.344875, 183.156, -0.00195312, -0.000976562, 0, -0.0234375, 0.311523, -9.72656, 1.28.2022 18:0:39.429
732, 2.10362, 0.344875, 183.156, 0, -0.000976562, 0.000976562, -0.111328, 0.382812, -9.69531, 1.28.2022 18:0:39.437
733, 2.10362, 0.344875, 183.156, -0.00195312, -0.000976562, 0, -0.0605469, 0.351562, -9.68945, 1.28.2022 18:0:39.445
734, 2.10362, 0.344875, 183.156, -0.00195312, -0.000976562, 0, -0.0615234, 0.366211, -9.71094, 1.28.2022 18:0:39.453
735, 2.10362, 0.344875, 183.156, -0.000976562, -0.000976562, 0, -0.106445, 0.393555, -9.72363, 1.28.2022 18:0:39.461
736, 2.10362, 0.344875, 183.156, -0.000976562, -0.000976562, 0, -0.0283203, 0.347656, -9.73535, 1.28.2022 18:0:39.469
737, 2.10362, 0.344875, 183.156, -0.000976562, 0.000976562, 0, -0.078125, 0.364258, -9.72656, 1.28.2022 18:0:39.477
738, 2.10343, 0.351865, 183.156, 0, 0.000976562, 0, -0.0683594, 0.40918, -9.70703, 1.28.2022 18:0:39.485
739, 2.10343, 0.351865, 183.156, -0.000976562, -0.000976562, 0, -0.0332031, 0.34668, -9.77051, 1.28.2022 18:0:39.493
740, 2.11042, 0.352058, 183.156, 0, -0.000976562, 0, -0.104492, 0.371094, -9.71484, 1.28.2022 18:0:39.501
741, 2.11042, 0.352058, 183.156, -0.000976562, -0.000976562, -0.000976562, -0.0644531, 0.347656, -9.73926, 1.28.2022 18:0:39.509
742, 2.11042, 0.352058, 183.156, -0.000976562, -0.000976562, 0, -0.0585938, 0.348633, -9.6875, 1.28.2022 18:0:39.517
743, 2.11042, 0.352058, 183.156, -0.000976562, 0.000976562, 0, -0.0996094, 0.388672, -9.7334, 1.28.2022 18:0:39.525
744, 2.11042, 0.352058, 183.156, -0.000976562, -0.000976562, 0, -0.0283203, 0.333008, -9.71484, 1.28.2022 18:0:39.533
745, 2.11042, 0.352058, 183.156, -0.000976562, -0.000976562, 0, -0.0615234, 0.34668, -9.70898, 1.28.2022 18:0:39.541
746, 2.11042, 0.352058, 183.156, 0, -0.000976562, 0, -0.0634766, 0.34668, -9.69727, 1.28.2022 18:0:39.549
747, 2.11022, 0.359049, 183.156, -0.000976562, -0.00195312, 0, -0.015625, 0.358398, -9.69531, 1.28.2022 18:0:39.557
748, 2.11022, 0.359049, 183.156, -0.000976562, -0.00195312, 0, -0.130859, 0.37207, -9.73047, 1.28.2022 18:0:39.565
749, 2.11022, 0.359049, 183.156, -0.000976562, 0.000976562, 0, -0.0634766, 0.370117, -9.68945, 1.28.2022 18:0:39.573
750, 2.11022, 0.359049, 183.156, 0, 0.000976562, 0, -0.0634766, 0.361328, -9.69629, 1.28.2022 18:0:39.581
751, 2.11022, 0.359049, 183.156, -0.000976562, -0.000976562, 0, -0.113281, 0.356445, -9.69824, 1.28.2022 18:0:39.589
752, 2.11721, 0.359242, 183.156, -0.000976562, -0.000976562, 0, -0.0136719, 0.357422, -9.72363, 1.28.2022 18:0:39.597
753, 2.11721, 0.359242, 183.156, -0.000976562, -0.000976562, 0, -0.0732422, 0.34668, -9.70605, 1.28.2022 18:0:39.605
754, 2.11702, 0.366232, 183.156, -0.000976562, 0.000976562, 0, -0.0878906, 0.364258, -9.71777, 1.28.2022 18:0:39.613
755, 2.11702, 0.366232, 183.156, -0.000976562, 0.000976562, 0, 0.0078125, 0.374023, -9.72363, 1.28.2022 18:0:39.621
756, 2.11702, 0.366232, 183.156, 0, 0.000976562, 0, -0.0976562, 0.348633, -9.75977, 1.28.2022 18:0:39.629
757, 2.11702, 0.366232, 183.156, 0, 0.000976562, 0, -0.0419922, 0.356445, -9.71875, 1.28.2022 18:0:39.637
758, 2.11702, 0.366232, 183.156, 0, -0.000976562, 0, -0.0732422, 0.355469, -9.74414, 1.28.2022 18:0:39.645
759, 2.11702, 0.366232, 183.156, -0.000976562, -0.00195312, 0, -0.101562, 0.362305, -9.71973, 1.28.2022 18:0:39.653
760, 2.11702, 0.366232, 183.156, -0.00195312, -0.000976562, 0, -0.00390625, 0.351562, -9.68555, 1.28.2022 18:0:39.661
761, 2.11702, 0.366232, 183.156, -0.000976562, -0.000976562, 0, -0.0693359, 0.348633, -9.76562, 1.28.2022 18:0:39.669
762, 2.11702, 0.366232, 183.156, -0.000976562, -0.000976562, 0, -0.0537109, 0.374023, -9.71973, 1.28.2022 18:0:39.677
763, 2.11702, 0.366232, 183.156, -0.000976562, -0.000976562, 0, -0.0400391, 0.359375, -9.7207, 1.28.2022 18:0:39.685
764, 2.11702, 0.366232, 183.156, -0.000976562, -0.000976562, -0.000976562, -0.101562, 0.344727, -9.72266, 1.28.2022 18:0:39.693
765, 2.11702, 0.366232, 183.156, -0.000976562, 0, -0.000976562, -0.0595703, 0.388672, -9.74121, 1.28.2022 18:0:39.701
766, 2.11702, 0.366232, 183.156, -0.000976562, -0.000976562, 0, -0.0498047, 0.350586, -9.74707, 1.28.2022 18:0:39.709
767, 2.11702, 0.366232, 183.156, -0.000976562, 0, 0, -0.104492, 0.395508, -9.73047, 1.28.2022 18:0:39.717
768, 2.11702, 0.366232, 183.156, -0.000976562, -0.000976562, 0, -0.00195312, 0.359375, -9.7373, 1.28.2022 18:0:39.725
769, 2.11702, 0.366232, 183.156, -0.000976562, -0.000976562, -0.000976562, -0.0664062, 0.364258, -9.71777, 1.28.2022 18:0:39.733
770, 2.11702, 0.366232, 183.156, 0, -0.00195312, 0, -0.0820312, 0.375, -9.68848, 1.28.2022 18:0:39.741
771, 2.11702, 0.366232, 183.156, 0, -0.000976562, 0, 0.000976562, 0.352539, -9.72168, 1.28.2022 18:0:39.749
772, 2.11702, 0.366232, 183.156, 0, -0.00195312, 0.000976562, -0.0869141, 0.344727, -9.69922, 1.28.2022 18:0:39.757
773, 2.11702, 0.366232, 183.156, -0.000976562, -0.00292969, 0, -0.0273438, 0.356445, -9.69043, 1.28.2022 18:0:39.765
774, 2.11702, 0.366232, 183.156, -0.00195312, -0.000976562, 0, -0.0390625, 0.371094, -9.69922, 1.28.2022 18:0:39.773
775, 2.11702, 0.366232, 183.156, 0, -0.000976562, -0.00195312, -0.0888672, 0.389648, -9.69043, 1.28.2022 18:0:39.781
776, 2.11702, 0.366232, 183.156, 0, -0.000976562, 0.000976562, -0.0214844, 0.356445, -9.77051, 1.28.2022 18:0:39.789
777, 2.11702, 0.366232, 183.156, -0.000976562, 0, 0, -0.0615234, 0.351562, -9.71094, 1.28.2022 18:0:39.797
778, 2.1242, 0.359435, 183.156, 0, 0, 0, -0.0771484, 0.386719, -9.6582, 1.28.2022 18:0:39.805
779, 2.1242, 0.359435, 183.156, -0.000976562, 0, 0, -0.0234375, 0.347656, -9.72168, 1.28.2022 18:0:39.813
780, 2.1242, 0.359435, 183.156, 0, 0, -0.000976562, -0.125, 0.374023, -9.70898, 1.28.2022 18:0:39.821
781, 2.1242, 0.359435, 183.156, 0, -0.000976562, 0, -0.0585938, 0.351562, -9.70117, 1.28.2022 18:0:39.829
782, 2.1242, 0.359435, 183.156, 0, -0.00195312, 0.000976562, -0.0371094, 0.352539, -9.72559, 1.28.2022 18:0:39.837
783, 2.1242, 0.359435, 183.156, -0.000976562, -0.000976562, 0.000976562, -0.113281, 0.361328, -9.69141, 1.28.2022 18:0:39.845
784, 2.1242, 0.359435, 183.156, -0.00195312, -0.000976562, -0.000976562, -0.0136719, 0.332031, -9.69824, 1.28.2022 18:0:39.853
785, 2.1242, 0.359435, 183.156, -0.000976562, -0.000976562, 0, -0.0458984, 0.384766, -9.68652, 1.28.2022 18:0:39.861
786, 2.1242, 0.359435, 183.156, -0.000976562, -0.000976562, 0, -0.0761719, 0.360352, -9.74805, 1.28.2022 18:0:39.869
787, 2.1242, 0.359435, 183.156, 0, -0.000976562, 0, -0.0283203, 0.348633, -9.74707, 1.28.2022 18:0:39.877
788, 2.1242, 0.359435, 183.156, -0.000976562, -0.00195312, 0, -0.0634766, 0.34668, -9.68945, 1.28.2022 18:0:39.885
789, 2.1242, 0.359435, 183.156, 0, -0.000976562, 0, -0.0546875, 0.380859, -9.72949, 1.28.2022 18:0:39.893
790, 2.12439, 0.352444, 183.156, -0.000976562, -0.00195312, 0, -0.0332031, 0.352539, -9.72754, 1.28.2022 18:0:39.901
791, 2.12439, 0.352444, 183.156, -0.000976562, 0, 0, -0.113281, 0.391602, -9.67871, 1.28.2022 18:0:39.909
792, 2.12439, 0.352444, 183.156, -0.000976562, -0.000976562, 0, -0.0332031, 0.378906, -9.73242, 1.28.2022 18:0:39.917
793, 2.12439, 0.352444, 183.156, -0.000976562, -0.000976562, 0, -0.0566406, 0.359375, -9.71094, 1.28.2022 18:0:39.925
794, 2.12439, 0.352444, 183.156, -0.000976562, -0.000976562, 0.000976562, -0.0800781, 0.382812, -9.71484, 1.28.2022 18:0:39.933
795, 2.12439, 0.352444, 183.156, -0.00195312, -0.000976562, 0, -0.0136719, 0.34082, -9.74023, 1.28.2022 18:0:39.941
796, 2.13137, 0.352637, 183.156, -0.00195312, 0, 0, -0.0878906, 0.357422, -9.72266, 1.28.2022 18:0:39.949
797, 2.13137, 0.352637, 183.156, -0.000976562, 0.000976562, 0, -0.0703125, 0.37793, -9.70996, 1.28.2022 18:0:39.957
798, 2.13137, 0.352637, 183.156, -0.000976562, -0.000976562, -0.000976562, -0.0615234, 0.354492, -9.7207, 1.28.2022 18:0:39.965
799, 2.13137, 0.352637, 183.156, -0.000976562, 0.000976562, -0.00195312, -0.109375, 0.388672, -9.73535, 1.28.2022 18:0:39.973
800, 2.13137, 0.352637, 183.156, 0, -0.000976562, -0.00195312, -0.0566406, 0.375977, -9.71094, 1.28.2022 18:0:39.981
801, 2.13137, 0.352637, 183.156, 0, -0.000976562, -0.00195312, -0.0800781, 0.356445, -9.69141, 1.28.2022 18:0:39.989
802, 2.13137, 0.352637, 183.156, -0.000976562, -0.000976562, -0.00195312, -0.0566406, 0.347656, -9.7373, 1.28.2022 18:0:39.995
803, 2.13137, 0.352637, 183.156, -0.000976562, -0.000976562, -0.000976562, -0.0166016, 0.330078, -9.77148, 1.28.2022 18:0:40.003
804, 2.13137, 0.352637, 183.156, 0, 0.000976562, -0.00195312, -0.113281, 0.337891, -9.70801, 1.28.2022 18:0:40.011
805, 2.13137, 0.352637, 183.156, -0.000976562, 0.000976562, -0.00195312, -0.0371094, 0.37793, -9.6875, 1.28.2022 18:0:40.019
806, 2.13137, 0.352637, 183.156, 0, -0.00195312, -0.00195312, -0.0263672, 0.331055, -9.73828, 1.28.2022 18:0:40.027
807, 2.13134, 0.352768, 183.163, 0, -0.000976562, -0.00195312, -0.113281, 0.371094, -9.7002, 1.28.2022 18:0:40.035
808, 2.13134, 0.352768, 183.163, 0, -0.00195312, -0.00195312, -0.0185547, 0.352539, -9.7373, 1.28.2022 18:0:40.043
809, 2.13134, 0.352768, 183.163, 0, -0.000976562, -0.000976562, -0.0537109, 0.336914, -9.69727, 1.28.2022 18:0:40.051
810, 2.13134, 0.352768, 183.163, -0.000976562, -0.00195312, 0.000976562, -0.078125, 0.362305, -9.73633, 1.28.2022 18:0:40.059
811, 2.13134, 0.352768, 183.163, -0.000976562, -0.000976562, -0.000976562, -0.0234375, 0.333984, -9.75, 1.28.2022 18:0:40.067
812, 2.13134, 0.352768, 183.163, -0.000976562, -0.00195312, -0.000976562, -0.106445, 0.378906, -9.72363, 1.28.2022 18:0:40.075
813, 2.12416, 0.359565, 183.163, 0, -0.000976562, -0.000976562, -0.046875, 0.351562, -9.70215, 1.28.2022 18:0:40.083
814, 2.12416, 0.359565, 183.163, -0.000976562, 0.000976562, 0, -0.0419922, 0.34375, -9.69043, 1.28.2022 18:0:40.091
815, 2.12416, 0.359565, 183.163, -0.000976562, -0.000976562, -0.000976562, -0.0898438, 0.392578, -9.72168, 1.28.2022 18:0:40.099
816, 2.12436, 0.352574, 183.163, -0.000976562, 0.000976562, -0.00195312, -0.0253906, 0.34375, -9.69336, 1.28.2022 18:0:40.107
817, 2.12436, 0.352574, 183.163, 0, -0.000976562, -0.000976562, -0.0634766, 0.354492, -9.72461, 1.28.2022 18:0:40.115
818, 2.12436, 0.352574, 183.163, -0.000976562, 0.000976562, 0, -0.0966797, 0.37793, -9.68359, 1.28.2022 18:0:40.123
819, 2.12436, 0.352574, 183.163, -0.000976562, 0.000976562, -0.00195312, -0.00683594, 0.339844, -9.7168, 1.28.2022 18:0:40.131
820, 2.12436, 0.352574, 183.163, 0, 0.000976562, -0.000976562, -0.09375, 0.356445, -9.68945, 1.28.2022 18:0:40.139
821, 2.12436, 0.352574, 183.163, -0.00195312, -0.000976562, -0.000976562, -0.0488281, 0.385742, -9.70996, 1.28.2022 18:0:40.147
822, 2.12436, 0.352574, 183.163, -0.000976562, 0.000976562, 0.000976562, -0.0273438, 0.353516, -9.68066, 1.28.2022 18:0:40.155
823, 2.12436, 0.352574, 183.163, -0.000976562, -0.000976562, -0.000976562, -0.078125, 0.366211, -9.71777, 1.28.2022 18:0:40.163
824, 2.11737, 0.352381, 183.163, -0.000976562, -0.000976562, -0.000976562, -0.0107422, 0.330078, -9.70996, 1.28.2022 18:0:40.171
825, 2.11737, 0.352381, 183.163, -0.000976562, -0.000976562, -0.000976562, -0.0683594, 0.339844, -9.7041, 1.28.2022 18:0:40.179
826, 2.11737, 0.352381, 183.163, 0, 0.000976562, -0.000976562, -0.0849609, 0.382812, -9.69531, 1.28.2022 18:0:40.187
827, 2.11737, 0.352381, 183.163, -0.000976562, -0.000976562, -0.000976562, -0.0224609, 0.375, -9.6709, 1.28.2022 18:0:40.195
828, 2.11737, 0.352381, 183.163, 0, -0.000976562, -0.00195312, -0.0898438, 0.358398, -9.69824, 1.28.2022 18:0:40.203
829, 2.11737, 0.352381, 183.163, 0, -0.000976562, 0, -0.0683594, 0.341797, -9.69434, 1.28.2022 18:0:40.211
830, 2.11737, 0.352381, 183.163, -0.000976562, -0.000976562, -0.000976562, -0.0419922, 0.333008, -9.72852, 1.28.2022 18:0:40.219
831, 2.11756, 0.345391, 183.163, -0.00195312, -0.000976562, 0, -0.104492, 0.388672, -9.72852, 1.28.2022 18:0:40.227
832, 2.11756, 0.345391, 183.163, 0, -0.000976562, 0, -0.000976562, 0.358398, -9.69727, 1.28.2022 18:0:40.235
833, 2.11756, 0.345391, 183.163, -0.000976562, -0.000976562, 0, -0.046875, 0.34668, -9.70703, 1.28.2022 18:0:40.243
834, 2.11756, 0.345391, 183.163, -0.000976562, -0.000976562, 0, -0.0869141, 0.382812, -9.71484, 1.28.2022 18:0:40.251
835, 2.11756, 0.345391, 183.163, -0.000976562, -0.000976562, 0, -0.00195312, 0.350586, -9.73828, 1.28.2022 18:0:40.259
836, 2.11756, 0.345391, 183.163, -0.000976562, 0, 0, -0.0878906, 0.347656, -9.71777, 1.28.2022 18:0:40.267
837, 2.11756, 0.345391, 183.163, -0.000976562, 0, 0, -0.0595703, 0.376953, -9.73828, 1.28.2022 18:0:40.275
838, 2.11756, 0.345391, 183.163, -0.000976562, -0.000976562, 0, -0.0419922, 0.351562, -9.6875, 1.28.2022 18:0:40.283
839, 2.11756, 0.345391, 183.163, -0.00195312, -0.000976562, 0, -0.121094, 0.395508, -9.70898, 1.28.2022 18:0:40.291
840, 2.11756, 0.345391, 183.163, -0.00195312, -0.000976562, 0, -0.0302734, 0.352539, -9.74219, 1.28.2022 18:0:40.299
841, 2.11756, 0.345391, 183.163, 0, -0.000976562, 0, -0.0371094, 0.359375, -9.70605, 1.28.2022 18:0:40.307
842, 2.11756, 0.345391, 183.163, 0, 0, 0, -0.0986328, 0.375977, -9.69824, 1.28.2022 18:0:40.315
843, 2.11756, 0.345391, 183.163, 0.000976562, 0, 0, -0.00878906, 0.318359, -9.71289, 1.28.2022 18:0:40.323
844, 2.11756, 0.345391, 183.163, 0.000976562, -0.000976562, 0, -0.0966797, 0.356445, -9.70117, 1.28.2022 18:0:40.331
845, 2.11756, 0.345391, 183.163, 0, -0.000976562, -0.000976562, -0.0800781, 0.361328, -9.69434, 1.28.2022 18:0:40.339
846, 2.11756, 0.345391, 183.163, -0.000976562, -0.000976562, 0, -0.0234375, 0.328125, -9.71484, 1.28.2022 18:0:40.347
847, 2.11756, 0.345391, 183.163, 0, -0.000976562, 0, -0.111328, 0.375977, -9.70703, 1.28.2022 18:0:40.355
848, 2.1176, 0.345261, 183.156, -0.000976562, -0.000976562, 0, -0.0253906, 0.335938, -9.72852, 1.28.2022 18:0:40.363
849, 2.1176, 0.345261, 183.156, -0.000976562, -0.00195312, 0, -0.0615234, 0.349609, -9.70605, 1.28.2022 18:0:40.371
850, 2.1176, 0.345261, 183.156, -0.000976562, -0.000976562, 0, -0.0888672, 0.363281, -9.68652, 1.28.2022 18:0:40.379
851, 2.1176, 0.345261, 183.156, -0.000976562, -0.000976562, 0.000976562, 0, 0.367188, -9.74512, 1.28.2022 18:0:40.387
852, 2.1176, 0.345261, 183.156, 0, -0.000976562, -0.000976562, -0.0595703, 0.359375, -9.73242, 1.28.2022 18:0:40.395
853, 2.1176, 0.345261, 183.156, 0, -0.000976562, 0, -0.0595703, 0.357422, -9.73926, 1.28.2022 18:0:40.403
854, 2.1176, 0.345261, 183.156, -0.000976562, -0.000976562, -0.000976562, -0.046875, 0.344727, -9.7207, 1.28.2022 18:0:40.411
855, 2.11061, 0.345068, 183.156, -0.000976562, -0.000976562, 0.000976562, -0.0947266, 0.37207, -9.73633, 1.28.2022 18:0:40.419
856, 2.11061, 0.345068, 183.156, -0.00195312, -0.000976562, 0, -0.0585938, 0.349609, -9.7041, 1.28.2022 18:0:40.427
857, 2.11061, 0.345068, 183.156, -0.000976562, -0.000976562, 0, -0.0693359, 0.367188, -9.74609, 1.28.2022 18:0:40.435
858, 2.11061, 0.345068, 183.156, -0.000976562, -0.000976562, -0.000976562, -0.0869141, 0.371094, -9.70312, 1.28.2022 18:0:40.443
859, 2.11061, 0.345068, 183.156, 0, -0.000976562, 0, -0.00390625, 0.349609, -9.7334, 1.28.2022 18:0:40.451
860, 2.11061, 0.345068, 183.156, -0.000976562, -0.00195312, 0, -0.100586, 0.37793, -9.77832, 1.28.2022 18:0:40.459
861, 2.11061, 0.345068, 183.156, -0.000976562, 0, 0.000976562, -0.0800781, 0.369141, -9.70996, 1.28.2022 18:0:40.467
862, 2.11061, 0.345068, 183.156, 0, -0.000976562, 0.000976562, -0.046875, 0.353516, -9.69922, 1.28.2022 18:0:40.475
863, 2.11061, 0.345068, 183.156, -0.000976562, -0.000976562, 0, -0.0966797, 0.368164, -9.69824, 1.28.2022 18:0:40.483
864, 2.11042, 0.352058, 183.156, 0, -0.00195312, 0, -0.0400391, 0.375977, -9.71289, 1.28.2022 18:0:40.491
865, 2.11042, 0.352058, 183.156, -0.000976562, -0.00195312, 0, -0.0585938, 0.34668, -9.69238, 1.28.2022 18:0:40.499
866, 2.11042, 0.352058, 183.156, 0, -0.000976562, 0, -0.115234, 0.376953, -9.67676, 1.28.2022 18:0:40.507
867, 2.1174, 0.352251, 183.156, -0.000976562, -0.000976562, 0, -0.00878906, 0.37793, -9.69727, 1.28.2022 18:0:40.515
868, 2.1174, 0.352251, 183.156, 0, -0.000976562, 0, -0.0751953, 0.361328, -9.71484, 1.28.2022 18:0:40.523
869, 2.1174, 0.352251, 183.156, 0, -0.00195312, 0, -0.0732422, 0.37207, -9.73438, 1.28.2022 18:0:40.531
870, 2.1174, 0.352251, 183.156, -0.000976562, 0, 0, -0.0400391, 0.350586, -9.73242, 1.28.2022 18:0:40.539
871, 2.11721, 0.359242, 183.156, 0, 0, 0, -0.101562, 0.371094, -9.71973, 1.28.2022 18:0:40.547
872, 2.11721, 0.359242, 183.156, -0.000976562, -0.000976562, -0.00195312, -0.0517578, 0.37793, -9.70801, 1.28.2022 18:0:40.555
873, 2.11721, 0.359242, 183.156, -0.000976562, -0.000976562, 0, -0.0371094, 0.349609, -9.71582, 1.28.2022 18:0:40.563
874, 2.11721, 0.359242, 183.156, -0.000976562, -0.00195312, 0, -0.0996094, 0.395508, -9.71191, 1.28.2022 18:0:40.571
875, 2.1242, 0.359435, 183.156, -0.000976562, -0.000976562, 0, -0.00683594, 0.345703, -9.7334, 1.28.2022 18:0:40.579
876, 2.1242, 0.359435, 183.156, -0.000976562, -0.000976562, 0.000976562, -0.078125, 0.360352, -9.75586, 1.28.2022 18:0:40.587
877, 2.1242, 0.359435, 183.156, -0.000976562, -0.000976562, 0, -0.046875, 0.385742, -9.70801, 1.28.2022 18:0:40.595
878, 2.1242, 0.359435, 183.156, -0.000976562, -0.00195312, 0.000976562, 0.00488281, 0.357422, -9.74219, 1.28.2022 18:0:40.603
879, 2.1242, 0.359435, 183.156, -0.000976562, -0.000976562, 0, -0.0771484, 0.389648, -9.69336, 1.28.2022 18:0:40.611
880, 2.1242, 0.359435, 183.156, -0.000976562, -0.000976562, 0.000976562, -0.0166016, 0.367188, -9.73047, 1.28.2022 18:0:40.619
881, 2.13118, 0.359628, 183.156, -0.000976562, -0.000976562, 0.000976562, -0.0566406, 0.349609, -9.72266, 1.28.2022 18:0:40.627
882, 2.13118, 0.359628, 183.156, -0.000976562, 0, 0, -0.111328, 0.37793, -9.70508, 1.28.2022 18:0:40.635
883, 2.13118, 0.359628, 183.156, -0.000976562, 0.000976562, -0.000976562, -0.0283203, 0.324219, -9.74512, 1.28.2022 18:0:40.643
884, 2.13137, 0.352637, 183.156, -0.000976562, -0.000976562, 0, -0.115234, 0.353516, -9.68652, 1.28.2022 18:0:40.651
885, 2.13137, 0.352637, 183.156, 0, -0.000976562, 0, -0.078125, 0.371094, -9.72461, 1.28.2022 18:0:40.659
886, 2.13137, 0.352637, 183.156, -0.000976562, -0.000976562, 0, -0.0107422, 0.368164, -9.69727, 1.28.2022 18:0:40.667
887, 2.13137, 0.352637, 183.156, -0.000976562, -0.000976562, 0, -0.0878906, 0.361328, -9.71484, 1.28.2022 18:0:40.675
888, 2.13137, 0.352637, 183.156, -0.000976562, -0.00195312, 0, -0.0400391, 0.34375, -9.74219, 1.28.2022 18:0:40.683
889, 2.13137, 0.352637, 183.156, 0, -0.000976562, 0, -0.0400391, 0.364258, -9.72559, 1.28.2022 18:0:40.691
890, 2.13137, 0.352637, 183.156, 0, -0.00195312, 0, -0.0898438, 0.371094, -9.70801, 1.28.2022 18:0:40.699
891, 2.13137, 0.352637, 183.156, -0.000976562, -0.000976562, 0, -0.00390625, 0.351562, -9.70215, 1.28.2022 18:0:40.707
892, 2.13137, 0.352637, 183.156, -0.000976562, -0.000976562, -0.00195312, -0.0830078, 0.352539, -9.72949, 1.28.2022 18:0:40.715
893, 2.13836, 0.35283, 183.156, -0.000976562, 0, -0.000976562, -0.0537109, 0.379883, -9.69141, 1.28.2022 18:0:40.723
894, 2.13836, 0.35283, 183.156, -0.000976562, 0, -0.000976562, -0.0185547, 0.326172, -9.73828, 1.28.2022 18:0:40.731
895, 2.13836, 0.35283, 183.156, -0.000976562, -0.000976562, -0.00195312, -0.0947266, 0.376953, -9.73828, 1.28.2022 18:0:40.739
896, 2.13137, 0.352637, 183.156, 0, 0.000976562, -0.000976562, -0.0449219, 0.364258, -9.72559, 1.28.2022 18:0:40.747
897, 2.13137, 0.352637, 183.156, 0, 0.000976562, -0.000976562, -0.0273438, 0.356445, -9.69727, 1.28.2022 18:0:40.755
898, 2.13137, 0.352637, 183.156, 0, 0, -0.000976562, -0.09375, 0.34375, -9.68262, 1.28.2022 18:0:40.763
899, 2.13157, 0.345647, 183.156, -0.000976562, 0.000976562, 0.000976562, -0.00878906, 0.351562, -9.69531, 1.28.2022 18:0:40.771
900, 2.13157, 0.345647, 183.156, -0.000976562, 0.000976562, 0.00195312, -0.0986328, 0.348633, -9.6748, 1.28.2022 18:0:40.779
901, 2.13157, 0.345647, 183.156, 0, 0, 0.000976562, -0.09375, 0.363281, -9.68652, 1.28.2022 18:0:40.787
902, 2.13157, 0.345647, 183.156, -0.000976562, 0.000976562, -0.00195312, -0.0302734, 0.34082, -9.73047, 1.28.2022 18:0:40.795
903, 2.13157, 0.345647, 183.156, -0.000976562, 0, -0.000976562, -0.109375, 0.392578, -9.7207, 1.28.2022 18:0:40.803
904, 2.13157, 0.345647, 183.156, -0.000976562, -0.000976562, -0.00195312, -0.0400391, 0.374023, -9.73633, 1.28.2022 18:0:40.811
905, 2.13157, 0.345647, 183.156, 0, -0.000976562, -0.00195312, -0.0234375, 0.34668, -9.71191, 1.28.2022 18:0:40.819
906, 2.13157, 0.345647, 183.156, -0.000976562, 0, -0.000976562, -0.0771484, 0.373047, -9.68848, 1.28.2022 18:0:40.827
907, 2.13157, 0.345647, 183.156, -0.00195312, 0, 0.000976562, -0.00683594, 0.34375, -9.76855, 1.28.2022 18:0:40.835
908, 2.13157, 0.345647, 183.156, -0.00195312, -0.000976562, -0.000976562, -0.0488281, 0.371094, -9.71777, 1.28.2022 18:0:40.843
909, 2.13157, 0.345647, 183.156, -0.00195312, -0.000976562, -0.00195312, -0.0732422, 0.360352, -9.74121, 1.28.2022 18:0:40.851
910, 2.13157, 0.345647, 183.156, -0.000976562, 0, -0.000976562, -0.0488281, 0.334961, -9.7002, 1.28.2022 18:0:40.859
911, 2.13157, 0.345647, 183.156, -0.000976562, 0, -0.00195312, -0.0800781, 0.359375, -9.70605, 1.28.2022 18:0:40.867
912, 2.13157, 0.345647, 183.156, -0.000976562, 0, -0.00195312, -0.0185547, 0.375977, -9.72266, 1.28.2022 18:0:40.875
913, 2.13157, 0.345647, 183.156, -0.000976562, 0, -0.000976562, -0.0566406, 0.374023, -9.73145, 1.28.2022 18:0:40.883
914, 2.13176, 0.338656, 183.156, -0.000976562, -0.000976562, -0.00195312, -0.0927734, 0.357422, -9.72461, 1.28.2022 18:0:40.891
915, 2.13176, 0.338656, 183.156, -0.000976562, 0, -0.000976562, -0.0117188, 0.34082, -9.73535, 1.28.2022 18:0:40.899
916, 2.13176, 0.338656, 183.156, -0.000976562, 0, -0.000976562, -0.0869141, 0.344727, -9.70801, 1.28.2022 18:0:40.907
917, 2.13176, 0.338656, 183.156, -0.000976562, 0, -0.00195312, -0.103516, 0.379883, -9.69531, 1.28.2022 18:0:40.915
918, 2.13176, 0.338656, 183.156, -0.00195312, 0, -0.000976562, -0.0224609, 0.358398, -9.7041, 1.28.2022 18:0:40.923
919, 2.13176, 0.338656, 183.156, -0.000976562, -0.000976562, -0.000976562, -0.0927734, 0.37207, -9.73145, 1.28.2022 18:0:40.931
920, 2.13176, 0.338656, 183.156, -0.000976562, 0, -0.000976562, -0.0371094, 0.370117, -9.68262, 1.28.2022 18:0:40.939
921, 2.13176, 0.338656, 183.156, -0.00195312, 0, -0.000976562, -0.0283203, 0.380859, -9.72754, 1.28.2022 18:0:40.947
922, 2.13176, 0.338656, 183.156, -0.000976562, 0.000976562, -0.000976562, -0.0986328, 0.356445, -9.68945, 1.28.2022 18:0:40.955
923, 2.13176, 0.338656, 183.156, -0.000976562, 0, -0.000976562, -0.00683594, 0.337891, -9.71484, 1.28.2022 18:0:40.961
924, 2.13176, 0.338656, 183.156, -0.000976562, 0.000976562, -0.000976562, -0.0527344, 0.357422, -9.75098, 1.28.2022 18:0:40.969
925, 2.13176, 0.338656, 183.156, 0, -0.000976562, 0, -0.0634766, 0.375977, -9.72461, 1.28.2022 18:0:40.979
926, 2.13176, 0.338656, 183.156, 0, -0.000976562, 0, 0.00292969, 0.355469, -9.74512, 1.28.2022 18:0:40.985
927, 2.13176, 0.338656, 183.156, 0, -0.000976562, 0, -0.0869141, 0.384766, -9.68848, 1.28.2022 18:0:40.993
928, 2.13176, 0.338656, 183.156, 0, -0.000976562, 0, -0.0527344, 0.338867, -9.76074, 1.28.2022 18:0:41.001
929, 2.13176, 0.338656, 183.156, 0, 0.000976562, 0, -0.0498047, 0.352539, -9.71875, 1.28.2022 18:0:41.009
930, 2.13195, 0.331666, 183.156, 0.000976562, 0, -0.000976562, -0.101562, 0.359375, -9.71973, 1.28.2022 18:0:41.017
931, 2.13195, 0.331666, 183.156, 0, -0.000976562, 0, -0.0244141, 0.353516, -9.76562, 1.28.2022 18:0:41.025
932, 2.13195, 0.331666, 183.156, -0.00195312, 0, 0, -0.0712891, 0.360352, -9.74805, 1.28.2022 18:0:41.033
933, 2.13195, 0.331666, 183.156, 0, -0.000976562, 0, -0.0605469, 0.373047, -9.69434, 1.28.2022 18:0:41.041
934, 2.13195, 0.331666, 183.156, 0.000976562, -0.000976562, 0.000976562, -0.000976562, 0.341797, -9.7002, 1.28.2022 18:0:41.049
935, 2.12497, 0.331473, 183.156, -0.000976562, 0, -0.000976562, -0.0996094, 0.366211, -9.7168, 1.28.2022 18:0:41.057
936, 2.12497, 0.331473, 183.156, 0, -0.000976562, 0, -0.0585938, 0.366211, -9.71777, 1.28.2022 18:0:41.065
937, 2.12497, 0.331473, 183.156, 0, -0.000976562, 0, -0.0585938, 0.356445, -9.69238, 1.28.2022 18:0:41.073
938, 2.12497, 0.331473, 183.156, 0.000976562, -0.000976562, 0, -0.0947266, 0.371094, -9.71484, 1.28.2022 18:0:41.081
939, 2.12497, 0.331473, 183.156, 0, -0.000976562, 0, 0.00585938, 0.323242, -9.71484, 1.28.2022 18:0:41.089
940, 2.12497, 0.331473, 183.156, 0, -0.000976562, 0, -0.0439453, 0.353516, -9.69727, 1.28.2022 18:0:41.097
941, 2.12497, 0.331473, 183.156, -0.00195312, 0, 0, -0.0751953, 0.379883, -9.67188, 1.28.2022 18:0:41.105
942, 2.12497, 0.331473, 183.156, 0, -0.00195312, 0, -0.0283203, 0.367188, -9.73926, 1.28.2022 18:0:41.113
943, 2.12497, 0.331473, 183.156, -0.000976562, 0, -0.000976562, -0.103516, 0.384766, -9.69336, 1.28.2022 18:0:41.121
944, 2.12497, 0.331473, 183.156, 0, -0.000976562, 0, -0.0566406, 0.375, -9.75293, 1.28.2022 18:0:41.129
945, 2.12497, 0.331473, 183.156, 0, -0.000976562, 0, -0.0205078, 0.34375, -9.68848, 1.28.2022 18:0:41.137
946, 2.12497, 0.331473, 183.156, 0, 0.000976562, 0, -0.113281, 0.336914, -9.69141, 1.28.2022 18:0:41.145
947, 2.12497, 0.331473, 183.156, 0, 0.000976562, 0, -0.0302734, 0.361328, -9.71582, 1.28.2022 18:0:41.153
948, 2.12497, 0.331473, 183.156, 0, 0.000976562, 0, -0.0771484, 0.348633, -9.69434, 1.28.2022 18:0:41.161
949, 2.12497, 0.331473, 183.156, 0, 0.000976562, 0, -0.0839844, 0.365234, -9.66113, 1.28.2022 18:0:41.169
950, 2.12497, 0.331473, 183.156, 0, -0.000976562, 0, -0.015625, 0.341797, -9.68652, 1.28.2022 18:0:41.177
951, 2.12497, 0.331473, 183.156, 0, 0.000976562, 0.000976562, -0.0947266, 0.368164, -9.69629, 1.28.2022 18:0:41.185
952, 2.12497, 0.331473, 183.156, 0, -0.000976562, 0, -0.0527344, 0.338867, -9.74902, 1.28.2022 18:0:41.193
953, 2.12497, 0.331473, 183.156, 0.000976562, -0.000976562, 0, -0.0205078, 0.366211, -9.69434, 1.28.2022 18:0:41.201
954, 2.12497, 0.331473, 183.156, 0.000976562, -0.000976562, 0, -0.0771484, 0.389648, -9.70312, 1.28.2022 18:0:41.209
955, 2.12497, 0.331473, 183.156, 0, -0.000976562, 0.000976562, -0.00488281, 0.37207, -9.75586, 1.28.2022 18:0:41.217
956, 2.12497, 0.331473, 183.156, 0, -0.000976562, 0.000976562, -0.0615234, 0.347656, -9.73926, 1.28.2022 18:0:41.225
957, 2.12497, 0.331473, 183.156, -0.000976562, -0.000976562, 0.000976562, -0.0947266, 0.359375, -9.70801, 1.28.2022 18:0:41.233
958, 2.12497, 0.331473, 183.156, 0, -0.00195312, -0.000976562, -0.0322266, 0.335938, -9.67188, 1.28.2022 18:0:41.241
959, 2.11798, 0.33128, 183.156, 0, -0.00195312, -0.00195312, -0.115234, 0.384766, -9.69531, 1.28.2022 18:0:41.249
960, 2.11798, 0.33128, 183.156, 0, -0.000976562, -0.00195312, -0.0634766, 0.382812, -9.70996, 1.28.2022 18:0:41.257
961, 2.11798, 0.33128, 183.156, -0.000976562, -0.000976562, -0.000976562, -0.0371094, 0.322266, -9.69141, 1.28.2022 18:0:41.265
962, 2.11798, 0.33128, 183.156, 0, 0, -0.000976562, -0.0917969, 0.371094, -9.71191, 1.28.2022 18:0:41.273
963, 2.11798, 0.33128, 183.156, -0.000976562, 0, -0.000976562, -0.00195312, 0.354492, -9.70996, 1.28.2022 18:0:41.281
964, 2.11798, 0.33128, 183.156, 0, -0.000976562, -0.000976562, -0.0683594, 0.367188, -9.73926, 1.28.2022 18:0:41.289
965, 2.11798, 0.33128, 183.156, -0.000976562, 0, -0.000976562, -0.078125, 0.359375, -9.72949, 1.28.2022 18:0:41.297
966, 2.11798, 0.33128, 183.156, -0.00195312, -0.000976562, -0.000976562, -0.0302734, 0.37207, -9.73438, 1.28.2022 18:0:41.305
967, 2.11798, 0.33128, 183.156, -0.000976562, -0.00195312, 0, -0.0947266, 0.376953, -9.75, 1.28.2022 18:0:41.313
968, 2.11779, 0.338271, 183.156, -0.000976562, -0.000976562, -0.00195312, -0.0458984, 0.379883, -9.68262, 1.28.2022 18:0:41.321
969, 2.12477, 0.338463, 183.156, 0, -0.000976562, -0.000976562, -0.0498047, 0.350586, -9.74902, 1.28.2022 18:0:41.329
970, 2.12477, 0.338463, 183.156, 0.000976562, -0.00195312, 0, -0.0898438, 0.390625, -9.71387, 1.28.2022 18:0:41.337
971, 2.12477, 0.338463, 183.156, -0.000976562, 0, -0.000976562, -0.0136719, 0.361328, -9.70215, 1.28.2022 18:0:41.345
972, 2.12477, 0.338463, 183.156, 0, 0, -0.000976562, -0.0605469, 0.334961, -9.70215, 1.28.2022 18:0:41.353
973, 2.12477, 0.338463, 183.156, -0.000976562, 0, -0.000976562, -0.0830078, 0.380859, -9.62012, 1.28.2022 18:0:41.361
974, 2.12477, 0.338463, 183.156, -0.000976562, -0.000976562, -0.000976562, -0.00878906, 0.328125, -9.71973, 1.28.2022 18:0:41.369
975, 2.12477, 0.338463, 183.156, -0.000976562, -0.000976562, -0.00292969, -0.0966797, 0.361328, -9.69824, 1.28.2022 18:0:41.377
976, 2.12477, 0.338463, 183.156, -0.000976562, -0.000976562, -0.00195312, -0.0517578, 0.354492, -9.73242, 1.28.2022 18:0:41.385
977, 2.12477, 0.338463, 183.156, -0.000976562, 0, 0.000976562, -0.0273438, 0.368164, -9.69238, 1.28.2022 18:0:41.393
978, 2.12477, 0.338463, 183.156, -0.000976562, 0, -0.000976562, -0.116211, 0.380859, -9.70898, 1.28.2022 18:0:41.401
979, 2.12477, 0.338463, 183.156, -0.000976562, -0.000976562, -0.000976562, -0.0136719, 0.347656, -9.72168, 1.28.2022 18:0:41.409
980, 2.12477, 0.338463, 183.156, -0.000976562, -0.00195312, -0.000976562, -0.0527344, 0.379883, -9.75293, 1.28.2022 18:0:41.417
981, 2.12477, 0.338463, 183.156, 0, -0.00195312, -0.000976562, -0.0654297, 0.379883, -9.68848, 1.28.2022 18:0:41.425
982, 2.12477, 0.338463, 183.156, 0.000976562, -0.000976562, 0.000976562, -0.00878906, 0.347656, -9.72363, 1.28.2022 18:0:41.433
983, 2.12477, 0.338463, 183.156, 0, -0.00195312, -0.000976562, -0.109375, 0.357422, -9.74316, 1.28.2022 18:0:41.441
984, 2.12477, 0.338463, 183.156, -0.000976562, -0.000976562, -0.000976562, -0.0400391, 0.359375, -9.71094, 1.28.2022 18:0:41.449
985, 2.12477, 0.338463, 183.156, -0.000976562, -0.000976562, -0.000976562, -0.0371094, 0.327148, -9.69531, 1.28.2022 18:0:41.457
986, 2.12477, 0.338463, 183.156, 0, -0.000976562, -0.000976562, -0.0996094, 0.357422, -9.71973, 1.28.2022 18:0:41.465
987, 2.12477, 0.338463, 183.156, -0.000976562, -0.000976562, -0.000976562, -0.0302734, 0.34668, -9.70508, 1.28.2022 18:0:41.473
988, 2.12477, 0.338463, 183.156, -0.000976562, -0.000976562, -0.000976562, -0.0566406, 0.341797, -9.69727, 1.28.2022 18:0:41.481
989, 2.12477, 0.338463, 183.156, 0, -0.000976562, -0.00195312, -0.0683594, 0.373047, -9.70801, 1.28.2022 18:0:41.489
990, 2.12477, 0.338463, 183.156, 0, -0.000976562, -0.00195312, -0.0332031, 0.34082, -9.75195, 1.28.2022 18:0:41.497
991, 2.12477, 0.338463, 183.156, 0, -0.000976562, 0, -0.111328, 0.339844, -9.68945, 1.28.2022 18:0:41.505
992, 2.12477, 0.338463, 183.156, -0.000976562, -0.000976562, 0, -0.0390625, 0.34668, -9.7002, 1.28.2022 18:0:41.513
993, 2.12477, 0.338463, 183.156, -0.000976562, 0.000976562, 0, -0.0166016, 0.347656, -9.74512, 1.28.2022 18:0:41.521
994, 2.12477, 0.338463, 183.156, -0.000976562, 0.000976562, 0, -0.104492, 0.37207, -9.73828, 1.28.2022 18:0:41.529
995, 2.11779, 0.338271, 183.156, -0.000976562, -0.000976562, 0, -0.0214844, 0.365234, -9.74414, 1.28.2022 18:0:41.537
996, 2.11779, 0.338271, 183.156, -0.000976562, -0.000976562, 0, -0.0673828, 0.365234, -9.6709, 1.28.2022 18:0:41.545
997, 2.11779, 0.338271, 183.156, -0.000976562, -0.000976562, 0, -0.078125, 0.393555, -9.74023, 1.28.2022 18:0:41.553
998, 2.11779, 0.338271, 183.156, -0.00195312, 0.000976562, 0, -0.000976562, 0.373047, -9.70898, 1.28.2022 18:0:41.561
999, 2.11779, 0.338271, 183.156, -0.000976562, -0.000976562, 0, -0.106445, 0.378906, -9.74023, 1.28.2022 18:0:41.569
1000, 2.11779, 0.338271, 183.156, -0.000976562, -0.000976562, 0.000976562, -0.046875, 0.392578, -9.72656, 1.28.2022 18:0:41.577
1001, 2.11779, 0.338271, 183.156, -0.000976562, -0.00195312, 0, -0.0361328, 0.332031, -9.75684, 1.28.2022 18:0:41.585
1002, 2.11779, 0.338271, 183.156, -0.000976562, 0.000976562, 0, -0.0878906, 0.369141, -9.73828, 1.28.2022 18:0:41.593
1003, 2.12477, 0.338463, 183.156, -0.00195312, -0.00195312, 0, -0.0292969, 0.34668, -9.68555, 1.28.2022 18:0:41.601
1004, 2.12477, 0.338463, 183.156, -0.00195312, -0.000976562, 0, -0.0332031, 0.352539, -9.72754, 1.28.2022 18:0:41.609
1005, 2.12477, 0.338463, 183.156, 0, -0.000976562, 0.000976562, -0.0703125, 0.384766, -9.69336, 1.28.2022 18:0:41.617
1006, 2.12477, 0.338463, 183.156, 0, -0.000976562, 0.000976562, 0.0322266, 0.368164, -9.69336, 1.28.2022 18:0:41.625
1007, 2.12497, 0.331473, 183.156, 0, 0.000976562, -0.000976562, -0.078125, 0.371094, -9.71777, 1.28.2022 18:0:41.633
1008, 2.12497, 0.331473, 183.156, -0.000976562, -0.00195312, 0, -0.0498047, 0.364258, -9.72461, 1.28.2022 18:0:41.641
1009, 2.12497, 0.331473, 183.156, 0, -0.000976562, 0, -0.0449219, 0.338867, -9.74219, 1.28.2022 18:0:41.649
1010, 2.12497, 0.331473, 183.156, -0.000976562, -0.000976562, -0.000976562, -0.126953, 0.363281, -9.68164, 1.28.2022 18:0:41.657
1011, 2.12497, 0.331473, 183.156, -0.000976562, -0.000976562, 0, -0.0175781, 0.348633, -9.68555, 1.28.2022 18:0:41.665
1012, 2.12497, 0.331473, 183.156, -0.00195312, -0.000976562, -0.000976562, -0.0546875, 0.350586, -9.74414, 1.28.2022 18:0:41.673
1013, 2.12497, 0.331473, 183.156, -0.00195312, -0.000976562, 0, -0.0976562, 0.37207, -9.73145, 1.28.2022 18:0:41.681
1014, 2.12497, 0.331473, 183.156, -0.000976562, -0.000976562, 0, -0.0175781, 0.332031, -9.69531, 1.28.2022 18:0:41.689
1015, 2.12497, 0.331473, 183.156, -0.000976562, -0.000976562, 0, -0.104492, 0.357422, -9.71777, 1.28.2022 18:0:41.697
1016, 2.12497, 0.331473, 183.156, 0, -0.00195312, 0, -0.0703125, 0.356445, -9.69141, 1.28.2022 18:0:41.705
1017, 2.12497, 0.331473, 183.156, -0.000976562, -0.000976562, 0, -0.0205078, 0.341797, -9.69824, 1.28.2022 18:0:41.713
1018, 2.12497, 0.331473, 183.156, -0.000976562, -0.000976562, 0, -0.12793, 0.359375, -9.73145, 1.28.2022 18:0:41.721
1019, 2.12497, 0.331473, 183.156, 0, 0.000976562, 0.000976562, -0.0224609, 0.351562, -9.7002, 1.28.2022 18:0:41.729
1020, 2.12497, 0.331473, 183.156, 0, -0.000976562, 0, -0.0849609, 0.359375, -9.72656, 1.28.2022 18:0:41.737
1021, 2.12497, 0.331473, 183.156, -0.000976562, -0.000976562, -0.000976562, -0.0917969, 0.358398, -9.68164, 1.28.2022 18:0:41.745
1022, 2.12497, 0.331473, 183.156, -0.000976562, -0.000976562, -0.000976562, -0.0292969, 0.327148, -9.67676, 1.28.2022 18:0:41.753
1023, 2.12497, 0.331473, 183.156, -0.000976562, -0.000976562, -0.000976562, -0.0996094, 0.357422, -9.71777, 1.28.2022 18:0:41.761
1024, 2.12497, 0.331473, 183.156, -0.000976562, -0.000976562, -0.000976562, -0.0634766, 0.383789, -9.72949, 1.28.2022 18:0:41.769
1025, 2.12477, 0.338463, 183.156, -0.000976562, -0.00195312, -0.000976562, -0.0380859, 0.353516, -9.77051, 1.28.2022 18:0:41.777
1026, 2.11779, 0.338271, 183.156, 0, -0.000976562, -0.000976562, -0.111328, 0.382812, -9.71191, 1.28.2022 18:0:41.785
1027, 2.11779, 0.338271, 183.156, 0, -0.00195312, -0.00195312, -0.0332031, 0.362305, -9.74219, 1.28.2022 18:0:41.793
1028, 2.11779, 0.338271, 183.156, 0, -0.000976562, -0.00195312, -0.0732422, 0.360352, -9.74121, 1.28.2022 18:0:41.801
1029, 2.11779, 0.338271, 183.156, -0.000976562, 0.000976562, 0, -0.111328, 0.339844, -9.71094, 1.28.2022 18:0:41.809
1030, 2.1176, 0.345261, 183.156, 0, 0.000976562, 0, -0.0107422, 0.334961, -9.70508, 1.28.2022 18:0:41.817
