Seq, Rot x, Rot y, Rot z, Vel x, Vel y, Vel z, Acc x, Acc y, Acc z, Time(m.d.y h:m:s.ms)
0, 1.74179, 0.291259, 226.947, 0, 0, -0.00195312, -0.0117188, 0.271484, -9.74023, 1.28.2022 18:46:52.275
1, 1.74179, 0.291259, 226.947, -0.000976562, 0, -0.000976562, -0.0839844, 0.293945, -9.76465, 1.28.2022 18:46:52.283
2, 1.74179, 0.291259, 226.947, -0.000976562, 0, 0, -0.0771484, 0.310547, -9.66895, 1.28.2022 18:46:52.291
3, 1.74179, 0.291259, 226.947, 0, 0, 0, -0.0146484, 0.251953, -9.74316, 1.28.2022 18:46:52.299
4, 1.74179, 0.291259, 226.947, -0.000976562, 0, 0, -0.102539, 0.303711, -9.77344, 1.28.2022 18:46:52.307
5, 1.74179, 0.291259, 226.947, -0.000976562, 0, 0, -0.0419922, 0.265625, -9.69727, 1.28.2022 18:46:52.315
6, 1.74179, 0.291259, 226.947, -0.000976562, 0, 0, -0.0576172, 0.300781, -9.75781, 1.28.2022 18:46:52.323
7, 1.74179, 0.291259, 226.947, -0.000976562, 0.000976562, 0, -0.0976562, 0.297852, -9.7334, 1.28.2022 18:46:52.329
8, 1.73538, 0.288473, 226.947, 0, 0, 0, -0.0185547, 0.261719, -9.74707, 1.28.2022 18:46:52.337
9, 1.73538, 0.288473, 226.947, 0, -0.000976562, 0, -0.0371094, 0.299805, -9.71973, 1.28.2022 18:46:52.345
10, 1.73538, 0.288473, 226.947, 0, 0, 0, -0.0488281, 0.327148, -9.68164, 1.28.2022 18:46:52.353
11, 1.73538, 0.288473, 226.947, -0.000976562, 0, -0.000976562, -0.0166016, 0.261719, -9.74219, 1.28.2022 18:46:52.361
12, 1.73259, 0.294888, 226.947, 0, -0.000976562, -0.000976562, -0.120117, 0.341797, -9.67773, 1.28.2022 18:46:52.369
13, 1.73259, 0.294888, 226.947, 0, 0, 0, -0.0439453, 0.282227, -9.69922, 1.28.2022 18:46:52.377
14, 1.73259, 0.294888, 226.947, 0, 0, 0, -0.0517578, 0.288086, -9.73633, 1.28.2022 18:46:52.385
15, 1.73259, 0.294888, 226.947, 0, 0.000976562, -0.000976562, -0.116211, 0.307617, -9.73047, 1.28.2022 18:46:52.393
16, 1.73259, 0.294888, 226.947, -0.000976562, 0, 0, 0.000976562, 0.310547, -9.68262, 1.28.2022 18:46:52.401
17, 1.73259, 0.294888, 226.947, 0, -0.000976562, 0.000976562, -0.0517578, 0.289062, -9.70312, 1.28.2022 18:46:52.409
18, 1.73259, 0.294888, 226.947, -0.000976562, 0, 0, -0.0478516, 0.314453, -9.75, 1.28.2022 18:46:52.417
19, 1.73259, 0.294888, 226.947, 0, 0.000976562, -0.000976562, 0.0214844, 0.290039, -9.72559, 1.28.2022 18:46:52.425
20, 1.73259, 0.294888, 226.947, 0, 0, -0.000976562, -0.0820312, 0.298828, -9.7002, 1.28.2022 18:46:52.433
21, 1.73259, 0.294888, 226.947, -0.000976562, 0, 0, -0.0537109, 0.311523, -9.7168, 1.28.2022 18:46:52.441
22, 1.73259, 0.294888, 226.947, -0.000976562, -0.000976562, 0, -0.0136719, 0.301758, -9.7041, 1.28.2022 18:46:52.449
23, 1.73259, 0.294888, 226.947, -0.000976562, 0, 0, -0.0947266, 0.292969, -9.72168, 1.28.2022 18:46:52.457
24, 1.73259, 0.294888, 226.947, -0.000976562, 0, 0, -0.0253906, 0.265625, -9.7168, 1.28.2022 18:46:52.465
25, 1.73259, 0.294888, 226.947, -0.000976562, 0, 0, -0.0546875, 0.279297, -9.75293, 1.28.2022 18:46:52.473
26, 1.739, 0.297674, 226.947, -0.000976562, 0.000976562, 0, -0.0556641, 0.291016, -9.66602, 1.28.2022 18:46:52.481
27, 1.739, 0.297674, 226.947, -0.000976562, 0, 0, 0.0117188, 0.283203, -9.75, 1.28.2022 18:46:52.489
28, 1.739, 0.297674, 226.947, -0.000976562, -0.000976562, -0.000976562, -0.0878906, 0.28125, -9.74316, 1.28.2022 18:46:52.497
29, 1.739, 0.297674, 226.947, -0.000976562, 0, 0, -0.0498047, 0.306641, -9.72168, 1.28.2022 18:46:52.505
30, 1.739, 0.297674, 226.947, -0.000976562, 0, -0.000976562, -0.0400391, 0.288086, -9.74609, 1.28.2022 18:46:52.513
31, 1.739, 0.297674, 226.947, -0.00195312, 0, 0, -0.0996094, 0.331055, -9.73926, 1.28.2022 18:46:52.521
32, 1.739, 0.297674, 226.947, -0.000976562, -0.00195312, 0, -0.015625, 0.314453, -9.6748, 1.28.2022 18:46:52.529
33, 1.73872, 0.297648, 226.949, 0, -0.00195312, 0.000976562, -0.0566406, 0.285156, -9.73145, 1.28.2022 18:46:52.537
34, 1.73872, 0.297648, 226.949, -0.000976562, 0, 0.000976562, -0.0585938, 0.318359, -9.70215, 1.28.2022 18:46:52.545
35, 1.73872, 0.297648, 226.949, -0.000976562, 0, 0, 0.0322266, 0.299805, -9.66406, 1.28.2022 18:46:52.553
36, 1.73872, 0.297648, 226.949, 0, 0, 0, -0.0830078, 0.286133, -9.74805, 1.28.2022 18:46:52.561
37, 1.73886, 0.297544, 226.94, -0.000976562, 0, 0, -0.0615234, 0.282227, -9.70312, 1.28.2022 18:46:52.569
38, 1.73886, 0.297544, 226.94, 0, 0, 0, -0.0322266, 0.279297, -9.68555, 1.28.2022 18:46:52.577
39, 1.73886, 0.297544, 226.94, -0.000976562, 0, 0.000976562, -0.108398, 0.302734, -9.67383, 1.28.2022 18:46:52.585
40, 1.73886, 0.297544, 226.94, 0, 0, 0, -0.0136719, 0.277344, -9.7041, 1.28.2022 18:46:52.593
41, 1.73886, 0.297544, 226.94, -0.000976562, 0.000976562, 0.000976562, -0.0400391, 0.303711, -9.70996, 1.28.2022 18:46:52.601
42, 1.73886, 0.297544, 226.94, 0, 0, 0, -0.0820312, 0.28418, -9.68457, 1.28.2022 18:46:52.609
43, 1.73886, 0.297544, 226.94, 0, 0, 0, -0.0107422, 0.238281, -9.68652, 1.28.2022 18:46:52.617
44, 1.73886, 0.297544, 226.94, -0.000976562, 0, 0, -0.0830078, 0.27832, -9.71973, 1.28.2022 18:46:52.625
45, 1.73886, 0.297544, 226.94, -0.000976562, 0, 0, -0.046875, 0.289062, -9.69629, 1.28.2022 18:46:52.633
46, 1.73523, 0.288343, 226.941, 0, 0.000976562, -0.000976562, -0.0253906, 0.268555, -9.72363, 1.28.2022 18:46:52.641
47, 1.73523, 0.288343, 226.941, -0.000976562, -0.00195312, 0.000976562, -0.0820312, 0.328125, -9.69727, 1.28.2022 18:46:52.649
48, 1.73245, 0.294758, 226.94, -0.000976562, -0.00195312, 0, -0.0341797, 0.279297, -9.6875, 1.28.2022 18:46:52.657
49, 1.73245, 0.294758, 226.94, -0.000976562, -0.00195312, 0, -0.0751953, 0.28125, -9.67773, 1.28.2022 18:46:52.665
50, 1.73245, 0.294758, 226.94, -0.000976562, 0, 0, -0.0927734, 0.265625, -9.71777, 1.28.2022 18:46:52.673
51, 1.73245, 0.294758, 226.94, 0, -0.00195312, 0, 0.0224609, 0.268555, -9.7168, 1.28.2022 18:46:52.681
52, 1.73245, 0.294758, 226.94, -0.000976562, 0, 0, -0.0976562, 0.304688, -9.7334, 1.28.2022 18:46:52.689
53, 1.73245, 0.294758, 226.94, -0.000976562, 0, 0, -0.0595703, 0.304688, -9.7334, 1.28.2022 18:46:52.697
54, 1.73245, 0.294758, 226.94, 0, 0, -0.000976562, 0.0126953, 0.273438, -9.73535, 1.28.2022 18:46:52.705
55, 1.73245, 0.294758, 226.94, 0, 0, 0, -0.0800781, 0.304688, -9.7168, 1.28.2022 18:46:52.713
56, 1.72604, 0.291973, 226.94, 0.000976562, 0, 0, -0.0400391, 0.272461, -9.70215, 1.28.2022 18:46:52.721
57, 1.72604, 0.291973, 226.94, 0, 0, 0, -0.0566406, 0.270508, -9.69434, 1.28.2022 18:46:52.729
58, 1.72604, 0.291973, 226.94, -0.000976562, 0, 0, -0.0703125, 0.291016, -9.68652, 1.28.2022 18:46:52.737
59, 1.72604, 0.291973, 226.94, -0.000976562, 0, 0, -0.000976562, 0.279297, -9.67383, 1.28.2022 18:46:52.745
60, 1.72325, 0.298388, 226.94, 0, -0.00195312, 0, -0.0546875, 0.319336, -9.74023, 1.28.2022 18:46:52.753
61, 1.72325, 0.298388, 226.94, -0.000976562, 0, -0.000976562, -0.0634766, 0.314453, -9.72363, 1.28.2022 18:46:52.761
62, 1.72325, 0.298388, 226.94, -0.000976562, -0.000976562, -0.00195312, -0.0166016, 0.280273, -9.72754, 1.28.2022 18:46:52.769
63, 1.71684, 0.295602, 226.94, 0, -0.000976562, -0.000976562, -0.0966797, 0.301758, -9.70703, 1.28.2022 18:46:52.777
64, 1.71684, 0.295602, 226.94, 0, 0, -0.000976562, -0.0419922, 0.277344, -9.68945, 1.28.2022 18:46:52.785
65, 1.71684, 0.295602, 226.94, -0.000976562, 0, -0.000976562, -0.0439453, 0.269531, -9.67578, 1.28.2022 18:46:52.793
66, 1.71684, 0.295602, 226.94, -0.000976562, -0.000976562, -0.000976562, -0.0849609, 0.325195, -9.6875, 1.28.2022 18:46:52.801
67, 1.71684, 0.295602, 226.94, 0, 0.000976562, -0.000976562, 0.0175781, 0.260742, -9.71289, 1.28.2022 18:46:52.809
68, 1.71684, 0.295602, 226.94, -0.000976562, 0, -0.000976562, -0.0537109, 0.270508, -9.69434, 1.28.2022 18:46:52.817
69, 1.71684, 0.295602, 226.94, -0.000976562, -0.000976562, -0.000976562, -0.0595703, 0.314453, -9.7334, 1.28.2022 18:46:52.825
70, 1.71684, 0.295602, 226.94, 0, 0.000976562, -0.000976562, -0.00488281, 0.261719, -9.74023, 1.28.2022 18:46:52.833
71, 1.71684, 0.295602, 226.94, -0.000976562, -0.000976562, -0.000976562, -0.109375, 0.30957, -9.71387, 1.28.2022 18:46:52.841
72, 1.71684, 0.295602, 226.94, -0.000976562, 0, -0.000976562, -0.0517578, 0.280273, -9.71582, 1.28.2022 18:46:52.849
73, 1.71043, 0.292817, 226.94, -0.000976562, 0, -0.000976562, -0.0498047, 0.283203, -9.72266, 1.28.2022 18:46:52.857
74, 1.71043, 0.292817, 226.94, -0.000976562, 0, -0.000976562, -0.120117, 0.305664, -9.69043, 1.28.2022 18:46:52.865
75, 1.71043, 0.292817, 226.94, -0.000976562, 0, -0.000976562, -0.0107422, 0.287109, -9.7041, 1.28.2022 18:46:52.873
76, 1.71043, 0.292817, 226.94, -0.000976562, -0.000976562, -0.000976562, -0.0517578, 0.277344, -9.70117, 1.28.2022 18:46:52.881
77, 1.71043, 0.292817, 226.94, -0.000976562, 0, 0.000976562, -0.0566406, 0.311523, -9.73145, 1.28.2022 18:46:52.889
78, 1.71043, 0.292817, 226.94, -0.000976562, 0, -0.000976562, -0.0078125, 0.266602, -9.66016, 1.28.2022 18:46:52.897
79, 1.71043, 0.292817, 226.94, 0, 0, 0.000976562, -0.0966797, 0.277344, -9.69629, 1.28.2022 18:46:52.905
80, 1.71043, 0.292817, 226.94, -0.000976562, 0, 0.000976562, -0.0429688, 0.302734, -9.74609, 1.28.2022 18:46:52.913
81, 1.71043, 0.292817, 226.94, -0.00195312, -0.000976562, 0.000976562, -0.0664062, 0.291992, -9.70996, 1.28.2022 18:46:52.921
82, 1.71043, 0.292817, 226.94, -0.00195312, -0.000976562, -0.000976562, -0.109375, 0.335938, -9.73633, 1.28.2022 18:46:52.929
83, 1.71043, 0.292817, 226.94, -0.000976562, -0.000976562, -0.00195312, -0.00683594, 0.271484, -9.73047, 1.28.2022 18:46:52.937
84, 1.70765, 0.299232, 226.94, -0.000976562, 0, -0.00195312, -0.0478516, 0.294922, -9.73926, 1.28.2022 18:46:52.945
85, 1.70765, 0.299232, 226.94, -0.00195312, -0.000976562, -0.00195312, -0.0488281, 0.334961, -9.7002, 1.28.2022 18:46:52.953
86, 1.71406, 0.302017, 226.94, -0.000976562, 0, -0.00195312, 0.0078125, 0.270508, -9.7002, 1.28.2022 18:46:52.961
87, 1.71406, 0.302017, 226.94, -0.00195312, 0, -0.000976562, -0.0810547, 0.317383, -9.74707, 1.28.2022 18:46:52.969
88, 1.71406, 0.302017, 226.94, -0.00195312, -0.000976562, -0.000976562, -0.0400391, 0.333008, -9.71191, 1.28.2022 18:46:52.977
89, 1.71406, 0.302017, 226.94, -0.000976562, 0, 0.000976562, -0.0517578, 0.296875, -9.70801, 1.28.2022 18:46:52.985
90, 1.71406, 0.302017, 226.94, -0.000976562, 0, -0.000976562, -0.141602, 0.313477, -9.69238, 1.28.2022 18:46:52.993
91, 1.71406, 0.302017, 226.94, -0.000976562, -0.000976562, -0.000976562, -0.0136719, 0.287109, -9.7207, 1.28.2022 18:46:53.001
92, 1.71406, 0.302017, 226.94, -0.00195312, 0, -0.000976562, -0.0527344, 0.307617, -9.75488, 1.28.2022 18:46:53.009
93, 1.72047, 0.304802, 226.94, -0.00195312, -0.000976562, -0.000976562, -0.0927734, 0.30957, -9.72852, 1.28.2022 18:46:53.017
94, 1.72047, 0.304802, 226.94, 0, 0, 0, -0.0185547, 0.27832, -9.71875, 1.28.2022 18:46:53.025
95, 1.72047, 0.304802, 226.94, 0.000976562, 0, -0.000976562, -0.0917969, 0.280273, -9.70312, 1.28.2022 18:46:53.033
96, 1.72047, 0.304802, 226.94, 0, 0.000976562, 0, -0.0361328, 0.28418, -9.76074, 1.28.2022 18:46:53.041
97, 1.72047, 0.304802, 226.94, 0.000976562, -0.000976562, -0.000976562, -0.0498047, 0.270508, -9.71094, 1.28.2022 18:46:53.049
98, 1.72047, 0.304802, 226.94, 0, 0, 0, -0.0869141, 0.295898, -9.68652, 1.28.2022 18:46:53.057
99, 1.72047, 0.304802, 226.94, 0.000976562, 0, -0.00195312, -0.0253906, 0.295898, -9.68457, 1.28.2022 18:46:53.065
100, 1.72047, 0.304802, 226.94, 0, 0, 0.000976562, -0.0546875, 0.295898, -9.74805, 1.28.2022 18:46:53.073
101, 1.72688, 0.307588, 226.94, 0, 0, 0, -0.0820312, 0.291992, -9.69141, 1.28.2022 18:46:53.081
102, 1.72688, 0.307588, 226.94, 0.000976562, 0, -0.000976562, 0.0078125, 0.282227, -9.69238, 1.28.2022 18:46:53.089
103, 1.72688, 0.307588, 226.94, 0.000976562, 0, -0.00195312, -0.0859375, 0.297852, -9.75, 1.28.2022 18:46:53.097
104, 1.72688, 0.307588, 226.94, 0.000976562, 0, -0.000976562, -0.0371094, 0.289062, -9.69629, 1.28.2022 18:46:53.105
105, 1.72688, 0.307588, 226.94, 0.000976562, 0, 0.000976562, -0.0400391, 0.287109, -9.7207, 1.28.2022 18:46:53.113
106, 1.72688, 0.307588, 226.94, 0, 0, 0, -0.0810547, 0.314453, -9.7373, 1.28.2022 18:46:53.121
107, 1.72688, 0.307588, 226.94, 0.000976562, 0, -0.000976562, 0.0136719, 0.307617, -9.68262, 1.28.2022 18:46:53.129
108, 1.72688, 0.307588, 226.94, 0.000976562, 0, -0.000976562, -0.0478516, 0.293945, -9.77637, 1.28.2022 18:46:53.137
109, 1.72688, 0.307588, 226.94, 0, 0, -0.00195312, -0.0791016, 0.305664, -9.77344, 1.28.2022 18:46:53.145
110, 1.72688, 0.307588, 226.94, 0.000976562, 0, -0.000976562, 0.015625, 0.289062, -9.68359, 1.28.2022 18:46:53.153
111, 1.72688, 0.307588, 226.94, 0, 0, 0, -0.0878906, 0.301758, -9.71191, 1.28.2022 18:46:53.161
112, 1.72688, 0.307588, 226.94, 0.000976562, -0.000976562, 0.000976562, -0.0546875, 0.31543, -9.75977, 1.28.2022 18:46:53.169
113, 1.72688, 0.307588, 226.94, 0.000976562, 0, 0.000976562, -0.0205078, 0.265625, -9.7002, 1.28.2022 18:46:53.177
114, 1.72688, 0.307588, 226.94, 0, 0, 0.000976562, -0.111328, 0.295898, -9.68848, 1.28.2022 18:46:53.185
115, 1.72688, 0.307588, 226.94, 0, 0, 0, -0.0302734, 0.268555, -9.73242, 1.28.2022 18:46:53.193
116, 1.72688, 0.307588, 226.94, -0.00195312, 0, -0.00195312, -0.0429688, 0.273438, -9.7373, 1.28.2022 18:46:53.201
117, 1.72688, 0.307588, 226.94, 0.000976562, 0, 0.000976562, -0.0820312, 0.317383, -9.67871, 1.28.2022 18:46:53.209
118, 1.72688, 0.307588, 226.94, 0.000976562, 0, -0.000976562, -0.00390625, 0.285156, -9.70898, 1.28.2022 18:46:53.217
119, 1.72688, 0.307588, 226.94, 0, -0.000976562, -0.000976562, -0.0996094, 0.304688, -9.73047, 1.28.2022 18:46:53.225
120, 1.72688, 0.307588, 226.94, 0, -0.000976562, 0.000976562, -0.0751953, 0.311523, -9.70215, 1.28.2022 18:46:53.233
121, 1.72688, 0.307588, 226.94, 0.000976562, -0.000976562, -0.000976562, -0.0283203, 0.27832, -9.73438, 1.28.2022 18:46:53.241
122, 1.72688, 0.307588, 226.94, 0, -0.000976562, -0.000976562, -0.125977, 0.294922, -9.7168, 1.28.2022 18:46:53.249
123, 1.72688, 0.307588, 226.94, 0.000976562, 0, -0.000976562, -0.0234375, 0.294922, -9.72266, 1.28.2022 18:46:53.257
124, 1.72688, 0.307588, 226.94, 0.000976562, 0, -0.000976562, -0.0371094, 0.289062, -9.69922, 1.28.2022 18:46:53.265
125, 1.72688, 0.307588, 226.94, -0.000976562, -0.000976562, 0, -0.0683594, 0.321289, -9.73535, 1.28.2022 18:46:53.273
126, 1.72688, 0.307588, 226.94, 0, 0, -0.000976562, 0.0078125, 0.290039, -9.7373, 1.28.2022 18:46:53.281
127, 1.72688, 0.307588, 226.94, 0, 0, -0.000976562, -0.0751953, 0.313477, -9.69531, 1.28.2022 18:46:53.289
128, 1.72688, 0.307588, 226.94, 0, 0, -0.000976562, -0.0615234, 0.291992, -9.71777, 1.28.2022 18:46:53.297
129, 1.72688, 0.307588, 226.94, -0.000976562, 0, -0.000976562, 0.000976562, 0.285156, -9.72363, 1.28.2022 18:46:53.303
130, 1.72688, 0.307588, 226.94, -0.000976562, 0, -0.000976562, -0.0947266, 0.314453, -9.7373, 1.28.2022 18:46:53.311
131, 1.72688, 0.307588, 226.94, 0, 0.000976562, -0.000976562, -0.0214844, 0.3125, -9.74805, 1.28.2022 18:46:53.319
132, 1.72688, 0.307588, 226.94, 0, 0, -0.000976562, -0.0439453, 0.286133, -9.66602, 1.28.2022 18:46:53.327
133, 1.72688, 0.307588, 226.94, 0, 0, -0.000976562, -0.113281, 0.300781, -9.67188, 1.28.2022 18:46:53.335
134, 1.72688, 0.307588, 226.94, -0.000976562, 0, -0.000976562, -0.00683594, 0.255859, -9.70508, 1.28.2022 18:46:53.343
135, 1.72967, 0.301173, 226.94, -0.000976562, -0.000976562, -0.000976562, -0.0546875, 0.314453, -9.73145, 1.28.2022 18:46:53.351
136, 1.72688, 0.307588, 226.94, 0, -0.000976562, -0.000976562, -0.0791016, 0.298828, -9.76855, 1.28.2022 18:46:53.359
137, 1.72688, 0.307588, 226.94, 0, -0.000976562, -0.000976562, 0.0078125, 0.283203, -9.7334, 1.28.2022 18:46:53.367
138, 1.72688, 0.307588, 226.94, 0, -0.000976562, -0.000976562, -0.09375, 0.300781, -9.66504, 1.28.2022 18:46:53.375
139, 1.72688, 0.307588, 226.94, 0, 0, -0.000976562, -0.0449219, 0.288086, -9.73438, 1.28.2022 18:46:53.383
140, 1.72688, 0.307588, 226.94, 0, 0, -0.000976562, -0.0302734, 0.263672, -9.72559, 1.28.2022 18:46:53.391
141, 1.72967, 0.301173, 226.94, 0, 0.000976562, -0.000976562, -0.0996094, 0.294922, -9.7334, 1.28.2022 18:46:53.399
142, 1.72967, 0.301173, 226.94, -0.000976562, 0, -0.00195312, -0.015625, 0.28418, -9.70215, 1.28.2022 18:46:53.407
143, 1.72967, 0.301173, 226.94, -0.000976562, 0, -0.00195312, -0.0947266, 0.227539, -9.70898, 1.28.2022 18:46:53.415
144, 1.72967, 0.301173, 226.94, -0.000976562, 0, -0.000976562, -0.0771484, 0.330078, -9.6875, 1.28.2022 18:46:53.423
145, 1.72967, 0.301173, 226.94, -0.000976562, -0.000976562, -0.00195312, -0.0322266, 0.291992, -9.71582, 1.28.2022 18:46:53.431
146, 1.72688, 0.307588, 226.94, 0, 0, 0, -0.109375, 0.285156, -9.70996, 1.28.2022 18:46:53.439
147, 1.72688, 0.307588, 226.94, -0.000976562, 0, 0, -0.0390625, 0.325195, -9.68652, 1.28.2022 18:46:53.447
148, 1.72688, 0.307588, 226.94, 0, 0.000976562, -0.000976562, -0.0253906, 0.251953, -9.71484, 1.28.2022 18:46:53.455
149, 1.72688, 0.307588, 226.94, -0.000976562, 0, -0.000976562, -0.078125, 0.314453, -9.75195, 1.28.2022 18:46:53.463
150, 1.72688, 0.307588, 226.94, 0, -0.000976562, -0.000976562, 0.0146484, 0.285156, -9.72559, 1.28.2022 18:46:53.471
151, 1.72688, 0.307588, 226.94, 0, 0, -0.000976562, -0.0419922, 0.303711, -9.69336, 1.28.2022 18:46:53.479
152, 1.72688, 0.307588, 226.94, -0.00195312, 0, -0.000976562, -0.0761719, 0.296875, -9.72168, 1.28.2022 18:46:53.487
153, 1.72688, 0.307588, 226.94, -0.000976562, -0.000976562, -0.000976562, -0.0185547, 0.263672, -9.7373, 1.28.2022 18:46:53.495
154, 1.72688, 0.307588, 226.94, -0.000976562, -0.000976562, -0.000976562, -0.101562, 0.327148, -9.69238, 1.28.2022 18:46:53.503
155, 1.72688, 0.307588, 226.94, -0.000976562, 0, -0.000976562, -0.0419922, 0.304688, -9.72461, 1.28.2022 18:46:53.511
156, 1.72688, 0.307588, 226.94, 0, -0.000976562, 0, -0.0341797, 0.272461, -9.77734, 1.28.2022 18:46:53.519
157, 1.72688, 0.307588, 226.94, -0.000976562, 0, 0.000976562, -0.0800781, 0.330078, -9.71094, 1.28.2022 18:46:53.527
158, 1.72688, 0.307588, 226.94, 0, 0.000976562, 0, -0.00195312, 0.280273, -9.7207, 1.28.2022 18:46:53.535
159, 1.72688, 0.307588, 226.94, -0.000976562, 0.000976562, 0.000976562, -0.0439453, 0.265625, -9.69922, 1.28.2022 18:46:53.543
160, 1.72688, 0.307588, 226.94, -0.000976562, 0.000976562, 0, -0.0683594, 0.294922, -9.73145, 1.28.2022 18:46:53.551
161, 1.72688, 0.307588, 226.94, -0.000976562, 0, -0.000976562, 0, 0.253906, -9.72656, 1.28.2022 18:46:53.559
162, 1.72688, 0.307588, 226.94, -0.000976562, 0, -0.00195312, -0.101562, 0.282227, -9.69531, 1.28.2022 18:46:53.567
163, 1.72688, 0.307588, 226.94, -0.000976562, -0.000976562, -0.00195312, -0.0507812, 0.291016, -9.68262, 1.28.2022 18:46:53.575
164, 1.72688, 0.307588, 226.94, -0.000976562, 0, -0.000976562, -0.0205078, 0.294922, -9.72754, 1.28.2022 18:46:53.583
165, 1.72688, 0.307588, 226.94, -0.000976562, -0.000976562, -0.000976562, -0.0917969, 0.293945, -9.67188, 1.28.2022 18:46:53.591
166, 1.72688, 0.307588, 226.94, 0, 0, -0.000976562, -0.0166016, 0.256836, -9.73828, 1.28.2022 18:46:53.599
167, 1.72688, 0.307588, 226.94, -0.000976562, 0, -0.000976562, -0.0449219, 0.261719, -9.73242, 1.28.2022 18:46:53.607
168, 1.72688, 0.307588, 226.94, -0.000976562, 0, -0.000976562, -0.0732422, 0.311523, -9.72852, 1.28.2022 18:46:53.615
169, 1.72047, 0.304802, 226.94, -0.000976562, 0, -0.00195312, 0.0126953, 0.287109, -9.7168, 1.28.2022 18:46:53.623
170, 1.72047, 0.304802, 226.94, 0, 0, -0.000976562, -0.0996094, 0.311523, -9.7002, 1.28.2022 18:46:53.631
171, 1.72047, 0.304802, 226.94, 0, 0, -0.00195312, -0.0517578, 0.311523, -9.71191, 1.28.2022 18:46:53.639
172, 1.72047, 0.304802, 226.94, -0.000976562, 0, -0.000976562, -0.0351562, 0.291992, -9.70801, 1.28.2022 18:46:53.647
173, 1.72047, 0.304802, 226.94, -0.000976562, -0.000976562, -0.000976562, -0.0761719, 0.329102, -9.73242, 1.28.2022 18:46:53.655
174, 1.72047, 0.304802, 226.94, -0.000976562, -0.000976562, -0.000976562, -0.0107422, 0.313477, -9.71094, 1.28.2022 18:46:53.663
175, 1.72047, 0.304802, 226.94, 0, -0.000976562, -0.00195312, -0.0615234, 0.301758, -9.71973, 1.28.2022 18:46:53.671
176, 1.72047, 0.304802, 226.94, 0, 0, -0.00195312, -0.0634766, 0.322266, -9.68848, 1.28.2022 18:46:53.679
177, 1.72325, 0.298388, 226.94, -0.000976562, -0.000976562, -0.00195312, 0.00292969, 0.270508, -9.72656, 1.28.2022 18:46:53.687
178, 1.72325, 0.298388, 226.94, -0.000976562, -0.000976562, -0.000976562, -0.0800781, 0.293945, -9.70312, 1.28.2022 18:46:53.695
179, 1.72325, 0.298388, 226.94, -0.000976562, 0, -0.000976562, -0.0253906, 0.286133, -9.68555, 1.28.2022 18:46:53.703
180, 1.72325, 0.298388, 226.94, 0, -0.000976562, -0.000976562, -0.0107422, 0.258789, -9.70508, 1.28.2022 18:46:53.711
181, 1.72325, 0.298388, 226.94, -0.000976562, -0.000976562, -0.000976562, -0.0996094, 0.328125, -9.71777, 1.28.2022 18:46:53.719
182, 1.72325, 0.298388, 226.94, -0.000976562, -0.000976562, 0.000976562, 0, 0.292969, -9.73242, 1.28.2022 18:46:53.727
183, 1.72325, 0.298388, 226.94, 0.000976562, 0, 0.000976562, -0.0400391, 0.28125, -9.74609, 1.28.2022 18:46:53.735
184, 1.72325, 0.298388, 226.94, -0.000976562, 0, -0.000976562, -0.0537109, 0.325195, -9.70703, 1.28.2022 18:46:53.743
185, 1.72325, 0.298388, 226.94, -0.000976562, 0, -0.00195312, 0.0292969, 0.30957, -9.72559, 1.28.2022 18:46:53.751
186, 1.72325, 0.298388, 226.94, -0.00195312, 0, -0.000976562, -0.0898438, 0.291992, -9.71973, 1.28.2022 18:46:53.759
187, 1.72604, 0.291973, 226.94, -0.000976562, 0, -0.000976562, -0.0478516, 0.303711, -9.77148, 1.28.2022 18:46:53.767
188, 1.72604, 0.291973, 226.94, 0, -0.000976562, -0.000976562, -0.00390625, 0.277344, -9.68555, 1.28.2022 18:46:53.775
189, 1.72604, 0.291973, 226.94, -0.000976562, 0, 0, -0.0996094, 0.324219, -9.73926, 1.28.2022 18:46:53.783
190, 1.72604, 0.291973, 226.94, -0.000976562, 0, -0.000976562, -0.0234375, 0.285156, -9.7207, 1.28.2022 18:46:53.791
191, 1.72882, 0.285558, 226.941, -0.000976562, 0, -0.000976562, -0.0371094, 0.295898, -9.6748, 1.28.2022 18:46:53.799
192, 1.72882, 0.285558, 226.941, 0.000976562, 0, 0.000976562, -0.0976562, 0.3125, -9.74023, 1.28.2022 18:46:53.807
193, 1.72882, 0.285558, 226.941, -0.000976562, 0, 0, -0.00488281, 0.271484, -9.75391, 1.28.2022 18:46:53.815
194, 1.72882, 0.285558, 226.941, -0.000976562, 0, 0, -0.0849609, 0.296875, -9.70508, 1.28.2022 18:46:53.823
195, 1.72882, 0.285558, 226.941, -0.000976562, 0, 0, -0.0664062, 0.306641, -9.71191, 1.28.2022 18:46:53.831
196, 1.72882, 0.285558, 226.941, -0.000976562, 0, 0, -0.0400391, 0.270508, -9.70898, 1.28.2022 18:46:53.839
197, 1.73161, 0.279143, 226.941, -0.000976562, 0.000976562, 0, -0.104492, 0.299805, -9.74023, 1.28.2022 18:46:53.847
198, 1.73161, 0.279143, 226.941, -0.00195312, 0, 0, -0.0185547, 0.321289, -9.71777, 1.28.2022 18:46:53.855
199, 1.73161, 0.279143, 226.941, -0.000976562, 0, 0, -0.0234375, 0.258789, -9.71191, 1.28.2022 18:46:53.863
200, 1.73802, 0.281928, 226.941, -0.00195312, 0.000976562, 0, -0.0966797, 0.310547, -9.68359, 1.28.2022 18:46:53.871
201, 1.73802, 0.281928, 226.941, -0.00195312, 0, -0.000976562, -0.0136719, 0.270508, -9.7168, 1.28.2022 18:46:53.879
202, 1.73802, 0.281928, 226.941, -0.00195312, 0.000976562, -0.000976562, -0.0898438, 0.280273, -9.69824, 1.28.2022 18:46:53.887
203, 1.73802, 0.281928, 226.941, -0.000976562, -0.000976562, 0, -0.0585938, 0.279297, -9.68262, 1.28.2022 18:46:53.895
204, 1.73802, 0.281928, 226.941, -0.000976562, -0.000976562, 0, -0.0224609, 0.275391, -9.69727, 1.28.2022 18:46:53.903
205, 1.73802, 0.281928, 226.941, -0.000976562, 0, -0.000976562, -0.109375, 0.283203, -9.71973, 1.28.2022 18:46:53.911
206, 1.73802, 0.281928, 226.941, 0.000976562, -0.000976562, -0.000976562, -0.0302734, 0.293945, -9.6875, 1.28.2022 18:46:53.919
207, 1.73802, 0.281928, 226.941, -0.000976562, 0, 0, -0.0400391, 0.270508, -9.7207, 1.28.2022 18:46:53.927
208, 1.73802, 0.281928, 226.941, -0.000976562, 0, 0.000976562, -0.0820312, 0.308594, -9.69727, 1.28.2022 18:46:53.935
209, 1.73802, 0.281928, 226.941, 0, 0, 0, 0, 0.271484, -9.7334, 1.28.2022 18:46:53.943
210, 1.73802, 0.281928, 226.941, 0, 0, 0, -0.0878906, 0.28125, -9.72949, 1.28.2022 18:46:53.951
211, 1.72882, 0.285558, 226.941, 0, -0.000976562, 0, -0.0419922, 0.306641, -9.72656, 1.28.2022 18:46:53.959
212, 1.72882, 0.285558, 226.941, 0, 0, 0, -0.00878906, 0.282227, -9.71191, 1.28.2022 18:46:53.967
213, 1.72882, 0.285558, 226.941, -0.000976562, 0, 0.000976562, -0.140625, 0.302734, -9.73438, 1.28.2022 18:46:53.975
214, 1.72882, 0.285558, 226.941, -0.000976562, -0.000976562, 0, -0.0185547, 0.299805, -9.71582, 1.28.2022 18:46:53.983
215, 1.72882, 0.285558, 226.941, 0, 0, 0, -0.0371094, 0.287109, -9.70801, 1.28.2022 18:46:53.991
216, 1.72882, 0.285558, 226.941, 0, 0, -0.000976562, -0.0615234, 0.290039, -9.73438, 1.28.2022 18:46:53.999
217, 1.72882, 0.285558, 226.941, 0, -0.000976562, 0.000976562, -0.000976562, 0.295898, -9.69434, 1.28.2022 18:46:54.007
218, 1.72882, 0.285558, 226.941, 0, 0, -0.000976562, -0.0712891, 0.297852, -9.74512, 1.28.2022 18:46:54.015
219, 1.72604, 0.291973, 226.94, -0.000976562, 0, 0, -0.0634766, 0.328125, -9.72852, 1.28.2022 18:46:54.023
220, 1.72604, 0.291973, 226.94, 0, 0, 0, -0.00683594, 0.288086, -9.74219, 1.28.2022 18:46:54.031
221, 1.72604, 0.291973, 226.94, 0, 0, -0.000976562, -0.0966797, 0.298828, -9.69531, 1.28.2022 18:46:54.039
222, 1.72604, 0.291973, 226.94, 0, 0.000976562, 0, -0.0566406, 0.290039, -9.71289, 1.28.2022 18:46:54.047
223, 1.72604, 0.291973, 226.94, 0, 0, 0, -0.0712891, 0.280273, -9.71777, 1.28.2022 18:46:54.055
224, 1.72604, 0.291973, 226.94, 0, -0.000976562, 0, -0.0966797, 0.305664, -9.68066, 1.28.2022 18:46:54.063
225, 1.72604, 0.291973, 226.94, 0, -0.000976562, 0, 0, 0.27832, -9.72559, 1.28.2022 18:46:54.071
226, 1.72604, 0.291973, 226.94, -0.00195312, -0.000976562, 0, -0.0761719, 0.291016, -9.75488, 1.28.2022 18:46:54.079
227, 1.72604, 0.291973, 226.94, -0.000976562, -0.000976562, 0, -0.0615234, 0.322266, -9.74219, 1.28.2022 18:46:54.087
228, 1.72325, 0.298388, 226.94, 0, 0, 0, -0.00878906, 0.273438, -9.7168, 1.28.2022 18:46:54.095
229, 1.72325, 0.298388, 226.94, 0, 0, 0, -0.0859375, 0.310547, -9.76172, 1.28.2022 18:46:54.103
230, 1.72325, 0.298388, 226.94, -0.000976562, 0, -0.000976562, -0.0302734, 0.287109, -9.71289, 1.28.2022 18:46:54.111
231, 1.72325, 0.298388, 226.94, -0.000976562, 0.000976562, 0, -0.00878906, 0.291992, -9.7207, 1.28.2022 18:46:54.119
232, 1.72325, 0.298388, 226.94, 0, 0, 0, -0.0927734, 0.331055, -9.72266, 1.28.2022 18:46:54.127
233, 1.72325, 0.298388, 226.94, 0, 0, 0, -0.0117188, 0.294922, -9.71777, 1.28.2022 18:46:54.135
234, 1.72325, 0.298388, 226.94, 0, 0.000976562, 0, -0.0498047, 0.311523, -9.73633, 1.28.2022 18:46:54.143
235, 1.72325, 0.298388, 226.94, -0.000976562, -0.000976562, 0, -0.0566406, 0.306641, -9.71973, 1.28.2022 18:46:54.151
236, 1.72325, 0.298388, 226.94, 0, 0, 0.000976562, 0.0146484, 0.273438, -9.72852, 1.28.2022 18:46:54.159
237, 1.72325, 0.298388, 226.94, 0, -0.000976562, 0, -0.0947266, 0.301758, -9.72168, 1.28.2022 18:46:54.167
238, 1.72325, 0.298388, 226.94, 0, 0, 0.000976562, -0.046875, 0.290039, -9.72266, 1.28.2022 18:46:54.175
239, 1.72325, 0.298388, 226.94, -0.000976562, -0.00195312, 0.000976562, -0.0224609, 0.28125, -9.6709, 1.28.2022 18:46:54.183
240, 1.72325, 0.298388, 226.94, -0.000976562, 0, 0, -0.0996094, 0.292969, -9.75, 1.28.2022 18:46:54.191
241, 1.72325, 0.298388, 226.94, 0, -0.000976562, 0, -0.00195312, 0.3125, -9.75586, 1.28.2022 18:46:54.199
242, 1.72325, 0.298388, 226.94, 0, -0.000976562, 0, -0.0771484, 0.279297, -9.67773, 1.28.2022 18:46:54.207
243, 1.72325, 0.298388, 226.94, -0.000976562, -0.000976562, 0, -0.0761719, 0.299805, -9.72656, 1.28.2022 18:46:54.215
244, 1.72325, 0.298388, 226.94, -0.000976562, 0, 0, -0.0136719, 0.272461, -9.70898, 1.28.2022 18:46:54.223
245, 1.72325, 0.298388, 226.94, 0, 0.000976562, 0, -0.111328, 0.328125, -9.7207, 1.28.2022 18:46:54.231
246, 1.72325, 0.298388, 226.94, -0.000976562, 0, 0, -0.0498047, 0.296875, -9.71289, 1.28.2022 18:46:54.239
247, 1.72325, 0.298388, 226.94, -0.000976562, -0.000976562, 0, -0.0117188, 0.286133, -9.74219, 1.28.2022 18:46:54.247
248, 1.72967, 0.301173, 226.94, -0.000976562, 0.000976562, 0, -0.104492, 0.294922, -9.71191, 1.28.2022 18:46:54.255
249, 1.73245, 0.294758, 226.94, 0, 0, -0.000976562, 0, 0.286133, -9.74219, 1.28.2022 18:46:54.263
250, 1.73245, 0.294758, 226.94, 0, -0.000976562, 0, -0.0429688, 0.292969, -9.74609, 1.28.2022 18:46:54.269
251, 1.72967, 0.301173, 226.94, -0.000976562, 0, 0, -0.106445, 0.302734, -9.7334, 1.28.2022 18:46:54.277
252, 1.73245, 0.294758, 226.94, -0.000976562, 0, 0.000976562, -0.00195312, 0.291992, -9.70215, 1.28.2022 18:46:54.285
253, 1.73245, 0.294758, 226.94, -0.000976562, 0, -0.000976562, -0.0917969, 0.296875, -9.69043, 1.28.2022 18:46:54.295
254, 1.73245, 0.294758, 226.94, -0.000976562, 0, -0.000976562, -0.0439453, 0.319336, -9.66504, 1.28.2022 18:46:54.301
255, 1.73245, 0.294758, 226.94, -0.000976562, -0.000976562, -0.000976562, -0.0224609, 0.306641, -9.70312, 1.28.2022 18:46:54.309
256, 1.73245, 0.294758, 226.94, -0.000976562, 0, -0.000976562, -0.101562, 0.316406, -9.72559, 1.28.2022 18:46:54.317
257, 1.73245, 0.294758, 226.94, 0, -0.000976562, -0.00195312, -0.00390625, 0.290039, -9.72266, 1.28.2022 18:46:54.325
258, 1.73245, 0.294758, 226.94, 0, 0, -0.000976562, -0.0566406, 0.276367, -9.72754, 1.28.2022 18:46:54.333
259, 1.73245, 0.294758, 226.94, -0.000976562, 0, 0.000976562, -0.0546875, 0.31543, -9.75977, 1.28.2022 18:46:54.341
260, 1.73245, 0.294758, 226.94, 0, 0.000976562, -0.000976562, 0.00878906, 0.276367, -9.67383, 1.28.2022 18:46:54.349
261, 1.73245, 0.294758, 226.94, 0, 0, -0.000976562, -0.0976562, 0.307617, -9.74902, 1.28.2022 18:46:54.357
262, 1.73245, 0.294758, 226.94, 0, 0.000976562, -0.000976562, -0.078125, 0.291016, -9.73633, 1.28.2022 18:46:54.365
263, 1.73245, 0.294758, 226.94, -0.000976562, 0, -0.00195312, -0.0205078, 0.266602, -9.72363, 1.28.2022 18:46:54.373
264, 1.73886, 0.297544, 226.94, -0.000976562, 0, -0.000976562, -0.0957031, 0.305664, -9.74707, 1.28.2022 18:46:54.381
265, 1.73886, 0.297544, 226.94, -0.000976562, 0, -0.000976562, -0.0351562, 0.288086, -9.73242, 1.28.2022 18:46:54.389
266, 1.73886, 0.297544, 226.94, -0.000976562, 0, -0.000976562, -0.0351562, 0.266602, -9.72559, 1.28.2022 18:46:54.397
267, 1.73886, 0.297544, 226.94, -0.00195312, -0.000976562, -0.000976562, -0.0908203, 0.3125, -9.74512, 1.28.2022 18:46:54.405
268, 1.73886, 0.297544, 226.94, -0.000976562, 0, 0.000976562, -0.00585938, 0.303711, -9.70898, 1.28.2022 18:46:54.413
269, 1.73886, 0.297544, 226.94, 0, 0, 0.000976562, -0.0751953, 0.282227, -9.69434, 1.28.2022 18:46:54.421
270, 1.73886, 0.297544, 226.94, 0, 0, -0.000976562, -0.0546875, 0.316406, -9.72168, 1.28.2022 18:46:54.429
271, 1.73886, 0.297544, 226.94, -0.000976562, 0, -0.000976562, -0.0136719, 0.268555, -9.7373, 1.28.2022 18:46:54.437
272, 1.73886, 0.297544, 226.94, -0.000976562, 0, 0.000976562, -0.0996094, 0.273438, -9.70801, 1.28.2022 18:46:54.445
273, 1.73886, 0.297544, 226.94, -0.000976562, -0.000976562, -0.00195312, -0.0283203, 0.294922, -9.72949, 1.28.2022 18:46:54.453
274, 1.73886, 0.297544, 226.94, 0, -0.000976562, -0.000976562, -0.0664062, 0.299805, -9.73633, 1.28.2022 18:46:54.461
275, 1.73886, 0.297544, 226.94, 0, 0, 0.000976562, -0.0673828, 0.295898, -9.67676, 1.28.2022 18:46:54.469
276, 1.73886, 0.297544, 226.94, 0, 0.000976562, -0.000976562, -0.00195312, 0.294922, -9.71582, 1.28.2022 18:46:54.477
277, 1.73886, 0.297544, 226.94, 0, -0.000976562, -0.00195312, -0.078125, 0.310547, -9.75, 1.28.2022 18:46:54.485
278, 1.73886, 0.297544, 226.94, -0.000976562, -0.000976562, -0.00195312, -0.0605469, 0.297852, -9.67285, 1.28.2022 18:46:54.493
279, 1.73886, 0.297544, 226.94, 0, 0, -0.000976562, -0.0107422, 0.293945, -9.70605, 1.28.2022 18:46:54.501
280, 1.73886, 0.297544, 226.94, 0, 0, -0.00195312, -0.0878906, 0.314453, -9.72363, 1.28.2022 18:46:54.509
281, 1.73886, 0.297544, 226.94, 0, 0, -0.000976562, -0.0195312, 0.290039, -9.65234, 1.28.2022 18:46:54.517
282, 1.73886, 0.297544, 226.94, -0.000976562, 0, -0.000976562, -0.0322266, 0.301758, -9.71094, 1.28.2022 18:46:54.525
283, 1.73886, 0.297544, 226.94, -0.000976562, 0, -0.00195312, -0.104492, 0.283203, -9.7334, 1.28.2022 18:46:54.533
284, 1.73886, 0.297544, 226.94, 0.000976562, -0.000976562, -0.00195312, -0.00878906, 0.282227, -9.69043, 1.28.2022 18:46:54.541
285, 1.73886, 0.297544, 226.94, -0.000976562, 0, 0, -0.0605469, 0.286133, -9.67969, 1.28.2022 18:46:54.549
286, 1.73886, 0.297544, 226.94, -0.000976562, 0.000976562, 0, -0.0488281, 0.310547, -9.69824, 1.28.2022 18:46:54.557
287, 1.73886, 0.297544, 226.94, 0, 0, 0, -0.00683594, 0.270508, -9.71387, 1.28.2022 18:46:54.565
288, 1.73886, 0.297544, 226.94, 0, 0, 0, -0.132812, 0.288086, -9.73535, 1.28.2022 18:46:54.573
289, 1.73886, 0.297544, 226.94, 0, 0, 0, -0.0439453, 0.280273, -9.69922, 1.28.2022 18:46:54.581
290, 1.73245, 0.294758, 226.94, 0, 0, 0, -0.015625, 0.272461, -9.68066, 1.28.2022 18:46:54.589
291, 1.73245, 0.294758, 226.94, 0, -0.000976562, -0.00195312, -0.0644531, 0.276367, -9.74805, 1.28.2022 18:46:54.597
292, 1.72967, 0.301173, 226.94, 0, 0, -0.000976562, -0.0126953, 0.3125, -9.67285, 1.28.2022 18:46:54.605
293, 1.73245, 0.294758, 226.94, -0.000976562, 0, 0, -0.0615234, 0.299805, -9.72656, 1.28.2022 18:46:54.613
294, 1.73245, 0.294758, 226.94, 0, 0, 0, -0.0634766, 0.298828, -9.69336, 1.28.2022 18:46:54.621
295, 1.73245, 0.294758, 226.94, -0.000976562, 0, 0, -0.00390625, 0.264648, -9.67383, 1.28.2022 18:46:54.629
296, 1.73245, 0.294758, 226.94, -0.00195312, 0, 0, -0.109375, 0.298828, -9.75879, 1.28.2022 18:46:54.637
297, 1.73245, 0.294758, 226.94, 0, 0, 0, -0.0664062, 0.293945, -9.75977, 1.28.2022 18:46:54.645
298, 1.73245, 0.294758, 226.94, -0.000976562, 0.000976562, 0, -0.0136719, 0.282227, -9.69238, 1.28.2022 18:46:54.653
299, 1.73245, 0.294758, 226.94, -0.000976562, -0.000976562, 0.000976562, -0.0849609, 0.323242, -9.71191, 1.28.2022 18:46:54.661
300, 1.73245, 0.294758, 226.94, 0, -0.000976562, 0, -0.0126953, 0.274414, -9.77051, 1.28.2022 18:46:54.669
301, 1.72967, 0.301173, 226.94, -0.000976562, 0, 0, -0.0488281, 0.303711, -9.70996, 1.28.2022 18:46:54.677
302, 1.72967, 0.301173, 226.94, 0, 0, 0, -0.0898438, 0.314453, -9.7207, 1.28.2022 18:46:54.685
303, 1.72967, 0.301173, 226.94, -0.000976562, 0, 0.000976562, -0.00976562, 0.27832, -9.74219, 1.28.2022 18:46:54.693
304, 1.72967, 0.301173, 226.94, 0, -0.000976562, 0, -0.116211, 0.299805, -9.72363, 1.28.2022 18:46:54.701
305, 1.72967, 0.301173, 226.94, 0, 0, 0, -0.0419922, 0.313477, -9.70312, 1.28.2022 18:46:54.709
306, 1.72325, 0.298388, 226.94, 0, 0.000976562, -0.000976562, -0.0224609, 0.272461, -9.69727, 1.28.2022 18:46:54.717
307, 1.72325, 0.298388, 226.94, -0.000976562, 0.000976562, 0, -0.0869141, 0.276367, -9.6748, 1.28.2022 18:46:54.725
308, 1.72325, 0.298388, 226.94, -0.000976562, 0.00195312, 0.000976562, -0.0205078, 0.275391, -9.70898, 1.28.2022 18:46:54.733
309, 1.72604, 0.291973, 226.94, -0.000976562, 0, 0.000976562, -0.0371094, 0.274414, -9.68555, 1.28.2022 18:46:54.741
310, 1.72325, 0.298388, 226.94, -0.000976562, -0.000976562, 0, -0.0683594, 0.277344, -9.71094, 1.28.2022 18:46:54.749
311, 1.72325, 0.298388, 226.94, -0.000976562, -0.00195312, -0.00195312, -0.00195312, 0.265625, -9.72363, 1.28.2022 18:46:54.757
312, 1.72325, 0.298388, 226.94, -0.000976562, -0.00292969, 0.000976562, -0.0947266, 0.307617, -9.7334, 1.28.2022 18:46:54.765
313, 1.72325, 0.298388, 226.94, -0.000976562, -0.000976562, 0.000976562, -0.0654297, 0.289062, -9.70312, 1.28.2022 18:46:54.773
314, 1.72325, 0.298388, 226.94, 0, 0, -0.000976562, -0.0322266, 0.300781, -9.69141, 1.28.2022 18:46:54.781
315, 1.72325, 0.298388, 226.94, -0.000976562, 0.000976562, -0.000976562, -0.0908203, 0.307617, -9.75684, 1.28.2022 18:46:54.789
316, 1.72325, 0.298388, 226.94, 0, 0.000976562, 0.000976562, -0.00195312, 0.28125, -9.73535, 1.28.2022 18:46:54.797
317, 1.72325, 0.298388, 226.94, -0.000976562, 0, -0.000976562, -0.046875, 0.305664, -9.68652, 1.28.2022 18:46:54.805
318, 1.72325, 0.298388, 226.94, -0.000976562, 0.000976562, 0, -0.0820312, 0.295898, -9.68848, 1.28.2022 18:46:54.813
319, 1.72325, 0.298388, 226.94, 0, 0, -0.000976562, 0.0126953, 0.258789, -9.7334, 1.28.2022 18:46:54.821
320, 1.72325, 0.298388, 226.94, -0.000976562, -0.00195312, -0.000976562, -0.0947266, 0.299805, -9.71191, 1.28.2022 18:46:54.829
321, 1.72325, 0.298388, 226.94, -0.000976562, 0, -0.000976562, -0.0703125, 0.304688, -9.66504, 1.28.2022 18:46:54.837
322, 1.72325, 0.298388, 226.94, -0.000976562, 0, -0.000976562, -0.0332031, 0.263672, -9.72363, 1.28.2022 18:46:54.845
323, 1.72325, 0.298388, 226.94, -0.000976562, -0.00195312, -0.000976562, -0.121094, 0.316406, -9.71582, 1.28.2022 18:46:54.853
324, 1.72325, 0.298388, 226.94, 0, -0.00195312, -0.000976562, -0.0371094, 0.298828, -9.70801, 1.28.2022 18:46:54.861
325, 1.72325, 0.298388, 226.94, 0, -0.00195312, 0.000976562, -0.0498047, 0.280273, -9.71777, 1.28.2022 18:46:54.869
326, 1.72047, 0.304802, 226.94, 0, -0.00195312, -0.000976562, -0.0527344, 0.306641, -9.79004, 1.28.2022 18:46:54.877
327, 1.72047, 0.304802, 226.94, -0.000976562, 0, -0.000976562, 0.00585938, 0.293945, -9.70898, 1.28.2022 18:46:54.885
328, 1.72047, 0.304802, 226.94, -0.000976562, 0, -0.000976562, -0.0830078, 0.301758, -9.70312, 1.28.2022 18:46:54.893
329, 1.72047, 0.304802, 226.94, -0.000976562, 0.000976562, 0, -0.0693359, 0.298828, -9.75977, 1.28.2022 18:46:54.901
330, 1.72047, 0.304802, 226.94, 0, 0, -0.000976562, -0.0458984, 0.287109, -9.78125, 1.28.2022 18:46:54.909
331, 1.72047, 0.304802, 226.94, 0, 0.000976562, -0.00195312, -0.103516, 0.314453, -9.66406, 1.28.2022 18:46:54.917
332, 1.72047, 0.304802, 226.94, 0, -0.00195312, -0.000976562, -0.0224609, 0.300781, -9.6709, 1.28.2022 18:46:54.925
333, 1.72047, 0.304802, 226.94, 0, 0, -0.000976562, -0.0449219, 0.304688, -9.72949, 1.28.2022 18:46:54.933
334, 1.72047, 0.304802, 226.94, 0, -0.00195312, 0.000976562, -0.0878906, 0.326172, -9.72754, 1.28.2022 18:46:54.941
335, 1.72047, 0.304802, 226.94, -0.000976562, -0.00195312, 0.000976562, 0.0146484, 0.265625, -9.72168, 1.28.2022 18:46:54.949
336, 1.72047, 0.304802, 226.94, -0.000976562, -0.000976562, -0.00195312, -0.0556641, 0.287109, -9.68945, 1.28.2022 18:46:54.957
337, 1.72047, 0.304802, 226.94, -0.000976562, -0.00195312, -0.000976562, -0.0429688, 0.291016, -9.74414, 1.28.2022 18:46:54.965
338, 1.72047, 0.304802, 226.94, 0, 0.000976562, -0.00195312, -0.0283203, 0.265625, -9.7168, 1.28.2022 18:46:54.973
339, 1.72047, 0.304802, 226.94, -0.000976562, 0, -0.000976562, -0.0751953, 0.322266, -9.69043, 1.28.2022 18:46:54.981
340, 1.72047, 0.304802, 226.94, -0.000976562, 0, -0.000976562, -0.046875, 0.288086, -9.72754, 1.28.2022 18:46:54.989
341, 1.72047, 0.304802, 226.94, -0.000976562, 0, -0.000976562, -0.0566406, 0.301758, -9.71289, 1.28.2022 18:46:54.997
342, 1.72047, 0.304802, 226.94, -0.000976562, 0, -0.00195312, -0.0986328, 0.294922, -9.63867, 1.28.2022 18:46:55.005
343, 1.72047, 0.304802, 226.94, -0.000976562, -0.00195312, -0.000976562, -0.0205078, 0.275391, -9.71191, 1.28.2022 18:46:55.013
344, 1.72688, 0.307588, 226.94, -0.000976562, 0, -0.000976562, -0.0683594, 0.273438, -9.71777, 1.28.2022 18:46:55.021
345, 1.72688, 0.307588, 226.94, -0.000976562, 0, -0.000976562, -0.0517578, 0.296875, -9.70801, 1.28.2022 18:46:55.029
346, 1.72688, 0.307588, 226.94, -0.000976562, 0, -0.000976562, -0.00488281, 0.270508, -9.78027, 1.28.2022 18:46:55.037
347, 1.72688, 0.307588, 226.94, -0.000976562, 0, -0.00195312, -0.0927734, 0.290039, -9.71484, 1.28.2022 18:46:55.045
348, 1.72688, 0.307588, 226.94, -0.000976562, 0, -0.00195312, -0.0292969, 0.302734, -9.67773, 1.28.2022 18:46:55.053
349, 1.72688, 0.307588, 226.94, -0.000976562, 0, 0, -0.0263672, 0.283203, -9.74902, 1.28.2022 18:46:55.061
350, 1.72688, 0.307588, 226.94, 0, 0, 0, -0.0947266, 0.323242, -9.71387, 1.28.2022 18:46:55.069
351, 1.72688, 0.307588, 226.94, 0, 0, 0.000976562, -0.0205078, 0.285156, -9.71387, 1.28.2022 18:46:55.077
352, 1.72688, 0.307588, 226.94, 0, -0.00195312, 0, -0.0917969, 0.289062, -9.7002, 1.28.2022 18:46:55.085
353, 1.72688, 0.307588, 226.94, -0.000976562, 0, 0, -0.0449219, 0.30957, -9.7334, 1.28.2022 18:46:55.093
354, 1.72688, 0.307588, 226.94, -0.000976562, 0, -0.000976562, 0.00195312, 0.286133, -9.76367, 1.28.2022 18:46:55.101
355, 1.72688, 0.307588, 226.94, 0, -0.000976562, 0, -0.105469, 0.286133, -9.75977, 1.28.2022 18:46:55.109
356, 1.72688, 0.307588, 226.94, -0.000976562, -0.000976562, 0, -0.0351562, 0.296875, -9.71777, 1.28.2022 18:46:55.117
357, 1.72688, 0.307588, 226.94, -0.000976562, 0, -0.000976562, -0.0537109, 0.285156, -9.71094, 1.28.2022 18:46:55.125
358, 1.72688, 0.307588, 226.94, 0, 0, -0.000976562, -0.102539, 0.295898, -9.74512, 1.28.2022 18:46:55.133
359, 1.72688, 0.307588, 226.94, 0, 0, 0, -0.00585938, 0.257812, -9.69824, 1.28.2022 18:46:55.141
360, 1.72688, 0.307588, 226.94, -0.000976562, 0, 0, -0.0654297, 0.28418, -9.68262, 1.28.2022 18:46:55.149
361, 1.72688, 0.307588, 226.94, -0.000976562, -0.000976562, 0, -0.0917969, 0.316406, -9.71387, 1.28.2022 18:46:55.157
362, 1.72688, 0.307588, 226.94, 0, 0, 0.000976562, -0.0302734, 0.292969, -9.72461, 1.28.2022 18:46:55.165
363, 1.72688, 0.307588, 226.94, -0.000976562, -0.000976562, 0, -0.0898438, 0.330078, -9.71094, 1.28.2022 18:46:55.173
364, 1.72688, 0.307588, 226.94, 0, -0.000976562, 0.000976562, -0.0488281, 0.291016, -9.67285, 1.28.2022 18:46:55.181
365, 1.72688, 0.307588, 226.94, 0, -0.000976562, 0, -0.0449219, 0.285156, -9.70605, 1.28.2022 18:46:55.189
366, 1.7241, 0.314003, 226.94, -0.000976562, -0.000976562, 0, -0.0917969, 0.264648, -9.68457, 1.28.2022 18:46:55.197
367, 1.7241, 0.314003, 226.94, -0.000976562, 0, 0, 0.0107422, 0.28418, -9.69727, 1.28.2022 18:46:55.205
368, 1.7241, 0.314003, 226.94, 0, -0.000976562, 0, -0.0712891, 0.304688, -9.74023, 1.28.2022 18:46:55.213
369, 1.7241, 0.314003, 226.94, -0.000976562, 0.000976562, 0, -0.0683594, 0.324219, -9.74023, 1.28.2022 18:46:55.221
370, 1.7241, 0.314003, 226.94, -0.000976562, 0.000976562, 0, 0.0078125, 0.288086, -9.74023, 1.28.2022 18:46:55.229
371, 1.7241, 0.314003, 226.94, -0.00195312, 0, 0, -0.0917969, 0.295898, -9.68848, 1.28.2022 18:46:55.237
372, 1.7241, 0.314003, 226.94, -0.00195312, 0, 0, -0.0283203, 0.306641, -9.71289, 1.28.2022 18:46:55.243
373, 1.7241, 0.314003, 226.94, 0, 0, 0, -0.0273438, 0.272461, -9.6875, 1.28.2022 18:46:55.251
374, 1.7241, 0.314003, 226.94, 0, 0.000976562, 0, -0.0898438, 0.327148, -9.6875, 1.28.2022 18:46:55.259
375, 1.72688, 0.307588, 226.94, -0.000976562, 0, 0.000976562, -0.0351562, 0.280273, -9.72949, 1.28.2022 18:46:55.267
376, 1.72688, 0.307588, 226.94, 0, 0, -0.000976562, -0.0488281, 0.300781, -9.66992, 1.28.2022 18:46:55.275
377, 1.72688, 0.307588, 226.94, -0.000976562, -0.000976562, 0, -0.0712891, 0.306641, -9.71484, 1.28.2022 18:46:55.283
378, 1.72688, 0.307588, 226.94, -0.000976562, 0, 0, -0.00976562, 0.266602, -9.75, 1.28.2022 18:46:55.291
379, 1.72688, 0.307588, 226.94, 0, 0.000976562, 0.000976562, -0.0830078, 0.285156, -9.72461, 1.28.2022 18:46:55.299
380, 1.72688, 0.307588, 226.94, -0.000976562, 0, 0.000976562, -0.0556641, 0.286133, -9.68262, 1.28.2022 18:46:55.307
381, 1.72688, 0.307588, 226.94, -0.000976562, -0.00195312, -0.000976562, -0.0517578, 0.294922, -9.73633, 1.28.2022 18:46:55.315
382, 1.72688, 0.307588, 226.94, -0.000976562, 0, -0.000976562, -0.102539, 0.329102, -9.73242, 1.28.2022 18:46:55.323
383, 1.72688, 0.307588, 226.94, 0, 0, -0.00195312, -0.00390625, 0.279297, -9.7002, 1.28.2022 18:46:55.331
384, 1.72688, 0.307588, 226.94, 0, -0.000976562, -0.00195312, -0.0351562, 0.258789, -9.7207, 1.28.2022 18:46:55.339
385, 1.72688, 0.307588, 226.94, -0.000976562, 0, -0.00195312, -0.0556641, 0.289062, -9.68945, 1.28.2022 18:46:55.347
386, 1.72688, 0.307588, 226.94, 0, 0, -0.00195312, -0.0185547, 0.270508, -9.70215, 1.28.2022 18:46:55.355
387, 1.72688, 0.307588, 226.94, -0.000976562, 0, -0.00195312, -0.0996094, 0.30957, -9.7168, 1.28.2022 18:46:55.363
388, 1.72688, 0.307588, 226.94, -0.000976562, 0, -0.000976562, -0.046875, 0.291992, -9.70117, 1.28.2022 18:46:55.371
389, 1.72688, 0.307588, 226.94, -0.000976562, 0, -0.000976562, 0.0117188, 0.297852, -9.73926, 1.28.2022 18:46:55.379
390, 1.72688, 0.307588, 226.94, -0.000976562, 0, -0.000976562, -0.121094, 0.30957, -9.73047, 1.28.2022 18:46:55.387
391, 1.72688, 0.307588, 226.94, -0.000976562, 0, -0.000976562, -0.00878906, 0.291992, -9.72266, 1.28.2022 18:46:55.395
392, 1.72688, 0.307588, 226.94, -0.000976562, 0, -0.000976562, -0.0205078, 0.268555, -9.7207, 1.28.2022 18:46:55.403
393, 1.72688, 0.307588, 226.94, -0.000976562, 0, -0.000976562, -0.110352, 0.313477, -9.77734, 1.28.2022 18:46:55.411
394, 1.72688, 0.307588, 226.94, 0, -0.000976562, -0.000976562, -0.0146484, 0.291992, -9.77441, 1.28.2022 18:46:55.419
395, 1.72688, 0.307588, 226.94, -0.000976562, 0, -0.000976562, -0.0654297, 0.291992, -9.69141, 1.28.2022 18:46:55.427
396, 1.72688, 0.307588, 226.94, -0.000976562, -0.000976562, -0.000976562, -0.0683594, 0.3125, -9.73535, 1.28.2022 18:46:55.435
397, 1.72688, 0.307588, 226.94, -0.000976562, 0, 0.000976562, -0.0351562, 0.263672, -9.71387, 1.28.2022 18:46:55.443
398, 1.72688, 0.307588, 226.94, -0.000976562, 0, 0.000976562, -0.101562, 0.316406, -9.71582, 1.28.2022 18:46:55.451
399, 1.72688, 0.307588, 226.94, 0, 0, -0.000976562, -0.0107422, 0.292969, -9.67578, 1.28.2022 18:46:55.459
400, 1.72688, 0.307588, 226.94, -0.000976562, 0.000976562, -0.000976562, -0.0546875, 0.280273, -9.72461, 1.28.2022 18:46:55.467
401, 1.72967, 0.301173, 226.94, -0.00195312, 0.000976562, 0.000976562, -0.0917969, 0.292969, -9.66992, 1.28.2022 18:46:55.475
402, 1.72967, 0.301173, 226.94, -0.000976562, 0, -0.000976562, -0.0273438, 0.279297, -9.6875, 1.28.2022 18:46:55.483
403, 1.72967, 0.301173, 226.94, 0, 0, -0.000976562, -0.0761719, 0.297852, -9.75684, 1.28.2022 18:46:55.491
404, 1.72967, 0.301173, 226.94, 0, -0.000976562, -0.00195312, -0.0615234, 0.294922, -9.7334, 1.28.2022 18:46:55.499
405, 1.72967, 0.301173, 226.94, 0, 0, 0.000976562, -0.0146484, 0.317383, -9.75781, 1.28.2022 18:46:55.507
406, 1.72967, 0.301173, 226.94, -0.000976562, 0.000976562, 0.000976562, -0.106445, 0.293945, -9.7002, 1.28.2022 18:46:55.515
407, 1.72967, 0.301173, 226.94, -0.000976562, 0, -0.000976562, -0.0273438, 0.306641, -9.70801, 1.28.2022 18:46:55.523
408, 1.72967, 0.301173, 226.94, 0, -0.000976562, -0.000976562, -0.0419922, 0.289062, -9.69141, 1.28.2022 18:46:55.531
409, 1.72688, 0.307588, 226.94, 0, -0.000976562, -0.000976562, -0.0859375, 0.324219, -9.74707, 1.28.2022 18:46:55.539
410, 1.72688, 0.307588, 226.94, -0.000976562, 0, -0.000976562, -0.0263672, 0.28125, -9.73438, 1.28.2022 18:46:55.547
411, 1.72688, 0.307588, 226.94, -0.000976562, -0.000976562, -0.000976562, -0.0654297, 0.298828, -9.70508, 1.28.2022 18:46:55.555
412, 1.72688, 0.307588, 226.94, -0.00195312, 0, -0.000976562, -0.0771484, 0.3125, -9.67383, 1.28.2022 18:46:55.563
413, 1.72688, 0.307588, 226.94, -0.000976562, 0, 0, -0.0351562, 0.273438, -9.71582, 1.28.2022 18:46:55.571
414, 1.72688, 0.307588, 226.94, 0, 0, 0, -0.104492, 0.321289, -9.73242, 1.28.2022 18:46:55.579
415, 1.72688, 0.307588, 226.94, -0.000976562, 0, -0.00195312, -0.0537109, 0.305664, -9.69824, 1.28.2022 18:46:55.587
416, 1.72688, 0.307588, 226.94, -0.000976562, 0, -0.00195312, -0.0380859, 0.291016, -9.74609, 1.28.2022 18:46:55.595
417, 1.73329, 0.310373, 226.94, -0.000976562, 0, -0.00195312, -0.110352, 0.310547, -9.67383, 1.28.2022 18:46:55.603
418, 1.73329, 0.310373, 226.94, -0.000976562, -0.000976562, -0.00195312, -0.0400391, 0.268555, -9.72754, 1.28.2022 18:46:55.611
419, 1.73329, 0.310373, 226.94, 0, 0, 0, -0.0751953, 0.285156, -9.70312, 1.28.2022 18:46:55.619
420, 1.73329, 0.310373, 226.94, 0, 0, 0, -0.0615234, 0.304688, -9.73145, 1.28.2022 18:46:55.627
421, 1.73329, 0.310373, 226.94, -0.000976562, 0.000976562, 0.000976562, -0.0166016, 0.3125, -9.75293, 1.28.2022 18:46:55.635
422, 1.73329, 0.310373, 226.94, -0.000976562, 0.000976562, 0, -0.104492, 0.314453, -9.73047, 1.28.2022 18:46:55.643
423, 1.73329, 0.310373, 226.94, -0.000976562, 0, 0, -0.0166016, 0.287109, -9.7207, 1.28.2022 18:46:55.651
424, 1.73329, 0.310373, 226.94, -0.000976562, 0, 0, -0.0380859, 0.304688, -9.72461, 1.28.2022 18:46:55.659
425, 1.7397, 0.313159, 226.94, -0.000976562, -0.000976562, 0, -0.0849609, 0.304688, -9.71875, 1.28.2022 18:46:55.667
426, 1.73692, 0.319574, 226.94, 0, 0, 0, 0.00585938, 0.303711, -9.68945, 1.28.2022 18:46:55.675
427, 1.73692, 0.319574, 226.94, 0, -0.000976562, -0.000976562, -0.0673828, 0.293945, -9.76953, 1.28.2022 18:46:55.683
428, 1.73692, 0.319574, 226.94, 0, 0, 0, -0.0625, 0.336914, -9.76074, 1.28.2022 18:46:55.691
429, 1.73692, 0.319574, 226.94, 0, 0, 0, 0.0126953, 0.270508, -9.70508, 1.28.2022 18:46:55.699
430, 1.73692, 0.319574, 226.94, 0, 0, 0.000976562, -0.0947266, 0.316406, -9.7041, 1.28.2022 18:46:55.707
431, 1.73692, 0.319574, 226.94, 0, 0.000976562, 0, -0.0292969, 0.3125, -9.66113, 1.28.2022 18:46:55.715
432, 1.73692, 0.319574, 226.94, -0.000976562, 0.000976562, 0, -0.03125, 0.297852, -9.64648, 1.28.2022 18:46:55.723
433, 1.7397, 0.313159, 226.94, -0.000976562, 0.000976562, 0, -0.0996094, 0.292969, -9.72363, 1.28.2022 18:46:55.731
434, 1.7397, 0.313159, 226.94, -0.000976562, 0, -0.00195312, 0.00976562, 0.283203, -9.7334, 1.28.2022 18:46:55.739
435, 1.74612, 0.315944, 226.94, 0, 0, 0, -0.0800781, 0.280273, -9.69629, 1.28.2022 18:46:55.747
436, 1.74612, 0.315944, 226.94, -0.000976562, 0, -0.00195312, -0.0732422, 0.316406, -9.71875, 1.28.2022 18:46:55.755
437, 1.74612, 0.315944, 226.94, -0.000976562, 0, 0, -0.0214844, 0.280273, -9.73047, 1.28.2022 18:46:55.763
438, 1.74612, 0.315944, 226.94, -0.000976562, -0.000976562, 0, -0.113281, 0.296875, -9.71387, 1.28.2022 18:46:55.771
439, 1.74612, 0.315944, 226.94, -0.000976562, 0, 0, -0.0439453, 0.333008, -9.70508, 1.28.2022 18:46:55.779
440, 1.74612, 0.315944, 226.94, 0, 0.000976562, 0, -0.0234375, 0.286133, -9.74902, 1.28.2022 18:46:55.787
441, 1.74612, 0.315944, 226.94, -0.000976562, 0, 0, -0.109375, 0.280273, -9.72363, 1.28.2022 18:46:55.795
442, 1.74612, 0.315944, 226.94, -0.000976562, 0, 0, 0.0244141, 0.294922, -9.71387, 1.28.2022 18:46:55.803
443, 1.74612, 0.315944, 226.94, -0.000976562, 0, 0, -0.0429688, 0.283203, -9.74121, 1.28.2022 18:46:55.811
444, 1.74612, 0.315944, 226.94, -0.000976562, -0.000976562, -0.00195312, -0.0664062, 0.304688, -9.73633, 1.28.2022 18:46:55.819
445, 1.74612, 0.315944, 226.94, -0.000976562, -0.000976562, 0, 0.0214844, 0.283203, -9.74219, 1.28.2022 18:46:55.827
446, 1.7489, 0.309529, 226.94, -0.000976562, -0.00195312, 0, -0.0878906, 0.292969, -9.7334, 1.28.2022 18:46:55.835
447, 1.7489, 0.309529, 226.94, 0, -0.00195312, 0, -0.0634766, 0.291992, -9.70117, 1.28.2022 18:46:55.843
448, 1.7489, 0.309529, 226.94, -0.000976562, -0.00195312, 0.000976562, -0.0566406, 0.263672, -9.73242, 1.28.2022 18:46:55.851
449, 1.7489, 0.309529, 226.94, 0, -0.000976562, 0, -0.0927734, 0.328125, -9.72266, 1.28.2022 18:46:55.859
450, 1.7489, 0.309529, 226.94, -0.000976562, -0.000976562, 0.000976562, -0.00976562, 0.295898, -9.77051, 1.28.2022 18:46:55.867
451, 1.7489, 0.309529, 226.94, 0, -0.000976562, 0, -0.0585938, 0.290039, -9.72266, 1.28.2022 18:46:55.875
452, 1.7489, 0.309529, 226.94, -0.000976562, -0.000976562, -0.000976562, -0.0566406, 0.304688, -9.72656, 1.28.2022 18:46:55.883
453, 1.7489, 0.309529, 226.94, -0.000976562, -0.000976562, 0, 0.0078125, 0.305664, -9.69922, 1.28.2022 18:46:55.891
454, 1.7489, 0.309529, 226.94, -0.00195312, 0.000976562, 0, -0.0771484, 0.28418, -9.68164, 1.28.2022 18:46:55.899
455, 1.7489, 0.309529, 226.94, 0, -0.000976562, 0.000976562, -0.0517578, 0.296875, -9.70117, 1.28.2022 18:46:55.907
456, 1.7489, 0.309529, 226.94, 0, -0.000976562, 0, -0.00878906, 0.280273, -9.71387, 1.28.2022 18:46:55.915
457, 1.7489, 0.309529, 226.94, 0, -0.000976562, -0.000976562, -0.0898438, 0.290039, -9.7334, 1.28.2022 18:46:55.923
458, 1.7489, 0.309529, 226.94, -0.000976562, -0.000976562, 0, 0.00683594, 0.288086, -9.74414, 1.28.2022 18:46:55.931
459, 1.7489, 0.309529, 226.94, 0, 0.000976562, 0, -0.0263672, 0.28125, -9.74414, 1.28.2022 18:46:55.939
460, 1.74527, 0.300329, 226.941, -0.000976562, -0.000976562, 0, -0.0859375, 0.293945, -9.77832, 1.28.2022 18:46:55.947
461, 1.74527, 0.300329, 226.941, 0, -0.00195312, 0.000976562, -0.0136719, 0.294922, -9.7373, 1.28.2022 18:46:55.955
462, 1.74527, 0.300329, 226.941, -0.00195312, -0.000976562, 0, -0.0712891, 0.328125, -9.72852, 1.28.2022 18:46:55.963
463, 1.74527, 0.300329, 226.941, -0.000976562, -0.000976562, 0.000976562, -0.0546875, 0.304688, -9.72168, 1.28.2022 18:46:55.971
464, 1.74527, 0.300329, 226.941, -0.000976562, -0.00195312, -0.000976562, -0.0478516, 0.291016, -9.74609, 1.28.2022 18:46:55.979
465, 1.74527, 0.300329, 226.941, -0.000976562, -0.00195312, 0, -0.101562, 0.314453, -9.7207, 1.28.2022 18:46:55.987
466, 1.74527, 0.300329, 226.941, -0.000976562, -0.000976562, 0, 0.015625, 0.322266, -9.68457, 1.28.2022 18:46:55.995
467, 1.74527, 0.300329, 226.941, -0.000976562, -0.000976562, -0.000976562, -0.0683594, 0.304688, -9.72363, 1.28.2022 18:46:56.003
468, 1.74527, 0.300329, 226.941, -0.00195312, -0.000976562, 0, -0.0849609, 0.314453, -9.7334, 1.28.2022 18:46:56.011
469, 1.74527, 0.300329, 226.941, -0.000976562, -0.000976562, 0, -0.00878906, 0.265625, -9.71875, 1.28.2022 18:46:56.019
470, 1.74806, 0.293914, 226.941, 0, -0.000976562, 0, -0.0742188, 0.300781, -9.74805, 1.28.2022 18:46:56.027
471, 1.74806, 0.293914, 226.941, 0, -0.000976562, 0, -0.0537109, 0.296875, -9.70996, 1.28.2022 18:46:56.035
472, 1.74806, 0.293914, 226.941, 0, -0.00195312, 0, -0.0253906, 0.285156, -9.71387, 1.28.2022 18:46:56.043
473, 1.74806, 0.293914, 226.941, -0.00195312, -0.00195312, 0, -0.0830078, 0.297852, -9.74023, 1.28.2022 18:46:56.051
474, 1.74806, 0.293914, 226.941, -0.000976562, -0.000976562, 0, -0.0195312, 0.262695, -9.77344, 1.28.2022 18:46:56.059
475, 1.74806, 0.293914, 226.941, -0.000976562, -0.00195312, 0, -0.0498047, 0.283203, -9.72949, 1.28.2022 18:46:56.067
476, 1.74806, 0.293914, 226.941, -0.000976562, -0.000976562, -0.000976562, -0.0703125, 0.323242, -9.70215, 1.28.2022 18:46:56.075
477, 1.74806, 0.293914, 226.941, -0.000976562, -0.000976562, -0.000976562, 0.0146484, 0.288086, -9.73535, 1.28.2022 18:46:56.083
478, 1.74806, 0.293914, 226.941, -0.000976562, 0, -0.00195312, -0.103516, 0.306641, -9.79395, 1.28.2022 18:46:56.091
479, 1.74806, 0.293914, 226.941, 0, 0, 0.000976562, -0.0488281, 0.328125, -9.71191, 1.28.2022 18:46:56.099
480, 1.74806, 0.293914, 226.941, -0.000976562, 0, 0, -0.046875, 0.270508, -9.71094, 1.28.2022 18:46:56.107
481, 1.74806, 0.293914, 226.941, -0.000976562, 0, 0, -0.111328, 0.288086, -9.72168, 1.28.2022 18:46:56.115
482, 1.74806, 0.293914, 226.941, -0.000976562, 0, 0, -0.0302734, 0.290039, -9.72754, 1.28.2022 18:46:56.123
483, 1.74806, 0.293914, 226.941, -0.000976562, -0.000976562, -0.000976562, -0.0566406, 0.28125, -9.74414, 1.28.2022 18:46:56.131
484, 1.74806, 0.293914, 226.941, 0, 0, -0.000976562, -0.118164, 0.323242, -9.71582, 1.28.2022 18:46:56.139
485, 1.74806, 0.293914, 226.941, 0, -0.000976562, -0.000976562, -0.0166016, 0.30957, -9.73145, 1.28.2022 18:46:56.147
486, 1.74806, 0.293914, 226.941, 0, 0, -0.000976562, -0.078125, 0.288086, -9.74121, 1.28.2022 18:46:56.155
487, 1.74806, 0.293914, 226.941, 0, 0, -0.000976562, -0.0576172, 0.297852, -9.75, 1.28.2022 18:46:56.163
488, 1.74806, 0.293914, 226.941, 0.000976562, 0, -0.000976562, -0.0136719, 0.260742, -9.70508, 1.28.2022 18:46:56.171
489, 1.74527, 0.300329, 226.941, 0, 0, -0.000976562, -0.118164, 0.321289, -9.71582, 1.28.2022 18:46:56.179
490, 1.74527, 0.300329, 226.941, 0, 0, -0.000976562, -0.046875, 0.28418, -9.69922, 1.28.2022 18:46:56.187
491, 1.74527, 0.300329, 226.941, -0.000976562, 0, 0, -0.0449219, 0.292969, -9.73145, 1.28.2022 18:46:56.195
492, 1.74527, 0.300329, 226.941, -0.000976562, 0.000976562, -0.00195312, -0.104492, 0.311523, -9.71191, 1.28.2022 18:46:56.203
493, 1.74527, 0.300329, 226.941, -0.000976562, 0.000976562, 0, 0.0126953, 0.294922, -9.73242, 1.28.2022 18:46:56.211
494, 1.74527, 0.300329, 226.941, -0.000976562, 0, 0, -0.0429688, 0.27832, -9.73242, 1.28.2022 18:46:56.217
495, 1.74527, 0.300329, 226.941, -0.000976562, -0.000976562, 0.000976562, -0.0429688, 0.316406, -9.73828, 1.28.2022 18:46:56.225
496, 1.74527, 0.300329, 226.941, -0.000976562, -0.000976562, -0.000976562, -0.0351562, 0.265625, -9.70898, 1.28.2022 18:46:56.233
497, 1.74527, 0.300329, 226.941, -0.00195312, 0, 0.000976562, -0.111328, 0.301758, -9.71387, 1.28.2022 18:46:56.241
498, 1.74249, 0.306744, 226.94, -0.000976562, -0.000976562, -0.00195312, -0.0185547, 0.294922, -9.7207, 1.28.2022 18:46:56.249
499, 1.74249, 0.306744, 226.94, 0, -0.000976562, -0.000976562, -0.0126953, 0.285156, -9.79395, 1.28.2022 18:46:56.257
500, 1.74249, 0.306744, 226.94, -0.000976562, -0.000976562, -0.000976562, -0.0849609, 0.305664, -9.69531, 1.28.2022 18:46:56.265
501, 1.74249, 0.306744, 226.94, -0.000976562, -0.000976562, -0.000976562, 0.0107422, 0.274414, -9.66992, 1.28.2022 18:46:56.273
502, 1.74249, 0.306744, 226.94, -0.00195312, 0, 0, -0.0566406, 0.304688, -9.72656, 1.28.2022 18:46:56.281
503, 1.74249, 0.306744, 226.94, -0.000976562, 0, 0, -0.0556641, 0.300781, -9.6748, 1.28.2022 18:46:56.289
504, 1.74249, 0.306744, 226.94, -0.000976562, 0, -0.00195312, -0.00683594, 0.283203, -9.73242, 1.28.2022 18:46:56.297
505, 1.74249, 0.306744, 226.94, 0, -0.000976562, -0.000976562, -0.0888672, 0.294922, -9.79004, 1.28.2022 18:46:56.305
506, 1.74249, 0.306744, 226.94, -0.000976562, 0, 0.000976562, -0.0283203, 0.301758, -9.71094, 1.28.2022 18:46:56.313
507, 1.74249, 0.306744, 226.94, 0.000976562, -0.000976562, -0.000976562, -0.0253906, 0.271484, -9.72754, 1.28.2022 18:46:56.321
508, 1.74249, 0.306744, 226.94, 0, -0.000976562, -0.000976562, -0.0986328, 0.332031, -9.68945, 1.28.2022 18:46:56.329
509, 1.73608, 0.303959, 226.94, 0, -0.000976562, -0.000976562, 0.00292969, 0.298828, -9.70898, 1.28.2022 18:46:56.337
510, 1.73608, 0.303959, 226.94, 0, -0.000976562, 0.000976562, -0.0712891, 0.286133, -9.74805, 1.28.2022 18:46:56.345
511, 1.73608, 0.303959, 226.94, 0, 0, 0, -0.0722656, 0.279297, -9.67285, 1.28.2022 18:46:56.353
512, 1.73608, 0.303959, 226.94, 0, 0, -0.00195312, -0.0458984, 0.293945, -9.7627, 1.28.2022 18:46:56.361
513, 1.73608, 0.303959, 226.94, -0.000976562, 0, 0, -0.102539, 0.27832, -9.74121, 1.28.2022 18:46:56.369
514, 1.73608, 0.303959, 226.94, 0, 0, -0.00195312, -0.0517578, 0.299805, -9.72461, 1.28.2022 18:46:56.377
515, 1.73608, 0.303959, 226.94, -0.000976562, 0, 0, -0.0371094, 0.306641, -9.71484, 1.28.2022 18:46:56.385
516, 1.73608, 0.303959, 226.94, 0, -0.000976562, -0.000976562, -0.0791016, 0.327148, -9.76074, 1.28.2022 18:46:56.393
517, 1.73608, 0.303959, 226.94, 0, 0, 0, 0, 0.292969, -9.75098, 1.28.2022 18:46:56.401
518, 1.73608, 0.303959, 226.94, -0.000976562, 0, 0, -0.0429688, 0.294922, -9.73438, 1.28.2022 18:46:56.409
519, 1.73608, 0.303959, 226.94, -0.000976562, 0, 0, -0.0537109, 0.313477, -9.69336, 1.28.2022 18:46:56.417
520, 1.73608, 0.303959, 226.94, -0.000976562, 0, 0, -0.00878906, 0.269531, -9.68848, 1.28.2022 18:46:56.425
521, 1.73608, 0.303959, 226.94, -0.000976562, -0.000976562, -0.000976562, -0.0849609, 0.316406, -9.73242, 1.28.2022 18:46:56.433
522, 1.73608, 0.303959, 226.94, -0.000976562, 0, 0, -0.0429688, 0.307617, -9.75293, 1.28.2022 18:46:56.441
523, 1.73886, 0.297544, 226.94, -0.000976562, 0, -0.00195312, -0.0205078, 0.282227, -9.71094, 1.28.2022 18:46:56.449
524, 1.73886, 0.297544, 226.94, -0.000976562, -0.000976562, -0.000976562, -0.0947266, 0.299805, -9.71191, 1.28.2022 18:46:56.457
525, 1.73886, 0.297544, 226.94, -0.000976562, 0, 0, -0.0351562, 0.27832, -9.7207, 1.28.2022 18:46:56.465
526, 1.73886, 0.297544, 226.94, 0, -0.000976562, 0.000976562, -0.0371094, 0.277344, -9.69727, 1.28.2022 18:46:56.473
527, 1.73886, 0.297544, 226.94, 0, -0.000976562, 0.000976562, -0.0751953, 0.31543, -9.68848, 1.28.2022 18:46:56.481
528, 1.73886, 0.297544, 226.94, -0.000976562, 0, 0.000976562, -0.0205078, 0.268555, -9.72363, 1.28.2022 18:46:56.489
529, 1.73886, 0.297544, 226.94, -0.000976562, 0, 0, -0.104492, 0.290039, -9.70215, 1.28.2022 18:46:56.497
530, 1.73886, 0.297544, 226.94, -0.000976562, 0, 0, -0.0634766, 0.292969, -9.72168, 1.28.2022 18:46:56.505
531, 1.73886, 0.297544, 226.94, 0, 0, 0, 0.00292969, 0.288086, -9.74414, 1.28.2022 18:46:56.513
532, 1.73886, 0.297544, 226.94, 0, 0, -0.00195312, -0.0830078, 0.299805, -9.74023, 1.28.2022 18:46:56.521
533, 1.73886, 0.297544, 226.94, 0, 0, 0, -0.00878906, 0.296875, -9.72559, 1.28.2022 18:46:56.529
534, 1.73886, 0.297544, 226.94, 0, 0, 0, -0.0498047, 0.288086, -9.74414, 1.28.2022 18:46:56.537
535, 1.73886, 0.297544, 226.94, -0.000976562, 0, 0, -0.0664062, 0.302734, -9.73828, 1.28.2022 18:46:56.545
536, 1.73886, 0.297544, 226.94, -0.000976562, 0, 0, -0.0107422, 0.274414, -9.69238, 1.28.2022 18:46:56.553
537, 1.73886, 0.297544, 226.94, -0.000976562, -0.000976562, -0.00195312, -0.0898438, 0.282227, -9.69824, 1.28.2022 18:46:56.561
538, 1.73886, 0.297544, 226.94, -0.00195312, 0, 0, -0.0566406, 0.301758, -9.70801, 1.28.2022 18:46:56.569
539, 1.73886, 0.297544, 226.94, -0.000976562, 0, 0, -0.0302734, 0.279297, -9.69434, 1.28.2022 18:46:56.577
540, 1.73245, 0.294758, 226.94, 0, 0.000976562, 0, -0.0732422, 0.326172, -9.72852, 1.28.2022 18:46:56.585
541, 1.73245, 0.294758, 226.94, -0.000976562, 0, 0, -0.0253906, 0.293945, -9.70801, 1.28.2022 18:46:56.593
542, 1.73245, 0.294758, 226.94, -0.000976562, 0, -0.00195312, -0.0449219, 0.296875, -9.70605, 1.28.2022 18:46:56.601
543, 1.73245, 0.294758, 226.94, 0, 0, 0, -0.0664062, 0.299805, -9.71289, 1.28.2022 18:46:56.609
544, 1.73245, 0.294758, 226.94, 0, 0, 0, -0.00195312, 0.275391, -9.72852, 1.28.2022 18:46:56.617
545, 1.73245, 0.294758, 226.94, 0, -0.000976562, -0.00195312, -0.0585938, 0.27832, -9.71289, 1.28.2022 18:46:56.625
546, 1.73245, 0.294758, 226.94, 0, -0.000976562, -0.00195312, -0.0683594, 0.320312, -9.70703, 1.28.2022 18:46:56.633
547, 1.73245, 0.294758, 226.94, 0, 0, 0, -0.0253906, 0.273438, -9.72363, 1.28.2022 18:46:56.641
548, 1.73245, 0.294758, 226.94, 0, 0, 0, -0.109375, 0.300781, -9.75879, 1.28.2022 18:46:56.649
549, 1.73245, 0.294758, 226.94, -0.000976562, 0, 0, -0.0351562, 0.287109, -9.69922, 1.28.2022 18:46:56.657
550, 1.73245, 0.294758, 226.94, 0, -0.000976562, -0.000976562, -0.046875, 0.263672, -9.72363, 1.28.2022 18:46:56.665
551, 1.73245, 0.294758, 226.94, -0.000976562, 0, 0, -0.0898438, 0.280273, -9.72168, 1.28.2022 18:46:56.673
552, 1.73245, 0.294758, 226.94, -0.000976562, 0, -0.00195312, -0.0117188, 0.28125, -9.73535, 1.28.2022 18:46:56.681
553, 1.73245, 0.294758, 226.94, -0.000976562, 0, -0.00195312, -0.108398, 0.293945, -9.70215, 1.28.2022 18:46:56.689
554, 1.73231, 0.294862, 226.949, -0.000976562, 0, 0, -0.0849609, 0.323242, -9.71582, 1.28.2022 18:46:56.697
555, 1.73231, 0.294862, 226.949, -0.000976562, 0, 0, 0.0126953, 0.282227, -9.7168, 1.28.2022 18:46:56.705
556, 1.73245, 0.294758, 226.94, -0.000976562, -0.000976562, 0.000976562, -0.078125, 0.328125, -9.70703, 1.28.2022 18:46:56.713
557, 1.73245, 0.294758, 226.94, -0.000976562, 0.000976562, 0, -0.0117188, 0.294922, -9.73926, 1.28.2022 18:46:56.721
558, 1.73245, 0.294758, 226.94, -0.000976562, 0, 0, -0.0302734, 0.282227, -9.68945, 1.28.2022 18:46:56.729
559, 1.73245, 0.294758, 226.94, -0.000976562, 0, 0, -0.0683594, 0.296875, -9.70508, 1.28.2022 18:46:56.737
560, 1.73245, 0.294758, 226.94, -0.000976562, 0, 0, 0.0166016, 0.28125, -9.73828, 1.28.2022 18:46:56.745
561, 1.72604, 0.291973, 226.94, -0.000976562, 0, 0, -0.0634766, 0.274414, -9.67969, 1.28.2022 18:46:56.753
562, 1.72604, 0.291973, 226.94, -0.000976562, 0, 0, -0.078125, 0.321289, -9.71387, 1.28.2022 18:46:56.761
563, 1.72604, 0.291973, 226.94, -0.000976562, -0.000976562, 0, -0.000976562, 0.255859, -9.69141, 1.28.2022 18:46:56.769
564, 1.72604, 0.291973, 226.94, 0, 0, 0, -0.0810547, 0.288086, -9.73633, 1.28.2022 18:46:56.777
565, 1.72604, 0.291973, 226.94, -0.000976562, 0, 0, -0.0351562, 0.294922, -9.74121, 1.28.2022 18:46:56.785
566, 1.72604, 0.291973, 226.94, 0, 0.000976562, 0, -0.0283203, 0.276367, -9.74707, 1.28.2022 18:46:56.793
567, 1.72604, 0.291973, 226.94, 0, 0, 0, -0.0927734, 0.297852, -9.73828, 1.28.2022 18:46:56.801
568, 1.72604, 0.291973, 226.94, 0, 0, -0.00195312, -0.0136719, 0.313477, -9.71094, 1.28.2022 18:46:56.809
569, 1.72604, 0.291973, 226.94, -0.000976562, 0, 0.000976562, -0.0595703, 0.3125, -9.74023, 1.28.2022 18:46:56.817
570, 1.72604, 0.291973, 226.94, 0, 0, 0.000976562, -0.0830078, 0.290039, -9.70801, 1.28.2022 18:46:56.825
571, 1.72604, 0.291973, 226.94, 0, 0, 0, -0.0117188, 0.269531, -9.74512, 1.28.2022 18:46:56.833
572, 1.72604, 0.291973, 226.94, -0.000976562, 0, 0.000976562, -0.0917969, 0.290039, -9.70996, 1.28.2022 18:46:56.841
573, 1.72604, 0.291973, 226.94, 0, 0, 0, -0.0488281, 0.28418, -9.66797, 1.28.2022 18:46:56.849
574, 1.72604, 0.291973, 226.94, -0.000976562, -0.000976562, -0.00195312, -0.0400391, 0.292969, -9.74121, 1.28.2022 18:46:56.857
575, 1.72604, 0.291973, 226.94, -0.000976562, -0.00292969, -0.000976562, -0.0947266, 0.30957, -9.73047, 1.28.2022 18:46:56.865
576, 1.72604, 0.291973, 226.94, -0.000976562, 0, 0, -0.00390625, 0.290039, -9.71387, 1.28.2022 18:46:56.873
577, 1.72604, 0.291973, 226.94, -0.000976562, 0, 0, -0.0419922, 0.305664, -9.68457, 1.28.2022 18:46:56.881
578, 1.72604, 0.291973, 226.94, -0.000976562, -0.000976562, 0, -0.107422, 0.298828, -9.75879, 1.28.2022 18:46:56.889
579, 1.72604, 0.291973, 226.94, -0.000976562, 0, 0.000976562, 0.00488281, 0.295898, -9.76758, 1.28.2022 18:46:56.897
580, 1.72604, 0.291973, 226.94, 0, 0, 0, -0.0849609, 0.313477, -9.70703, 1.28.2022 18:46:56.905
581, 1.72604, 0.291973, 226.94, -0.000976562, -0.000976562, 0, -0.0380859, 0.310547, -9.77832, 1.28.2022 18:46:56.913
582, 1.72604, 0.291973, 226.94, -0.000976562, 0, 0, -0.0351562, 0.268555, -9.71582, 1.28.2022 18:46:56.921
583, 1.72604, 0.291973, 226.94, -0.000976562, 0, 0.000976562, -0.101562, 0.289062, -9.7002, 1.28.2022 18:46:56.929
584, 1.72604, 0.291973, 226.94, 0, 0, 0.000976562, -0.00195312, 0.268555, -9.73828, 1.28.2022 18:46:56.937
585, 1.72604, 0.291973, 226.94, -0.000976562, 0, 0, -0.0380859, 0.314453, -9.73633, 1.28.2022 18:46:56.945
586, 1.72604, 0.291973, 226.94, 0, 0, 0, -0.101562, 0.320312, -9.67773, 1.28.2022 18:46:56.953
587, 1.72604, 0.291973, 226.94, 0, 0, 0, 0.0078125, 0.294922, -9.71582, 1.28.2022 18:46:56.961
588, 1.72604, 0.291973, 226.94, 0, 0, 0.000976562, -0.078125, 0.297852, -9.74316, 1.28.2022 18:46:56.969
589, 1.72604, 0.291973, 226.94, -0.000976562, 0, 0.00195312, -0.0625, 0.267578, -9.76758, 1.28.2022 18:46:56.977
590, 1.72604, 0.291973, 226.94, -0.000976562, -0.000976562, 0, -0.0351562, 0.260742, -9.7002, 1.28.2022 18:46:56.985
591, 1.72604, 0.291973, 226.94, -0.000976562, -0.000976562, 0, -0.0791016, 0.291016, -9.66309, 1.28.2022 18:46:56.993
592, 1.72604, 0.291973, 226.94, 0, 0, 0, 0.00292969, 0.302734, -9.73438, 1.28.2022 18:46:57.001
593, 1.72604, 0.291973, 226.94, 0, 0.000976562, 0, -0.0449219, 0.292969, -9.74609, 1.28.2022 18:46:57.009
594, 1.72604, 0.291973, 226.94, -0.000976562, 0, -0.00195312, -0.106445, 0.333008, -9.70117, 1.28.2022 18:46:57.017
595, 1.72604, 0.291973, 226.94, -0.000976562, 0, 0, 0.0107422, 0.31543, -9.71094, 1.28.2022 18:46:57.025
596, 1.72604, 0.291973, 226.94, -0.000976562, -0.000976562, 0, -0.0849609, 0.313477, -9.70703, 1.28.2022 18:46:57.033
597, 1.72604, 0.291973, 226.94, -0.000976562, -0.000976562, 0, -0.0351562, 0.30957, -9.72461, 1.28.2022 18:46:57.041
598, 1.72604, 0.291973, 226.94, -0.000976562, 0, 0, -0.0146484, 0.28418, -9.77051, 1.28.2022 18:46:57.049
599, 1.72604, 0.291973, 226.94, -0.000976562, -0.000976562, 0, -0.0859375, 0.3125, -9.74023, 1.28.2022 18:46:57.057
600, 1.72604, 0.291973, 226.94, 0, -0.000976562, -0.00195312, -0.0136719, 0.273438, -9.74219, 1.28.2022 18:46:57.065
601, 1.73245, 0.294758, 226.94, -0.000976562, 0, -0.00195312, -0.0664062, 0.285156, -9.73145, 1.28.2022 18:46:57.073
602, 1.73245, 0.294758, 226.94, 0, 0, 0, -0.0878906, 0.308594, -9.70898, 1.28.2022 18:46:57.081
603, 1.73245, 0.294758, 226.94, 0, 0, 0, -0.0205078, 0.283203, -9.72266, 1.28.2022 18:46:57.089
604, 1.73245, 0.294758, 226.94, 0, 0, 0, -0.0917969, 0.308594, -9.71191, 1.28.2022 18:46:57.097
605, 1.73245, 0.294758, 226.94, -0.000976562, 0, 0.000976562, -0.0634766, 0.289062, -9.70312, 1.28.2022 18:46:57.105
606, 1.73245, 0.294758, 226.94, -0.000976562, -0.000976562, -0.000976562, -0.0302734, 0.27832, -9.72266, 1.28.2022 18:46:57.113
607, 1.73245, 0.294758, 226.94, -0.000976562, -0.000976562, -0.000976562, -0.0927734, 0.289062, -9.75977, 1.28.2022 18:46:57.121
608, 1.73245, 0.294758, 226.94, -0.000976562, 0.000976562, -0.000976562, -0.00390625, 0.251953, -9.71973, 1.28.2022 18:46:57.129
609, 1.73245, 0.294758, 226.94, -0.000976562, 0, -0.00195312, -0.0527344, 0.327148, -9.7666, 1.28.2022 18:46:57.137
610, 1.73245, 0.294758, 226.94, 0, 0, -0.000976562, -0.0976562, 0.314453, -9.72363, 1.28.2022 18:46:57.145
611, 1.73245, 0.294758, 226.94, 0, 0, 0, -0.0117188, 0.288086, -9.72754, 1.28.2022 18:46:57.153
612, 1.73245, 0.294758, 226.94, 0, 0, 0, -0.0869141, 0.320312, -9.7041, 1.28.2022 18:46:57.161
613, 1.73245, 0.294758, 226.94, 0, 0, 0, -0.0615234, 0.301758, -9.70508, 1.28.2022 18:46:57.169
614, 1.73245, 0.294758, 226.94, 0, 0, 0, -0.0205078, 0.291992, -9.71094, 1.28.2022 18:46:57.177
615, 1.73245, 0.294758, 226.94, 0, 0, -0.000976562, -0.101562, 0.303711, -9.67871, 1.28.2022 18:46:57.183
616, 1.73245, 0.294758, 226.94, 0, -0.000976562, -0.000976562, -0.0419922, 0.308594, -9.69824, 1.28.2022 18:46:57.191
617, 1.73245, 0.294758, 226.94, -0.000976562, 0, -0.00195312, -0.0615234, 0.286133, -9.74121, 1.28.2022 18:46:57.199
618, 1.73245, 0.294758, 226.94, -0.000976562, 0, -0.00195312, -0.0732422, 0.290039, -9.73145, 1.28.2022 18:46:57.207
619, 1.73886, 0.297544, 226.94, -0.000976562, -0.000976562, -0.000976562, -0.0175781, 0.289062, -9.67578, 1.28.2022 18:46:57.215
620, 1.73886, 0.297544, 226.94, -0.000976562, -0.000976562, -0.000976562, -0.101562, 0.265625, -9.69824, 1.28.2022 18:46:57.223
621, 1.73608, 0.303959, 226.94, -0.000976562, 0, -0.00195312, -0.0644531, 0.324219, -9.73535, 1.28.2022 18:46:57.231
622, 1.73608, 0.303959, 226.94, -0.000976562, 0, -0.000976562, -0.00585938, 0.286133, -9.67578, 1.28.2022 18:46:57.239
623, 1.73608, 0.303959, 226.94, -0.000976562, 0, -0.000976562, -0.106445, 0.301758, -9.70508, 1.28.2022 18:46:57.247
624, 1.73608, 0.303959, 226.94, -0.000976562, 0.000976562, -0.000976562, -0.0283203, 0.28125, -9.74414, 1.28.2022 18:46:57.255
625, 1.73608, 0.303959, 226.94, -0.000976562, 0.000976562, -0.000976562, -0.0273438, 0.295898, -9.66309, 1.28.2022 18:46:57.263
626, 1.73608, 0.303959, 226.94, -0.000976562, -0.000976562, -0.000976562, -0.0839844, 0.305664, -9.67676, 1.28.2022 18:46:57.271
627, 1.73608, 0.303959, 226.94, 0, -0.000976562, -0.000976562, -0.0078125, 0.257812, -9.77637, 1.28.2022 18:46:57.279
628, 1.73608, 0.303959, 226.94, -0.000976562, 0, -0.000976562, -0.0683594, 0.303711, -9.7002, 1.28.2022 18:46:57.287
629, 1.73608, 0.303959, 226.94, -0.000976562, 0, -0.000976562, -0.0546875, 0.302734, -9.73145, 1.28.2022 18:46:57.295
630, 1.73608, 0.303959, 226.94, -0.000976562, -0.000976562, 0, -0.00683594, 0.263672, -9.73535, 1.28.2022 18:46:57.303
631, 1.73608, 0.303959, 226.94, 0, -0.000976562, -0.000976562, -0.0976562, 0.305664, -9.75, 1.28.2022 18:46:57.311
632, 1.73608, 0.303959, 226.94, 0, 0, -0.000976562, 0.0292969, 0.290039, -9.72559, 1.28.2022 18:46:57.319
633, 1.73608, 0.303959, 226.94, 0.000976562, 0.00292969, -0.00292969, 0.174805, 0.282227, -9.70508, 1.28.2022 18:46:57.327
634, 1.73608, 0.303959, 226.94, 0.00292969, 0.00292969, -0.00390625, 0.151367, 0.34375, -9.70508, 1.28.2022 18:46:57.335
635, 1.73231, 0.294862, 226.949, 0.000976562, 0.00390625, -0.00390625, 0.124023, 0.408203, -9.78125, 1.28.2022 18:46:57.343
636, 1.73231, 0.294862, 226.949, 0.00195312, 0.00683594, -0.000976562, 0.0429688, 0.416992, -9.7373, 1.28.2022 18:46:57.351
637, 1.73146, 0.279247, 226.949, 0.0078125, 0.0146484, 0.000976562, 0.329102, 0.373047, -9.63379, 1.28.2022 18:46:57.359
638, 1.73062, 0.263631, 226.949, 0.00878906, 0.0126953, 0, 0.475586, 0.350586, -9.68945, 1.28.2022 18:46:57.367
639, 1.727, 0.25443, 226.949, 0.0078125, 0.00488281, -0.00195312, 0.181641, 0.373047, -9.8916, 1.28.2022 18:46:57.375
640, 1.72615, 0.238814, 226.95, 0.0107422, 0.0117188, -0.00292969, 0.301758, 0.383789, -9.67578, 1.28.2022 18:46:57.383
641, 1.72809, 0.216784, 226.95, 0.00976562, 0.0107422, -0.00292969, 0.601562, 0.22168, -9.57129, 1.28.2022 18:46:57.391
642, 1.72391, 0.191999, 226.948, 0.00878906, 0.00585938, -0.00488281, 0.532227, 0.275391, -9.60449, 1.28.2022 18:46:57.399
643, 1.72585, 0.16997, 226.949, 0.00683594, 0.00292969, -0.00488281, 0.558594, 0.180664, -9.69531, 1.28.2022 18:46:57.407
644, 1.72417, 0.13874, 226.949, 0.000976562, 0.000976562, -0.00390625, 0.525391, 0.168945, -9.53906, 1.28.2022 18:46:57.415
645, 1.72889, 0.110297, 226.95, -0.00195312, -0.00585938, -0.00292969, 0.452148, 0.173828, -9.6416, 1.28.2022 18:46:57.423
646, 1.72708, 0.0791658, 226.958, -0.00390625, -0.00585938, -0.00390625, 0.665039, 0.227539, -9.60547, 1.28.2022 18:46:57.431
647, 1.73459, 0.0443074, 226.959, -0.00683594, -0.00683594, -0.00488281, 0.640625, 0.228516, -9.64746, 1.28.2022 18:46:57.439
648, 1.7357, 0.00666285, 226.96, -0.00976562, -0.0107422, -0.00683594, 0.506836, 0.329102, -9.7959, 1.28.2022 18:46:57.447
649, 1.74321, 359.972, 226.96, -0.0107422, -0.00878906, -0.00683594, 0.539062, 0.322266, -9.72363, 1.28.2022 18:46:57.455
650, 1.74697, 359.928, 226.969, -0.00878906, -0.0078125, -0.0078125, 0.484375, 0.392578, -9.74707, 1.28.2022 18:46:57.463
651, 1.75116, 359.884, 226.968, -0.0078125, -0.0107422, -0.0117188, 0.443359, 0.379883, -9.62598, 1.28.2022 18:46:57.471
652, 1.74852, 359.837, 226.977, -0.00488281, -0.00585938, -0.0126953, 0.551758, 0.345703, -9.87012, 1.28.2022 18:46:57.479
653, 1.75508, 359.787, 226.987, -0.00195312, -0.00292969, -0.015625, 0.742188, 0.386719, -9.73438, 1.28.2022 18:46:57.487
654, 1.75565, 359.733, 226.986, 0.000976562, -0.00585938, -0.0175781, 0.576172, 0.404297, -9.81641, 1.28.2022 18:46:57.495
655, 1.75582, 359.68, 226.995, 0.00292969, -0.00195312, -0.0185547, 0.536133, 0.433594, -9.77246, 1.28.2022 18:46:57.503
656, 1.75598, 359.627, 227.005, 0.00488281, 0, -0.015625, 0.603516, 0.386719, -9.6377, 1.28.2022 18:46:57.511
657, 1.75646, 359.574, 227.012, 0.00292969, -0.00390625, -0.0126953, 0.514648, 0.337891, -9.77051, 1.28.2022 18:46:57.519
658, 1.75943, 359.514, 227.022, 0.000976562, -0.00292969, -0.0117188, 0.575195, 0.274414, -9.73535, 1.28.2022 18:46:57.527
659, 1.75972, 359.461, 227.023, 0, -0.00390625, -0.0117188, 0.671875, 0.180664, -9.63086, 1.28.2022 18:46:57.535
660, 1.76022, 359.408, 227.03, -0.00292969, -0.0078125, -0.0126953, 0.481445, 0.234375, -9.7373, 1.28.2022 18:46:57.543
661, 1.76961, 359.351, 227.04, -0.00683594, -0.00585938, -0.015625, 0.472656, 0.203125, -9.73535, 1.28.2022 18:46:57.551
662, 1.77663, 359.301, 227.039, -0.00878906, -0.00195312, -0.0185547, 0.801758, 0.162109, -9.82715, 1.28.2022 18:46:57.559
663, 1.78316, 359.251, 227.057, -0.00878906, 0, -0.0253906, 0.706055, 0.258789, -9.85352, 1.28.2022 18:46:57.567
664, 1.78731, 359.207, 227.065, -0.00878906, 0.00390625, -0.0283203, 0.824219, 0.466797, -10.0928, 1.28.2022 18:46:57.575
665, 1.78777, 359.154, 227.081, -0.00488281, 0.0166016, -0.0253906, 0.891602, 0.508789, -9.90625, 1.28.2022 18:46:57.583
666, 1.79161, 359.11, 227.09, 0, 0.0224609, -0.0214844, 0.80957, 0.645508, -10.248, 1.28.2022 18:46:57.591
667, 1.79218, 359.057, 227.098, 0.00976562, 0.0332031, -0.0166016, 0.945312, 0.639648, -9.88184, 1.28.2022 18:46:57.599
668, 1.78601, 359.001, 227.108, 0.0166016, 0.0400391, -0.0107422, 0.851562, 0.71582, -9.6377, 1.28.2022 18:46:57.607
669, 1.77713, 358.951, 227.108, 0.0253906, 0.0449219, -0.00976562, 0.748047, 0.788086, -9.71875, 1.28.2022 18:46:57.615
670, 1.76489, 358.892, 227.116, 0.0351562, 0.0546875, -0.0078125, 1.03125, 0.549805, -9.84863, 1.28.2022 18:46:57.623
671, 1.74961, 358.84, 227.117, 0.0371094, 0.0498047, -0.0078125, 1.11816, 0.578125, -9.52734, 1.28.2022 18:46:57.631
672, 1.73147, 358.794, 227.126, 0.0380859, 0.0341797, -0.0107422, 0.93457, 0.408203, -9.74902, 1.28.2022 18:46:57.639
673, 1.72007, 358.751, 227.133, 0.0341797, 0.03125, -0.0117188, 1.08789, 0.161133, -9.01465, 1.28.2022 18:46:57.647
674, 1.70561, 358.714, 227.134, 0.0214844, 0.0107422, -0.0117188, 0.914062, -0.00390625, -8.83203, 1.28.2022 18:46:57.655
675, 1.70112, 358.689, 227.143, 0.00585938, -0.0146484, -0.015625, 1.04785, -0.339844, -9.2207, 1.28.2022 18:46:57.663
676, 1.70698, 358.677, 227.15, -0.0117188, -0.0341797, -0.0205078, 1.08105, -0.379883, -9.23438, 1.28.2022 18:46:57.671
677, 1.71613, 358.673, 227.159, -0.0302734, -0.0498047, -0.0244141, 1.08008, -0.499023, -9.39844, 1.28.2022 18:46:57.679
678, 1.72917, 358.679, 227.174, -0.0458984, -0.0605469, -0.0302734, 1.1748, -0.457031, -9.71777, 1.28.2022 18:46:57.687
679, 1.75786, 358.684, 227.181, -0.0556641, -0.0556641, -0.0341797, 1.2207, -0.228516, -9.84473, 1.28.2022 18:46:57.695
680, 1.78651, 358.689, 227.196, -0.0615234, -0.0458984, -0.0371094, 1.2334, 0.121094, -10.2559, 1.28.2022 18:46:57.703
681, 1.80874, 358.691, 227.212, -0.0605469, -0.0400391, -0.0371094, 1.24805, 0.21875, -10.6377, 1.28.2022 18:46:57.711
682, 1.84012, 358.69, 227.236, -0.0507812, -0.0292969, -0.0429688, 0.97168, 0.498047, -10.1133, 1.28.2022 18:46:57.719
683, 1.86155, 358.676, 227.252, -0.0380859, -0.0136719, -0.0498047, 0.963867, 0.664062, -9.74707, 1.28.2022 18:46:57.727
684, 1.87372, 358.667, 227.276, -0.0214844, -0.00292969, -0.0585938, 1.06055, 0.810547, -8.88965, 1.28.2022 18:46:57.735
685, 1.88257, 358.648, 227.307, -0.00292969, 0.00488281, -0.0664062, 1.04102, 0.842773, -8.90723, 1.28.2022 18:46:57.743
686, 1.88222, 358.633, 227.337, 0.0117188, 0.00585938, -0.0751953, 1.0459, 0.881836, -9.60352, 1.28.2022 18:46:57.751
687, 1.86902, 358.612, 227.376, 0.0205078, 0.0126953, -0.0820312, 1.02832, 0.911133, -10.332, 1.28.2022 18:46:57.759
688, 1.86223, 358.595, 227.415, 0.0273438, -0.000976562, -0.0849609, 0.845703, 0.988281, -10.6738, 1.28.2022 18:46:57.767
689, 1.84905, 358.574, 227.454, 0.03125, 0.00878906, -0.0830078, 0.717773, 0.604492, -11.0342, 1.28.2022 18:46:57.775
690, 1.84229, 358.556, 227.492, 0.0234375, 0.0205078, -0.0800781, 0.928711, 0.345703, -9.56641, 1.28.2022 18:46:57.783
691, 1.8323, 358.529, 227.53, 0.0185547, 0.0283203, -0.0791016, 1.03027, 0.244141, -9.46191, 1.28.2022 18:46:57.791
692, 1.82203, 358.502, 227.56, 0.0234375, 0.046875, -0.0810547, 1.18555, -0.177734, -9.67676, 1.28.2022 18:46:57.799
693, 1.81097, 358.459, 227.6, 0.0234375, 0.0576172, -0.0791016, 0.895508, -0.129883, -10.3086, 1.28.2022 18:46:57.807
694, 1.79994, 358.417, 227.639, 0.03125, 0.0791016, -0.0791016, 1.38379, -0.261719, -9.93066, 1.28.2022 18:46:57.815
695, 1.78893, 358.374, 227.678, 0.03125, 0.0449219, -0.0810547, 0.666992, 0.339844, -10.0938, 1.28.2022 18:46:57.823
696, 1.77234, 358.344, 227.709, 0.0292969, 0.0332031, -0.078125, 0.861328, 0.344727, -8.73438, 1.28.2022 18:46:57.831
697, 1.76569, 358.326, 227.748, 0.0224609, -0.00488281, -0.078125, 0.623047, 0.0898438, -8.33105, 1.28.2022 18:46:57.839
698, 1.75979, 358.324, 227.786, -0.000976562, -0.0322266, -0.0791016, 0.633789, 0.339844, -8.2793, 1.28.2022 18:46:57.847
699, 1.767, 358.327, 227.823, -0.0234375, -0.0498047, -0.0849609, 1.36719, 0.102539, -8.1748, 1.28.2022 18:46:57.855
700, 1.78099, 358.349, 227.862, -0.0419922, -0.0849609, -0.09375, 1.38184, -0.101562, -9.51562, 1.28.2022 18:46:57.863
701, 1.8077, 358.377, 227.909, -0.0498047, -0.0888672, -0.105469, 1.42773, -0.269531, -9.99805, 1.28.2022 18:46:57.871
702, 1.83118, 358.395, 227.954, -0.0537109, -0.0683594, -0.111328, 1.23828, -0.161133, -11.3027, 1.28.2022 18:46:57.879
703, 1.85749, 358.407, 228, -0.0537109, -0.0283203, -0.111328, 1.54102, -0.0546875, -11.0352, 1.28.2022 18:46:57.887
704, 1.8802, 358.41, 228.054, -0.0517578, -0.0214844, -0.107422, 1.05762, 0.28125, -11.0439, 1.28.2022 18:46:57.895
705, 1.90865, 358.401, 228.101, -0.0410156, 0, -0.103516, 0.275391, 0.831055, -11.2295, 1.28.2022 18:46:57.903
706, 1.91796, 358.382, 228.147, -0.015625, 0.0498047, -0.100586, 0.824219, 0.641602, -9.85449, 1.28.2022 18:46:57.911
707, 1.92022, 358.345, 228.193, 0.00390625, 0.0498047, -0.103516, 1.15625, 0.0830078, -7.80566, 1.28.2022 18:46:57.919
708, 1.91966, 358.315, 228.239, 0.0117188, 0.0380859, -0.112305, 0.544922, 0.662109, -8.75586, 1.28.2022 18:46:57.927
709, 1.91269, 358.282, 228.294, 0.0351562, 0.0585938, -0.113281, 0.458008, 0.886719, -10.0537, 1.28.2022 18:46:57.935
710, 1.88948, 358.233, 228.349, 0.0566406, 0.0898438, -0.115234, 1.22949, 0.84082, -10.0088, 1.28.2022 18:46:57.943
711, 1.86631, 358.185, 228.403, 0.0654297, 0.0664062, -0.123047, 1.55176, 0.895508, -9.12891, 1.28.2022 18:46:57.951
712, 1.83805, 358.165, 228.466, 0.0537109, -0.0166016, -0.128906, 0.452148, 1.34082, -9.62109, 1.28.2022 18:46:57.959
713, 1.81718, 358.164, 228.526, 0.0488281, -0.0244141, -0.132812, 0.129883, 0.415039, -9.41504, 1.28.2022 18:46:57.967
714, 1.80233, 358.166, 228.588, 0.0195312, -0.0253906, -0.132812, 0.689453, -0.276367, -7.18262, 1.28.2022 18:46:57.975
715, 1.80985, 358.17, 228.64, -0.0224609, -0.0527344, -0.133789, 0.680664, -0.509766, -8.7832, 1.28.2022 18:46:57.983
716, 1.8272, 358.186, 228.701, -0.0595703, -0.0634766, -0.136719, 0.874023, -0.606445, -11.1201, 1.28.2022 18:46:57.991
717, 1.8598, 358.201, 228.764, -0.0761719, -0.0566406, -0.139648, 1.27051, -0.757812, -11.3525, 1.28.2022 18:46:57.999
718, 1.89906, 358.219, 228.834, -0.0693359, -0.0341797, -0.147461, 1.55469, -0.693359, -10.7344, 1.28.2022 18:46:58.007
719, 1.92498, 358.216, 228.904, -0.0556641, -0.0195312, -0.155273, 1.39648, -0.53125, -9.46094, 1.28.2022 18:46:58.015
720, 1.9538, 358.207, 228.974, -0.0527344, 0.0078125, -0.15918, 0.436523, 0.0742188, -10.7002, 1.28.2022 18:46:58.023
721, 1.97317, 358.186, 229.043, -0.0244141, 0.0605469, -0.162109, 1.10742, 0.131836, -7.59375, 1.28.2022 18:46:58.031
722, 1.97888, 358.143, 229.122, 0.00585938, 0.0664062, -0.166016, 0.642578, 0.641602, -9.99805, 1.28.2022 18:46:58.039
723, 1.97285, 358.11, 229.199, 0.0380859, 0.0498047, -0.174805, 0.891602, 0.728516, -10.6396, 1.28.2022 18:46:58.047
724, 1.96099, 358.09, 229.284, 0.03125, -0.0175781, -0.183594, -0.243164, 1.85156, -9.93164, 1.28.2022 18:46:58.055
725, 1.94968, 358.086, 229.369, 0.0380859, 0.00292969, -0.189453, 0.260742, 0.666992, -9.63184, 1.28.2022 18:46:58.063
726, 1.93494, 358.072, 229.453, 0.0126953, 0.00488281, -0.19043, 1.67285, 0.566406, -6.95508, 1.28.2022 18:46:58.071
727, 1.93667, 358.074, 229.545, -0.00390625, -0.0419922, -0.200195, 1.24023, 0.658203, -8.6748, 1.28.2022 18:46:58.079
728, 1.94437, 358.078, 229.639, -0.0175781, -0.0341797, -0.210938, 0.501953, 0.314453, -12.0479, 1.28.2022 18:46:58.087
729, 1.96167, 358.08, 229.739, -0.0253906, 0.000976562, -0.21582, 0.655273, -0.0742188, -13.4824, 1.28.2022 18:46:58.095
730, 1.97221, 358.062, 229.832, -0.0253906, 0.0341797, -0.216797, 1.24414, -1.02148, -10.457, 1.28.2022 18:46:58.103
731, 1.98864, 358.032, 229.934, -0.015625, 0.0546875, -0.21875, 0.851562, -0.603516, -8.51953, 1.28.2022 18:46:58.111
732, 1.98948, 358.003, 230.035, 0.000976562, 0.0458984, -0.222656, 1.27344, -1.09473, -7.94922, 1.28.2022 18:46:58.119
733, 1.99705, 357.976, 230.143, -0.00488281, 0.0117188, -0.228516, -0.0253906, 0.507812, -9.8916, 1.28.2022 18:46:58.127
734, 1.99543, 357.969, 230.244, 0.0136719, 0.0107422, -0.229492, -0.379883, -0.102539, -12.2148, 1.28.2022 18:46:58.135
735, 1.99674, 357.955, 230.354, -0.00683594, 0.00585938, -0.229492, 0.768555, 0.742188, -8.24219, 1.28.2022 18:46:58.143
736, 2.00818, 357.953, 230.453, -0.0166016, -0.0390625, -0.237305, 1.03711, 0.125, -6.97168, 1.28.2022 18:46:58.149
737, 2.02621, 357.971, 230.569, -0.0380859, -0.0683594, -0.249023, 0.669922, 0.297852, -8.0918, 1.28.2022 18:46:58.157
738, 2.04719, 357.982, 230.686, -0.0410156, -0.0322266, -0.254883, 0.00390625, 0.624023, -13.5879, 1.28.2022 18:46:58.165
739, 2.06787, 357.977, 230.794, -0.0371094, 0.0478516, -0.253906, 1.50879, 0.458984, -12.2578, 1.28.2022 18:46:58.173
740, 2.08488, 357.948, 230.912, -0.0205078, 0.0166016, -0.255859, 1.62012, -0.411133, -9.76367, 1.28.2022 18:46:58.181
741, 2.09918, 357.94, 231.038, -0.0107422, 0, -0.260742, -0.43457, -0.583984, -9.16406, 1.28.2022 18:46:58.189
742, 2.10435, 357.92, 231.154, -0.0078125, 0.0683594, -0.265625, 0.388672, -0.0507812, -7.11719, 1.28.2022 18:46:58.197
743, 2.10924, 357.885, 231.278, 0.00488281, 0.0517578, -0.273438, -0.0146484, 0.124023, -10.1885, 1.28.2022 18:46:58.205
744, 2.1081, 357.863, 231.411, 0.0117188, -0.00292969, -0.286133, -0.449219, 0.254883, -10.3623, 1.28.2022 18:46:58.213
745, 2.11053, 357.865, 231.535, -0.0117188, -0.0244141, -0.288086, 0.240234, 0.786133, -7.51172, 1.28.2022 18:46:58.221
746, 2.12549, 357.873, 231.668, -0.0146484, -0.0527344, -0.292969, 0.386719, -0.136719, -7.45898, 1.28.2022 18:46:58.229
747, 2.13732, 357.888, 231.809, -0.0234375, -0.0410156, -0.304688, 0.0761719, 0.601562, -11.6104, 1.28.2022 18:46:58.237
748, 2.14935, 357.888, 231.949, -0.0078125, 0.0136719, -0.3125, 1.18652, 0.391602, -11.8838, 1.28.2022 18:46:58.245
749, 2.15816, 357.878, 232.089, -0.00683594, 0.0126953, -0.313477, 0.507812, 0.173828, -14.4395, 1.28.2022 18:46:58.253
750, 2.16385, 357.874, 232.238, 0.000976562, -0.00683594, -0.314453, -0.242188, -0.310547, -9.61816, 1.28.2022 18:46:58.261
751, 2.17258, 357.849, 232.379, -0.0117188, 0.0751953, -0.308594, 0.192383, 0.283203, -6.91992, 1.28.2022 18:46:58.269
752, 2.17854, 357.814, 232.527, 0.00390625, 0.078125, -0.320312, 0.441406, -1.13184, -7.69141, 1.28.2022 18:46:58.277
753, 2.18107, 357.786, 232.677, -0.00878906, 0.0175781, -0.334961, -1.19824, 0.498047, -10.9404, 1.28.2022 18:46:58.285
754, 2.1935, 357.77, 232.826, -0.00683594, 0.0419922, -0.333984, 0.175781, -0.124023, -8.92285, 1.28.2022 18:46:58.293
755, 2.19966, 357.751, 232.983, -0.0146484, 0.0107422, -0.339844, 1.1416, -0.524414, -7.89355, 1.28.2022 18:46:58.301
756, 2.21212, 357.766, 233.139, -0.00878906, -0.0957031, -0.355469, -0.55957, 0.607422, -10.5459, 1.28.2022 18:46:58.309
757, 2.2182, 357.794, 233.303, 0.00195312, -0.0439453, -0.354492, -0.78125, 0.162109, -12.7207, 1.28.2022 18:46:58.317
758, 2.23094, 357.795, 233.467, -0.0117188, 0.0126953, -0.353516, 1.05566, 0.0683594, -10.7148, 1.28.2022 18:46:58.325
759, 2.23707, 357.791, 233.625, -0.00683594, -0.0214844, -0.362305, 0.847656, 0.238281, -8.43652, 1.28.2022 18:46:58.333
760, 2.24034, 357.795, 233.797, 0.0175781, 0.0117188, -0.376953, -0.00976562, -0.415039, -10.3945, 1.28.2022 18:46:58.341
761, 2.24063, 357.773, 233.971, 0.00585938, 0.0654297, -0.388672, 0.255859, 0.202148, -8.04102, 1.28.2022 18:46:58.349
762, 2.23525, 357.733, 234.152, 0.0185547, 0.109375, -0.398438, 0.0585938, -0.344727, -10.4385, 1.28.2022 18:46:58.357
763, 2.24252, 357.683, 234.344, 0.0078125, 0.0898438, -0.40332, 1.0166, -0.394531, -8.01074, 1.28.2022 18:46:58.365
764, 2.24687, 357.671, 234.523, -0.00683594, -0.0429688, -0.407227, -1.71094, 0.344727, -10.2285, 1.28.2022 18:46:58.373
765, 2.25033, 357.691, 234.712, 0.0078125, -0.0322266, -0.40625, -2.20117, -0.323242, -12.2041, 1.28.2022 18:46:58.381
766, 2.25724, 357.688, 234.893, -0.0117188, 0.00585938, -0.40332, 1.02637, -0.575195, -6.55859, 1.28.2022 18:46:58.389
767, 2.27002, 357.704, 235.083, -0.00976562, -0.0751953, -0.415039, 0.452148, 0.0351562, -8.00879, 1.28.2022 18:46:58.397
768, 2.27344, 357.739, 235.271, 0.0166016, -0.0751953, -0.427734, 0.305664, -0.198242, -10.2354, 1.28.2022 18:46:58.405
769, 2.26753, 357.762, 235.468, 0.0263672, -0.015625, -0.43457, -0.100586, 0.352539, -12.1553, 1.28.2022 18:46:58.413
770, 2.25922, 357.744, 235.675, 0.0390625, 0.0947266, -0.441406, 1.55273, 0.702148, -9.04883, 1.28.2022 18:46:58.421
771, 2.24558, 357.707, 235.881, 0.0576172, 0.0654297, -0.450195, 0.0498047, 0.427734, -12.3779, 1.28.2022 18:46:58.429
772, 2.23166, 357.685, 236.087, 0.0351562, 0.0263672, -0.448242, -1.34668, 0.242188, -10.1309, 1.28.2022 18:46:58.437
773, 2.22734, 357.661, 236.285, -0.0126953, 0.0898438, -0.443359, -1.1709, 0.161133, -9.49023, 1.28.2022 18:46:58.445
774, 2.24526, 357.625, 236.493, -0.0195312, 0.0498047, -0.454102, -0.271484, -1.21484, -7.26172, 1.28.2022 18:46:58.453
775, 2.26842, 357.623, 236.709, -0.0410156, -0.0253906, -0.47168, -0.12207, -1.30859, -7.57129, 1.28.2022 18:46:58.461
776, 2.29431, 357.647, 236.923, -0.0498047, -0.0566406, -0.480469, -0.805664, -1.0625, -9.8584, 1.28.2022 18:46:58.469
777, 2.31721, 357.661, 237.147, -0.0253906, -0.0117188, -0.483398, 0.952148, -0.981445, -9.74023, 1.28.2022 18:46:58.477
778, 2.32778, 357.669, 237.371, 0.00585938, -0.0205078, -0.493164, 1.10645, -0.288086, -12.2871, 1.28.2022 18:46:58.485
779, 2.32864, 357.695, 237.592, 0.03125, -0.0585938, -0.49707, -0.772461, 1.19824, -12.8936, 1.28.2022 18:46:58.493
780, 2.31387, 357.706, 237.824, 0.0566406, 0.00878906, -0.495117, -0.499023, -0.110352, -9.91797, 1.28.2022 18:46:58.501
781, 2.30362, 357.694, 238.047, 0.0185547, 0.0566406, -0.501953, 0.413086, 0.760742, -4.53418, 1.28.2022 18:46:58.509
782, 2.30274, 357.68, 238.289, 0.00390625, 0.0253906, -0.523438, -0.365234, -0.117188, -7.64746, 1.28.2022 18:46:58.517
783, 2.31113, 357.678, 238.529, -0.0214844, -0.00292969, -0.538086, -2.46875, 0.773438, -13.291, 1.28.2022 18:46:58.525
784, 2.3328, 357.669, 238.778, -0.0263672, 0.0908203, -0.542969, 0.905273, -1.54395, -11.6992, 1.28.2022 18:46:58.533
785, 2.35141, 357.649, 239.03, -0.0322266, -0.00195312, -0.553711, 0.587891, -1.41309, -10.0869, 1.28.2022 18:46:58.541
786, 2.36922, 357.662, 239.286, -0.0205078, -0.0351562, -0.569336, -0.380859, -0.924805, -8.89844, 1.28.2022 18:46:58.549
787, 2.3865, 357.674, 239.544, 0, 0.00488281, -0.578125, -0.635742, -0.962891, -8.86621, 1.28.2022 18:46:58.557
788, 2.38936, 357.67, 239.81, 0.0078125, 0.0654297, -0.587891, 0.493164, 0.325195, -8.26758, 1.28.2022 18:46:58.565
789, 2.38395, 357.653, 240.085, 0.0439453, 0.0322266, -0.607422, -0.330078, 0.349609, -11.4756, 1.28.2022 18:46:58.573
790, 2.37753, 357.652, 240.368, 0.0361328, -0.00292969, -0.616211, -1.06836, 0.595703, -10.0498, 1.28.2022 18:46:58.581
791, 2.37108, 357.651, 240.652, 0.0136719, 0.0439453, -0.619141, 0.0458984, 0.0830078, -6.82422, 1.28.2022 18:46:58.589
792, 2.37462, 357.647, 240.935, 0.0078125, 0.000976562, -0.629883, 0.0175781, -0.329102, -7.30957, 1.28.2022 18:46:58.597
793, 2.37696, 357.659, 241.228, 0.0136719, -0.0214844, -0.642578, -1.15137, -0.661133, -14.6201, 1.28.2022 18:46:58.605
794, 2.37563, 357.677, 241.52, 0.00390625, -0.0107422, -0.637695, -0.454102, -0.107422, -12.9297, 1.28.2022 18:46:58.613
795, 2.38422, 357.693, 241.812, 0.00292969, -0.0185547, -0.633789, 0.240234, -0.484375, -8.46777, 1.28.2022 18:46:58.621
796, 2.38864, 357.714, 242.106, 0.0205078, -0.0439453, -0.646484, 0.369141, -0.814453, -4.96484, 1.28.2022 18:46:58.629
797, 2.38004, 357.745, 242.408, 0.0322266, -0.0341797, -0.661133, -1.29102, -0.729492, -10.4209, 1.28.2022 18:46:58.637
798, 2.38026, 357.747, 242.71, 0.0107422, 0.0761719, -0.667969, -0.0947266, 0.0693359, -10.5029, 1.28.2022 18:46:58.645
799, 2.3808, 357.709, 243.014, 0.00292969, 0.110352, -0.671875, 0.947266, 0.547852, -10.7354, 1.28.2022 18:46:58.653
800, 2.38598, 357.691, 243.327, 0.015625, 0.0175781, -0.680664, -0.28418, -0.151367, -11.3701, 1.28.2022 18:46:58.661
801, 2.39062, 357.712, 243.64, 0.00195312, -0.0439453, -0.674805, -2.03711, -0.728516, -10.0049, 1.28.2022 18:46:58.669
802, 2.40263, 357.723, 243.945, -0.0498047, 0.0410156, -0.667969, -1.07227, -0.991211, -7.24219, 1.28.2022 18:46:58.677
803, 2.44169, 357.717, 244.251, -0.0732422, 0.0458984, -0.676758, 0.128906, 0.0351562, -6.53418, 1.28.2022 18:46:58.685
804, 2.46727, 357.719, 244.566, -0.00976562, -0.0224609, -0.696289, -0.19043, -1.2998, -11.2148, 1.28.2022 18:46:58.693
805, 2.47177, 357.741, 244.889, 0.00390625, -0.0244141, -0.701172, -0.87793, -0.572266, -13.1348, 1.28.2022 18:46:58.701
806, 2.47457, 357.754, 245.203, 0.00976562, 0.0332031, -0.695312, 0.724609, 0.172852, -7.9873, 1.28.2022 18:46:58.709
807, 2.4687, 357.753, 245.528, 0.0390625, 0.0341797, -0.700195, 0.524414, 0.407227, -7.41113, 1.28.2022 18:46:58.717
808, 2.45358, 357.755, 245.852, 0.078125, 0.0273438, -0.709961, -0.924805, -0.0205078, -11.7725, 1.28.2022 18:46:58.725
809, 2.42715, 357.749, 246.176, 0.0478516, 0.0478516, -0.702148, -1.28516, 0.776367, -11.8408, 1.28.2022 18:46:58.733
810, 2.42358, 357.732, 246.494, 0.00195312, 0.0917969, -0.698242, 0.0585938, 1.02441, -8.3623, 1.28.2022 18:46:58.741
811, 2.4316, 357.724, 246.822, -0.00390625, 0.00488281, -0.708984, -0.166016, -0.630859, -6.70605, 1.28.2022 18:46:58.749
812, 2.44598, 357.744, 247.148, -0.0419922, -0.0458984, -0.71875, -1.00586, -1.60156, -8.44336, 1.28.2022 18:46:58.757
813, 2.48165, 357.771, 247.467, -0.0810547, 0.0107422, -0.71582, -0.567383, -0.460938, -9.26758, 1.28.2022 18:46:58.765
814, 2.51708, 357.772, 247.797, -0.0429688, 0.0283203, -0.71582, 0.462891, -1.24023, -12.2344, 1.28.2022 18:46:58.773
815, 2.53493, 357.787, 248.126, -0.0136719, -0.0166016, -0.71875, -0.19043, -1.45996, -13.9775, 1.28.2022 18:46:58.781
816, 2.53901, 357.81, 248.456, 0.00585938, -0.0126953, -0.71582, -0.332031, -0.257812, -9.4375, 1.28.2022 18:46:58.789
817, 2.53578, 357.819, 248.785, 0.0371094, 0.0292969, -0.708984, -0.426758, 0.0410156, -6.84668, 1.28.2022 18:46:58.797
818, 2.5246, 357.814, 249.107, 0.046875, 0.0634766, -0.719727, -0.484375, 0.283203, -7.00391, 1.28.2022 18:46:58.805
819, 2.50619, 357.796, 249.439, 0.0224609, 0.078125, -0.726562, -0.570312, 0.883789, -10.1152, 1.28.2022 18:46:58.813
820, 2.49917, 357.785, 249.781, 0.0078125, 0.0595703, -0.728516, -0.268555, 0.598633, -11.6426, 1.28.2022 18:46:58.821
821, 2.49448, 357.785, 250.112, 0.00878906, 0.0195312, -0.728516, -0.379883, -0.393555, -9.87988, 1.28.2022 18:46:58.829
822, 2.49098, 357.794, 250.446, -0.0195312, 0.00878906, -0.725586, 0.280273, -1.19336, -7.06641, 1.28.2022 18:46:58.837
823, 2.50465, 357.814, 250.771, -0.0488281, -0.0244141, -0.724609, -0.166992, 0.172852, -8.91113, 1.28.2022 18:46:58.845
824, 2.5217, 357.855, 251.105, -0.0175781, -0.0585938, -0.714844, -0.736328, -0.607422, -11.2666, 1.28.2022 18:46:58.853
825, 2.52683, 357.888, 251.431, -0.00488281, -0.00195312, -0.709961, -0.518555, -0.832031, -11.791, 1.28.2022 18:46:58.861
826, 2.52309, 357.896, 251.749, 0.00195312, 0.0195312, -0.710938, 0.726562, -0.128906, -9.60449, 1.28.2022 18:46:58.869
827, 2.51499, 357.911, 252.078, 0.0332031, -0.0136719, -0.717773, -0.336914, 0.256836, -10.21, 1.28.2022 18:46:58.877
828, 2.49745, 357.927, 252.405, 0.0390625, 0.0361328, -0.709961, -0.655273, 0.577148, -9.75879, 1.28.2022 18:46:58.885
829, 2.47503, 357.913, 252.726, 0.0410156, 0.115234, -0.700195, 0.416992, 0.366211, -7.45801, 1.28.2022 18:46:58.893
830, 2.45951, 357.878, 253.049, 0.0380859, 0.125977, -0.700195, 0.637695, 0.348633, -10.7881, 1.28.2022 18:46:58.901
831, 2.43767, 357.864, 253.37, 0.0351562, 0.00585938, -0.697266, -1.8584, 0.201172, -13.2529, 1.28.2022 18:46:58.909
832, 2.43798, 357.867, 253.684, -0.0078125, 0.0507812, -0.676758, -1.62207, -0.550781, -10.9326, 1.28.2022 18:46:58.917
833, 2.44621, 357.858, 254.001, -0.0537109, 0.0664062, -0.667969, 0.87793, -0.489258, -3.87207, 1.28.2022 18:46:58.925
834, 2.46333, 357.873, 254.307, -0.0351562, -0.0566406, -0.679688, 0.494141, -1.62695, -3.06641, 1.28.2022 18:46:58.933
835, 2.4852, 357.927, 254.614, -0.0527344, -0.115234, -0.6875, -2.22949, -0.457031, -12.7129, 1.28.2022 18:46:58.941
836, 2.51125, 357.976, 254.931, -0.0644531, 0.0136719, -0.675781, -0.0800781, -0.254883, -14.2012, 1.28.2022 18:46:58.949
837, 2.531, 357.976, 255.23, -0.0205078, 0.0419922, -0.664062, 1.43164, -0.400391, -14.168, 1.28.2022 18:46:58.957
838, 2.52361, 357.999, 255.539, 0.0244141, -0.0449219, -0.664062, 0.0292969, 0.230469, -10.4004, 1.28.2022 18:46:58.965
839, 2.51151, 358.028, 255.839, 0.0371094, -0.000976562, -0.65332, -0.851562, 0.532227, -7.7168, 1.28.2022 18:46:58.973
840, 2.49032, 358.023, 256.131, 0.0371094, 0.0947266, -0.643555, -0.540039, 0.175781, -7.19727, 1.28.2022 18:46:58.981
841, 2.47524, 357.987, 256.435, 0.0205078, 0.129883, -0.642578, 0.865234, 1.14551, -8.05469, 1.28.2022 18:46:58.989
842, 2.46279, 357.97, 256.729, 0.0263672, 0.0244141, -0.642578, -1.41309, 0.423828, -13.8428, 1.28.2022 18:46:58.997
843, 2.45829, 357.978, 257.014, -0.00585938, 0.0253906, -0.629883, -0.99707, -0.0908203, -10.2988, 1.28.2022 18:46:59.005
844, 2.46355, 357.984, 257.299, -0.03125, 0.0244141, -0.618164, 0.582031, -0.473633, -5.36914, 1.28.2022 18:46:59.013
845, 2.47484, 358.004, 257.586, -0.0273438, -0.0380859, -0.62207, 0.462891, -1.2002, -6.16504, 1.28.2022 18:46:59.021
846, 2.48851, 358.044, 257.873, -0.03125, -0.0498047, -0.621094, -0.194336, -0.220703, -11.125, 1.28.2022 18:46:59.029
847, 2.4963, 358.08, 258.151, -0.0205078, -0.0341797, -0.603516, -0.768555, 0.458008, -15.4434, 1.28.2022 18:46:59.037
848, 2.49724, 358.101, 258.421, 0, 0.00683594, -0.583008, -0.408203, 0.266602, -13.9336, 1.28.2022 18:46:59.045
849, 2.49284, 358.117, 258.682, 0.0126953, 0.0214844, -0.566406, 0.841797, 0.302734, -5.91211, 1.28.2022 18:46:59.053
850, 2.47713, 358.125, 258.944, 0.0273438, 0.0146484, -0.561523, -0.148438, -0.0546875, -6.86523, 1.28.2022 18:46:59.061
851, 2.46104, 358.123, 259.197, 0.0214844, 0.0673828, -0.558594, -0.651367, 0.201172, -8.91699, 1.28.2022 18:46:59.069
852, 2.45254, 358.099, 259.452, 0.00390625, 0.124023, -0.547852, 0.123047, 0.753906, -11.0986, 1.28.2022 18:46:59.077
853, 2.44771, 358.061, 259.708, 0.00585938, 0.09375, -0.541016, 0.375977, 0.59668, -10.6582, 1.28.2022 18:46:59.085
854, 2.43555, 358.053, 259.955, 0.0107422, 0.0234375, -0.53418, -1.12891, -0.695312, -12.333, 1.28.2022 18:46:59.093
855, 2.445, 358.062, 260.192, -0.0380859, 0.0107422, -0.510742, -0.535156, 0.00390625, -7.42676, 1.28.2022 18:46:59.101
856, 2.45459, 358.072, 260.42, -0.046875, 0.00878906, -0.491211, 0.348633, -0.275391, -6.38086, 1.28.2022 18:46:59.109
857, 2.47043, 358.105, 260.64, -0.0302734, -0.0878906, -0.485352, -0.0722656, -1.12012, -5.78125, 1.28.2022 18:46:59.117
858, 2.48318, 358.164, 260.859, -0.0351562, -0.0898438, -0.479492, -1.13184, -0.779297, -12.6494, 1.28.2022 18:46:59.125
859, 2.49337, 358.193, 261.079, -0.0439453, 0.0126953, -0.46875, 0.532227, 0.164062, -13.1416, 1.28.2022 18:46:59.133
860, 2.50289, 358.212, 261.291, -0.00878906, -0.0126953, -0.458008, 0.254883, 0.482422, -14.3379, 1.28.2022 18:46:59.139
861, 2.49241, 358.232, 261.492, 0.0234375, -0.000976562, -0.442383, 0.813477, 0.176758, -6.4209, 1.28.2022 18:46:59.147
862, 2.47055, 358.233, 261.695, 0.0390625, 0.0449219, -0.430664, -0.307617, 0.796875, -6.19434, 1.28.2022 18:46:59.155
863, 2.44707, 358.215, 261.889, 0.0488281, 0.0996094, -0.421875, -0.71582, 0.807617, -11.0938, 1.28.2022 18:46:59.163
864, 2.42754, 358.181, 262.084, 0.0234375, 0.118164, -0.407227, 0.112305, 1.16113, -12.75, 1.28.2022 18:46:59.171
865, 2.41405, 358.161, 262.26, 0.00976562, 0.0322266, -0.387695, -1.66406, 1.02832, -12.2695, 1.28.2022 18:46:59.179
866, 2.40652, 358.155, 262.437, -0.0195312, 0.0429688, -0.369141, 0.138672, -0.727539, -6.04785, 1.28.2022 18:46:59.187
867, 2.41414, 358.163, 262.605, -0.0488281, 0.000976562, -0.362305, 1.11914, -0.526367, -2.86426, 1.28.2022 18:46:59.195
868, 2.43326, 358.191, 262.772, -0.0595703, -0.0917969, -0.363281, 0.173828, -0.113281, -5.03906, 1.28.2022 18:46:59.203
869, 2.44407, 358.248, 262.929, -0.0244141, -0.0771484, -0.351562, -1.86523, -1.00977, -18.1924, 1.28.2022 18:46:59.211
870, 2.45231, 358.266, 263.087, -0.0234375, 0.0488281, -0.329102, 1.54883, 0.382812, -13.9805, 1.28.2022 18:46:59.219
871, 2.44521, 358.28, 263.236, 0.0175781, -0.0292969, -0.320312, 1.31934, 0.72168, -11.9551, 1.28.2022 18:46:59.227
872, 2.41449, 358.309, 263.374, 0.0771484, -0.0664062, -0.3125, -0.430664, 0.481445, -8.31543, 1.28.2022 18:46:59.235
873, 2.37806, 358.334, 263.513, 0.0683594, 0.0234375, -0.297852, -0.740234, 0.46875, -6.79395, 1.28.2022 18:46:59.243
874, 2.34869, 358.309, 263.653, 0.0292969, 0.125977, -0.283203, 0.678711, 1.25488, -7.5293, 1.28.2022 18:46:59.251
875, 2.32407, 358.279, 263.776, 0.0244141, 0.0664062, -0.27832, 0.37207, 1.66602, -11.6494, 1.28.2022 18:46:59.259
876, 2.31076, 358.277, 263.907, 0.0146484, -0.0273438, -0.267578, -1.49414, 0.456055, -13.1602, 1.28.2022 18:46:59.267
877, 2.30837, 358.294, 264.019, -0.0527344, 0.015625, -0.238281, 0.205078, -0.529297, -6.78223, 1.28.2022 18:46:59.275
878, 2.3302, 358.305, 264.123, -0.0703125, -0.0126953, -0.225586, 1.07422, -0.616211, -3.65039, 1.28.2022 18:46:59.283
879, 2.353, 358.336, 264.226, -0.0449219, -0.0791016, -0.225586, -1.80859, -0.608398, -13.0312, 1.28.2022 18:46:59.291
880, 2.35982, 358.353, 264.33, -0.0214844, 0.0458984, -0.220703, 0.987305, -1.18262, -14.1426, 1.28.2022 18:46:59.299
881, 2.36105, 358.345, 264.425, -0.0107422, 0.0224609, -0.207031, 0.928711, 1.36523, -14.0547, 1.28.2022 18:46:59.307
882, 2.34312, 358.358, 264.518, 0.0439453, -0.0449219, -0.201172, 0.0449219, 0.642578, -7.16309, 1.28.2022 18:46:59.315
883, 2.3102, 358.376, 264.611, 0.0488281, 0.0283203, -0.192383, -0.670898, 0.125, -6.34375, 1.28.2022 18:46:59.323
884, 2.29104, 358.359, 264.696, 0.0205078, 0.0966797, -0.185547, 0.320312, 1.39648, -7.04297, 1.28.2022 18:46:59.331
885, 2.27579, 358.327, 264.782, 0.0107422, 0.0791016, -0.188477, 0.910156, 1.55176, -10.3125, 1.28.2022 18:46:59.339
886, 2.26192, 358.324, 264.867, 0.0224609, -0.03125, -0.188477, -1.50879, 0.594727, -14.4482, 1.28.2022 18:46:59.347
887, 2.25364, 358.336, 264.952, -0.0224609, 0.00683594, -0.176758, 0.349609, -1.0166, -7.20703, 1.28.2022 18:46:59.355
888, 2.27025, 358.352, 265.037, -0.0634766, -0.0205078, -0.176758, 1.32617, -0.220703, -3.60059, 1.28.2022 18:46:59.363
889, 2.27329, 358.393, 265.111, -0.0107422, -0.111328, -0.188477, -1.91895, -0.520508, -14.4717, 1.28.2022 18:46:59.371
890, 2.27049, 358.419, 265.196, 0.00195312, 0.0166016, -0.185547, 1.0166, -0.512695, -11.9561, 1.28.2022 18:46:59.379
891, 2.2621, 358.431, 265.281, -0.00292969, 0.00292969, -0.170898, 0.895508, 1.10742, -12.5215, 1.28.2022 18:46:59.387
892, 2.24916, 358.448, 265.356, 0.0488281, -0.0527344, -0.168945, 0.40625, 0.876953, -6.85254, 1.28.2022 18:46:59.395
893, 2.21608, 358.466, 265.431, 0.0566406, 0.0126953, -0.163086, -0.822266, -0.357422, -8.95801, 1.28.2022 18:46:59.403
894, 2.19642, 358.448, 265.507, 0.00683594, 0.103516, -0.158203, 0.733398, 1.44336, -6.87598, 1.28.2022 18:46:59.411
895, 2.18115, 358.416, 265.584, 0.015625, 0.0664062, -0.165039, -0.00976562, 1.07812, -12.5967, 1.28.2022 18:46:59.419
896, 2.17216, 358.408, 265.66, 0.00488281, 0.0263672, -0.165039, -0.444336, -0.0849609, -11.8311, 1.28.2022 18:46:59.427
897, 2.16795, 358.405, 265.736, -0.0410156, 0.0195312, -0.160156, 0.59375, -0.793945, -7.14355, 1.28.2022 18:46:59.435
898, 2.18442, 358.42, 265.803, -0.0498047, -0.0712891, -0.163086, -0.232422, -0.65625, -5.9873, 1.28.2022 18:46:59.443
899, 2.19663, 358.461, 265.878, -0.0380859, -0.0527344, -0.161133, -1.76758, -0.649414, -13.9961, 1.28.2022 18:46:59.451
900, 2.21284, 358.476, 265.955, -0.0458984, 0.0195312, -0.154297, 2.0332, 0.175781, -7.70605, 1.28.2022 18:46:59.459
901, 2.21459, 358.498, 266.021, -0.00683594, -0.0654297, -0.15625, 0.121094, 0.280273, -13.0752, 1.28.2022 18:46:59.467
902, 2.20678, 358.529, 266.087, 0.0126953, -0.0351562, -0.154297, 0.117188, 0.529297, -8.91992, 1.28.2022 18:46:59.475
903, 2.19294, 358.536, 266.163, 0.00976562, 0.0458984, -0.146484, 0.500977, 0.712891, -7.96191, 1.28.2022 18:46:59.483
904, 2.17797, 358.513, 266.23, 0.0273438, 0.0732422, -0.150391, 0.270508, 1.18848, -9.39355, 1.28.2022 18:46:59.491
905, 2.15859, 358.495, 266.297, 0.0429688, 0.0625, -0.152344, 0.0566406, 0.496094, -11.4619, 1.28.2022 18:46:59.499
906, 2.13955, 358.487, 266.364, 0.0263672, -0.0078125, -0.147461, -0.905273, 0.553711, -9.84766, 1.28.2022 18:46:59.507
907, 2.12078, 358.499, 266.43, 0.00976562, -0.0185547, -0.139648, -0.771484, 0.451172, -7.25195, 1.28.2022 18:46:59.515
908, 2.11219, 358.52, 266.497, -0.000976562, -0.0292969, -0.129883, -1.31543, 0.0683594, -10.6318, 1.28.2022 18:46:59.523
909, 2.10857, 358.536, 266.554, -0.00195312, -0.0166016, -0.128906, 1.09375, -0.217773, -9.4668, 1.28.2022 18:46:59.531
910, 2.10013, 358.557, 266.61, 0.000976562, -0.0439453, -0.12793, 0.540039, 0.399414, -11.7695, 1.28.2022 18:46:59.539
911, 2.09162, 358.588, 266.667, 0.00976562, -0.0380859, -0.121094, 0.584961, 0.134766, -9.94922, 1.28.2022 18:46:59.547
912, 2.08271, 358.599, 266.714, 0.00585938, 0.0234375, -0.112305, 0.392578, 0.292969, -10.0811, 1.28.2022 18:46:59.555
913, 2.07275, 358.581, 266.772, 0.0136719, 0.0693359, -0.107422, 0.167969, 0.610352, -8.74609, 1.28.2022 18:46:59.563
914, 2.05285, 358.553, 266.821, 0.0234375, 0.0966797, -0.104492, 0.258789, 0.206055, -10.2324, 1.28.2022 18:46:59.571
915, 2.04285, 358.524, 266.869, 0.0078125, 0.046875, -0.106445, -0.503906, 0.579102, -10.6406, 1.28.2022 18:46:59.579
916, 2.03334, 358.525, 266.917, -0.00292969, -0.00488281, -0.0996094, -1.8125, 0.569336, -10.6152, 1.28.2022 18:46:59.587
917, 2.02883, 358.521, 266.956, -0.00878906, 0.0341797, -0.0830078, 0, -0.56543, -7.72949, 1.28.2022 18:46:59.595
918, 2.02966, 358.532, 266.994, -0.0107422, -0.0351562, -0.0830078, 0.866211, -0.0712891, -7.35938, 1.28.2022 18:46:59.603
919, 2.02619, 358.567, 267.032, -0.0166016, -0.0947266, -0.0839844, -0.810547, 0.483398, -11.833, 1.28.2022 18:46:59.611
920, 2.02717, 358.597, 267.069, -0.00292969, -0.0185547, -0.0771484, 0.882812, 0.589844, -10.0498, 1.28.2022 18:46:59.619
921, 2.02301, 358.613, 267.098, -0.0107422, -0.0107422, -0.0625, 0.458984, 0.930664, -13.3223, 1.28.2022 18:46:59.627
922, 2.0186, 358.618, 267.126, 0.0117188, 0.00976562, -0.0576172, 0.679688, 0.81543, -8.69922, 1.28.2022 18:46:59.635
923, 2.00405, 358.614, 267.155, 0.0283203, 0.0400391, -0.0498047, -0.481445, 0.302734, -8.50098, 1.28.2022 18:46:59.643
924, 1.98887, 358.59, 267.175, 0.00683594, 0.0859375, -0.0458984, 0.756836, 0.327148, -8.44238, 1.28.2022 18:46:59.651
925, 1.98383, 358.576, 267.194, -0.00585938, -0.0136719, -0.0498047, -1.89941, 0.920898, -12.6426, 1.28.2022 18:46:59.659
926, 1.97422, 358.577, 267.213, 0.00878906, 0.0498047, -0.0478516, -0.890625, 0.388672, -11.0693, 1.28.2022 18:46:59.667
927, 1.96418, 358.567, 267.242, 0.0078125, 0.0136719, -0.046875, 1.22852, -0.803711, -5.87598, 1.28.2022 18:46:59.675
928, 1.95505, 358.588, 267.261, 0.000976562, -0.0751953, -0.0507812, -0.90918, 0.0136719, -10.1816, 1.28.2022 18:46:59.683
929, 1.94646, 358.618, 267.279, 0.0126953, -0.0214844, -0.0488281, 0.693359, 0.248047, -8.10547, 1.28.2022 18:46:59.691
930, 1.93689, 358.628, 267.307, 0.0166016, 0.00195312, -0.0449219, 0.581055, 0.398438, -12.1436, 1.28.2022 18:46:59.699
931, 1.91738, 358.629, 267.326, 0.0371094, 0.0107422, -0.0507812, 0.841797, 0.993164, -10.3525, 1.28.2022 18:46:59.707
932, 1.89787, 358.63, 267.345, 0.0380859, 0.00195312, -0.0507812, -0.217773, 0.561523, -11.0488, 1.28.2022 18:46:59.715
933, 1.88324, 358.636, 267.373, 0.0078125, 0.0253906, -0.046875, -0.0595703, 0.631836, -8, 1.28.2022 18:46:59.723
934, 1.87844, 358.631, 267.393, -0.00976562, 0.00585938, -0.046875, -1.40234, 0.484375, -9.63379, 1.28.2022 18:46:59.731
935, 1.87365, 358.627, 267.412, -0.0136719, 0.0351562, -0.0419922, -0.425781, -0.0957031, -10.2324, 1.28.2022 18:46:59.739
936, 1.88379, 358.627, 267.432, -0.0351562, -0.00390625, -0.0380859, 0.555664, -0.143555, -9.4248, 1.28.2022 18:46:59.747
937, 1.89438, 358.647, 267.451, -0.0341797, -0.0449219, -0.0361328, -0.530273, -0.264648, -10.9893, 1.28.2022 18:46:59.755
938, 1.90483, 358.666, 267.46, -0.0302734, -0.015625, -0.0234375, 0.475586, -0.207031, -7.57129, 1.28.2022 18:46:59.763
939, 1.91001, 358.671, 267.47, -0.0175781, 0.0117188, -0.0136719, 0.695312, -0.0371094, -9.07715, 1.28.2022 18:46:59.771
940, 1.90508, 358.667, 267.479, 0.0078125, 0.0195312, -0.0185547, 0.433594, 0.503906, -11.1836, 1.28.2022 18:46:59.779
941, 1.8952, 358.667, 267.479, 0.00976562, 0.00976562, -0.0195312, 0.0292969, 0.644531, -10.8809, 1.28.2022 18:46:59.787
942, 1.89049, 358.672, 267.489, -0.0126953, -0.00683594, -0.0195312, -0.862305, 1.15234, -9.63574, 1.28.2022 18:46:59.795
943, 1.89567, 358.677, 267.498, -0.0117188, 0.00976562, -0.0195312, -1.35059, 0.792969, -9.9834, 1.28.2022 18:46:59.803
944, 1.89074, 358.673, 267.508, -0.00878906, 0.03125, -0.0214844, 0.612305, -0.541016, -9.01855, 1.28.2022 18:46:59.811
945, 1.90097, 358.682, 267.518, -0.0400391, -0.0351562, -0.0214844, -0.446289, 0.702148, -10.1152, 1.28.2022 18:46:59.819
946, 1.91119, 358.692, 267.527, -0.0244141, -0.0117188, -0.0224609, 0.417969, -0.241211, -9.41406, 1.28.2022 18:46:59.827
947, 1.92141, 358.702, 267.537, -0.0322266, 0.00195312, -0.015625, -0.233398, 0.0361328, -12.0625, 1.28.2022 18:46:59.835
948, 1.92637, 358.697, 267.547, -0.0146484, 0.0419922, -0.0166016, 1.12891, 0.258789, -7.75586, 1.28.2022 18:46:59.843
949, 1.92114, 358.692, 267.557, 0.00390625, 0.0185547, -0.0234375, -0.118164, 0.399414, -10.252, 1.28.2022 18:46:59.851
950, 1.91652, 358.688, 267.566, -0.00292969, 0.0175781, -0.0253906, -0.209961, 0.331055, -10.0537, 1.28.2022 18:46:59.859
951, 1.91686, 358.698, 267.576, -0.0146484, -0.0166016, -0.0253906, -1.03418, 0.935547, -10.2207, 1.28.2022 18:46:59.867
952, 1.92203, 358.703, 267.585, -0.00195312, 0.00488281, -0.0253906, -0.944336, 0.322266, -9.7832, 1.28.2022 18:46:59.875
953, 1.91713, 358.708, 267.605, -0.00585938, -0.00292969, -0.0283203, 0.839844, -1.14355, -7.79883, 1.28.2022 18:46:59.883
954, 1.91766, 358.728, 267.614, -0.0244141, -0.0585938, -0.0292969, -0.296875, 0.610352, -8.06348, 1.28.2022 18:46:59.891
955, 1.9184, 358.758, 267.623, 0.00488281, -0.0322266, -0.03125, 0.359375, 0.129883, -9.7666, 1.28.2022 18:46:59.899
956, 1.91401, 358.773, 267.641, 0, 0, -0.0273438, 0.0527344, 0.65332, -13.2168, 1.28.2022 18:46:59.907
957, 1.90424, 358.774, 267.651, 0.0214844, 0.015625, -0.0292969, 0.545898, 0.979492, -8.73047, 1.28.2022 18:46:59.915
958, 1.88943, 358.769, 267.66, 0.0380859, 0.0302734, -0.0292969, -0.0107422, 0.0703125, -9.66016, 1.28.2022 18:46:59.923
959, 1.86969, 358.76, 267.679, 0.0126953, 0.0263672, -0.0273438, -0.397461, 0.361328, -9.83789, 1.28.2022 18:46:59.931
960, 1.86476, 358.755, 267.689, -0.00195312, 0.00292969, -0.0263672, -1.6582, 1.11035, -11.1455, 1.28.2022 18:46:59.939
961, 1.85984, 358.751, 267.699, 0.0214844, 0.0556641, -0.0224609, 0.489258, -0.560547, -8.41309, 1.28.2022 18:46:59.947
962, 1.84503, 358.746, 267.708, 0.00195312, -0.0126953, -0.0263672, 1.02441, -1.1123, -4.83008, 1.28.2022 18:46:59.955
963, 1.8504, 358.771, 267.727, -0.0126953, -0.0585938, -0.0283203, -0.636719, 0.331055, -8.80957, 1.28.2022 18:46:59.963
964, 1.84607, 358.796, 267.736, 0.00683594, -0.0292969, -0.0244141, -0.0361328, -0.488281, -9.70117, 1.28.2022 18:46:59.971
965, 1.84134, 358.801, 267.745, -0.00976562, 0.0214844, -0.0146484, 0.364258, 0.28418, -12.7979, 1.28.2022 18:46:59.979
966, 1.84145, 358.801, 267.755, 0.0078125, 0.0126953, -0.0175781, 0.568359, 0.688477, -10.5547, 1.28.2022 18:46:59.987
967, 1.83186, 358.802, 267.755, 0.00292969, -0.000976562, -0.0166016, -0.263672, 0.124023, -10.2412, 1.28.2022 18:46:59.995
968, 1.83168, 358.802, 267.765, -0.0234375, 0.0234375, -0.0117188, -0.4375, 0.210938, -8.72363, 1.28.2022 18:47:0.003
969, 1.84168, 358.802, 267.775, -0.0283203, 0.0185547, -0.0146484, -0.927734, 0.383789, -9.35156, 1.28.2022 18:47:0.011
970, 1.85166, 358.792, 267.775, -0.0205078, 0.0410156, -0.0166016, 0.347656, -0.712891, -8.02539, 1.28.2022 18:47:0.019
971, 1.85662, 358.787, 267.785, -0.0390625, -0.00195312, -0.0224609, 0.107422, 0.354492, -8.09082, 1.28.2022 18:47:0.027
972, 1.87185, 358.801, 267.795, -0.0332031, -0.0390625, -0.0253906, -0.770508, -0.0458984, -11.8291, 1.28.2022 18:47:0.035
973, 1.87739, 358.826, 267.804, -0.0166016, -0.0224609, -0.0234375, 0.179688, -0.100586, -8.42383, 1.28.2022 18:47:0.043
974, 1.88272, 358.841, 267.813, -0.0107422, -0.0117188, -0.0214844, 0.439453, 0.667969, -8.9375, 1.28.2022 18:47:0.051
975, 1.87314, 358.851, 267.822, 0.0195312, -0.0244141, -0.0224609, -0.203125, 0.905273, -11.2031, 1.28.2022 18:47:0.059
976, 1.86325, 358.862, 267.832, 0.0166016, 0.00390625, -0.015625, 0.144531, 0.951172, -9.75195, 1.28.2022 18:47:0.067
977, 1.85348, 358.862, 267.841, 0, 0.00878906, -0.0126953, -0.270508, 0.713867, -10.5479, 1.28.2022 18:47:0.075
978, 1.84873, 358.867, 267.851, -0.000976562, 0.0117188, -0.0136719, -1.00195, 0.883789, -10.2529, 1.28.2022 18:47:0.083
979, 1.84351, 358.852, 267.851, 0.015625, 0.0615234, -0.0175781, 0.1875, -0.133789, -10.4697, 1.28.2022 18:47:0.091
980, 1.83858, 358.848, 267.861, -0.00488281, 0.015625, -0.0205078, 0.666992, 0.0859375, -8.9248, 1.28.2022 18:47:0.099
981, 1.83384, 358.853, 267.87, 0.0078125, -0.0253906, -0.0234375, -1.43164, 0.101562, -11.5908, 1.28.2022 18:47:0.105
982, 1.8291, 358.858, 267.88, 0.0146484, 0.0253906, -0.015625, 0.0732422, -0.0410156, -8.21973, 1.28.2022 18:47:0.113
983, 1.81932, 358.858, 267.889, 0.0136719, 0, -0.0146484, 0.375977, -0.00878906, -7.00488, 1.28.2022 18:47:0.121
984, 1.80441, 358.864, 267.898, 0.0244141, -0.015625, -0.0214844, -0.0644531, 0.15625, -10.0381, 1.28.2022 18:47:0.129
985, 1.78996, 358.879, 267.907, 0.00976562, -0.0214844, -0.0224609, -0.416992, 0.560547, -11.3955, 1.28.2022 18:47:0.137
986, 1.79025, 358.889, 267.917, -0.00878906, -0.00195312, -0.0214844, 0.0888672, 0.794922, -11.1279, 1.28.2022 18:47:0.145
987, 1.79053, 358.899, 267.926, -0.015625, -0.0166016, -0.0214844, -0.418945, 0.366211, -10, 1.28.2022 18:47:0.153
988, 1.79082, 358.909, 267.936, -0.0107422, 0.0146484, -0.0234375, -0.0429688, 0.0537109, -9.98926, 1.28.2022 18:47:0.161
989, 1.8008, 358.909, 267.946, -0.0292969, 0.0234375, -0.0214844, 0.629883, -0.317383, -8.40332, 1.28.2022 18:47:0.169
990, 1.81079, 358.909, 267.956, -0.0205078, -0.00878906, -0.0244141, -1.0127, 0.186523, -12.3125, 1.28.2022 18:47:0.177
991, 1.81089, 358.909, 267.965, -0.0078125, 0.0214844, -0.0175781, -0.277344, 0.214844, -10.2314, 1.28.2022 18:47:0.185
992, 1.81099, 358.909, 267.975, 0.0078125, 0.015625, -0.0126953, 0.0253906, 0.206055, -7.45312, 1.28.2022 18:47:0.193
993, 1.80121, 358.91, 267.984, 0.0234375, 0.00878906, -0.0126953, 0.101562, 0.28125, -7.9043, 1.28.2022 18:47:0.201
994, 1.7915, 358.92, 267.984, 0.0126953, -0.0214844, -0.00976562, -0.352539, 0.572266, -10.0195, 1.28.2022 18:47:0.209
995, 1.78682, 358.935, 267.983, -0.00878906, -0.0185547, -0.00683594, -0.0869141, 1.1084, -11.5273, 1.28.2022 18:47:0.217
996, 1.78224, 358.95, 267.993, -0.00878906, -0.0361328, -0.00488281, -0.765625, 0.509766, -11.8379, 1.28.2022 18:47:0.225
997, 1.78745, 358.964, 267.992, -0.0078125, 0.0136719, -0.00683594, 1.04492, -0.766602, -6.71777, 1.28.2022 18:47:0.233
998, 1.79248, 358.969, 267.992, -0.0371094, -0.00488281, -0.00488281, 0.180664, 0.0429688, -8.81152, 1.28.2022 18:47:0.241
999, 1.80739, 358.974, 267.993, -0.0283203, 0.00292969, -0.0078125, 0.120117, -0.669922, -10.2852, 1.28.2022 18:47:0.249
1000, 1.81234, 358.969, 268.003, -0.0224609, 0.03125, -0.00585938, -0.416992, 0.15332, -11.2324, 1.28.2022 18:47:0.257
1001, 1.8172, 358.964, 268.003, 0, 0.03125, -0.00488281, -0.256836, 0.689453, -8.07617, 1.28.2022 18:47:0.265
1002, 1.80714, 358.954, 268.003, 0.0146484, 0.0400391, -0.00292969, 0.0234375, 0.493164, -9.22168, 1.28.2022 18:47:0.273
1003, 1.79726, 358.955, 268.003, 0.0136719, -0.00878906, -0.00195312, -0.259766, 0.548828, -9.06738, 1.28.2022 18:47:0.281
1004, 1.79257, 358.969, 268.002, 0, -0.03125, -0.00390625, -0.725586, 1.1543, -10.5928, 1.28.2022 18:47:0.289
1005, 1.78771, 358.984, 268.012, 0.00683594, -0.0361328, -0.00585938, -0.652344, 0.286133, -10.6738, 1.28.2022 18:47:0.297
1006, 1.7833, 358.999, 268.011, 0.00878906, 0.00488281, -0.0078125, 1.33203, 0.0996094, -6.7666, 1.28.2022 18:47:0.305
1007, 1.77862, 359.014, 268.01, -0.00585938, -0.0361328, -0.00976562, 0.101562, 0.207031, -12.4414, 1.28.2022 18:47:0.313
1008, 1.77878, 359.034, 268.02, -0.00390625, -0.0107422, -0.00488281, 0.0566406, 0.232422, -9.62402, 1.28.2022 18:47:0.321
1009, 1.77375, 359.029, 268.02, 0.000976562, 0.0410156, 0.00195312, 0.220703, -0.0703125, -9.7627, 1.28.2022 18:47:0.329
1010, 1.76855, 359.015, 268.02, 0.0175781, 0.0429688, 0.00585938, 0.0410156, 0.295898, -9.02246, 1.28.2022 18:47:0.337
1011, 1.75365, 359, 268.01, 0.0244141, 0.046875, 0.00683594, -0.398438, 0.228516, -11.0078, 1.28.2022 18:47:0.345
1012, 1.74359, 358.99, 268.01, 0.00976562, 0.015625, 0.00878906, -0.361328, 0.223633, -9.39551, 1.28.2022 18:47:0.353
1013, 1.74349, 359, 268.01, -0.00488281, -0.0263672, 0.0078125, -0.921875, 0.697266, -9.20605, 1.28.2022 18:47:0.361
1014, 1.74402, 359.02, 268, -0.00683594, -0.0205078, 0.00878906, -0.451172, -0.0654297, -8.91113, 1.28.2022 18:47:0.369
1015, 1.74436, 359.04, 267.999, -0.0166016, -0.0488281, 0, 0.922852, -0.90918, -7.01465, 1.28.2022 18:47:0.377
1016, 1.7545, 359.069, 267.999, -0.0351562, -0.0566406, 0.000976562, -0.167969, 0.680664, -10.2959, 1.28.2022 18:47:0.385
1017, 1.76473, 359.089, 267.999, -0.0234375, -0.0244141, 0.00488281, 0.740234, -0.235352, -11.1738, 1.28.2022 18:47:0.393
1018, 1.77515, 359.108, 267.989, -0.0224609, -0.0117188, 0.00878906, -0.166016, 0.262695, -12.459, 1.28.2022 18:47:0.401
1019, 1.77973, 359.103, 267.989, -0.0078125, 0.0458984, 0.0126953, 0.431641, 0.817383, -7.58984, 1.28.2022 18:47:0.409
1020, 1.77471, 359.088, 267.979, 0.0117188, 0.0625, 0.0185547, 0.134766, 0.248047, -9.375, 1.28.2022 18:47:0.417
1021, 1.76924, 359.063, 267.97, 0, 0.0390625, 0.0175781, -0.0078125, 0.407227, -9.80469, 1.28.2022 18:47:0.425
1022, 1.76916, 359.063, 267.961, -0.0126953, -0.0078125, 0.0107422, -1.49707, 1.23828, -11.2061, 1.28.2022 18:47:0.433
1023, 1.76933, 359.073, 267.96, 0.00585938, -0.00585938, 0.0078125, -1.03125, -0.0625, -9.94336, 1.28.2022 18:47:0.441
1024, 1.76439, 359.088, 267.96, -0.00488281, -0.0224609, 0.00390625, 1.20508, -0.891602, -4.78125, 1.28.2022 18:47:0.449
1025, 1.76996, 359.113, 267.95, -0.0244141, -0.0800781, 0.00390625, -0.612305, 0.793945, -8.68848, 1.28.2022 18:47:0.457
1026, 1.77552, 359.147, 267.949, 0, -0.0361328, 0.00683594, 0.998047, -0.0478516, -10.1904, 1.28.2022 18:47:0.465
1027, 1.77058, 359.162, 267.949, -0.00585938, -0.0185547, 0.00976562, 0.0498047, 0.472656, -15.0479, 1.28.2022 18:47:0.473
1028, 1.77094, 359.172, 267.939, 0.0107422, 0.0175781, 0.00976562, 0.681641, 0.975586, -8.60938, 1.28.2022 18:47:0.481
1029, 1.75073, 359.162, 267.939, 0.0361328, 0.0439453, 0.0126953, 0.0576172, -0.287109, -9.38379, 1.28.2022 18:47:0.489
1030, 1.74067, 359.142, 267.929, 0.00878906, 0.0625, 0.0146484, -0.0947266, 0.625977, -7.95703, 1.28.2022 18:47:0.497
1031, 1.73519, 359.128, 267.929, 0.00195312, 0.0361328, 0.0107422, -1.3916, 0.945312, -11.9785, 1.28.2022 18:47:0.505
1032, 1.73519, 359.118, 267.92, 0.00683594, 0.0253906, 0.0107422, -1.22168, 0.40918, -10.9219, 1.28.2022 18:47:0.513
1033, 1.7299, 359.113, 267.92, 0.00585938, 0.00878906, 0.0078125, -0.0322266, 0.27832, -7.86621, 1.28.2022 18:47:0.521
1034, 1.72541, 359.128, 267.909, -0.0126953, -0.0556641, 0.00976562, 0.227539, -0.470703, -7.14453, 1.28.2022 18:47:0.529
1035, 1.73098, 359.162, 267.909, -0.00292969, -0.0585938, 0.00878906, -0.31543, -0.0732422, -10.2979, 1.28.2022 18:47:0.537
1036, 1.72642, 359.187, 267.898, -0.0117188, -0.0263672, 0.015625, 0.295898, 0.270508, -12.6455, 1.28.2022 18:47:0.545
1037, 1.73156, 359.201, 267.889, -0.00683594, -0.0078125, 0.0175781, 0.922852, 0.495117, -9.77051, 1.28.2022 18:47:0.553
1038, 1.72644, 359.206, 267.888, 0.0107422, -0.00195312, 0.0166016, 0.194336, -0.0351562, -10.4814, 1.28.2022 18:47:0.561
1039, 1.72152, 359.211, 267.879, -0.0078125, 0.00878906, 0.0205078, -0.188477, 0.389648, -8.54102, 1.28.2022 18:47:0.569
