Seq, Rot x, Rot y, Rot z, Vel x, Vel y, Vel z, Acc x, Acc y, Acc z, Time(m.d.y h:m:s.ms)
0, 2.20305, 359.858, 179.527, 0, -0.000976562, -0.000976562, -0.0107422, 0.399414, -9.70117, 1.19.2022 20:7:3.757
1, 2.20302, 359.851, 179.527, -0.000976562, 0, -0.000976562, 0.0439453, 0.351562, -9.70996, 1.19.2022 20:7:3.763
2, 2.20302, 359.851, 179.527, 0, -0.000976562, 0, 0.0361328, 0.360352, -9.74512, 1.19.2022 20:7:3.771
3, 2.20301, 359.851, 179.52, -0.000976562, -0.000976562, 0, -0.015625, 0.405273, -9.72168, 1.19.2022 20:7:3.779
4, 2.20301, 359.851, 179.52, 0, -0.000976562, 0, 0.0722656, 0.363281, -9.71484, 1.19.2022 20:7:3.787
5, 2.20301, 359.851, 179.52, -0.000976562, -0.000976562, -0.000976562, 0.0146484, 0.374023, -9.72852, 1.19.2022 20:7:3.795
6, 2.20301, 359.851, 179.52, 0, -0.000976562, -0.000976562, 0.015625, 0.385742, -9.71387, 1.19.2022 20:7:3.803
7, 2.20301, 359.851, 179.52, 0, -0.000976562, -0.000976562, 0.0576172, 0.344727, -9.71094, 1.19.2022 20:7:3.811
8, 2.20301, 359.851, 179.52, 0, -0.000976562, -0.000976562, -0.00390625, 0.358398, -9.69336, 1.19.2022 20:7:3.819
9, 2.20301, 359.851, 179.52, -0.000976562, 0, -0.000976562, 0.0537109, 0.350586, -9.68945, 1.19.2022 20:7:3.827
10, 2.20301, 359.851, 179.52, -0.000976562, -0.000976562, 0, 0.0371094, 0.37793, -9.69727, 1.19.2022 20:7:3.835
11, 2.20298, 359.844, 179.52, 0, -0.000976562, -0.000976562, -0.000976562, 0.396484, -9.69434, 1.19.2022 20:7:3.843
12, 2.20298, 359.844, 179.52, 0, -0.000976562, 0, 0.0742188, 0.352539, -9.73926, 1.19.2022 20:7:3.851
13, 2.20298, 359.844, 179.52, -0.00195312, -0.00195312, 0, -0.0185547, 0.366211, -9.72266, 1.19.2022 20:7:3.857
14, 2.20298, 359.844, 179.52, 0, 0.00195312, -0.000976562, 0.0175781, 0.396484, -9.69434, 1.19.2022 20:7:3.867
15, 2.20298, 359.844, 179.52, -0.000976562, 0, -0.000976562, 0.0742188, 0.366211, -9.72656, 1.19.2022 20:7:3.873
16, 2.20298, 359.844, 179.52, -0.000976562, 0, -0.000976562, -0.0136719, 0.394531, -9.70801, 1.19.2022 20:7:3.881
17, 2.20298, 359.844, 179.52, 0, 0, 0, 0.0556641, 0.359375, -9.72949, 1.19.2022 20:7:3.889
18, 2.20295, 359.837, 179.52, 0, 0.00195312, -0.000976562, 0.0224609, 0.371094, -9.72852, 1.19.2022 20:7:3.897
19, 2.20295, 359.837, 179.52, -0.000976562, -0.000976562, -0.000976562, -0.0195312, 0.386719, -9.67773, 1.19.2022 20:7:3.905
20, 2.20295, 359.837, 179.52, -0.000976562, -0.000976562, -0.000976562, 0.0693359, 0.34082, -9.7373, 1.19.2022 20:7:3.913
21, 2.20295, 359.837, 179.52, -0.000976562, 0, -0.000976562, -0.0302734, 0.392578, -9.71289, 1.19.2022 20:7:3.921
22, 2.20295, 359.837, 179.52, -0.000976562, -0.000976562, -0.000976562, 0.0195312, 0.381836, -9.74219, 1.19.2022 20:7:3.929
23, 2.20295, 359.837, 179.52, -0.000976562, -0.000976562, -0.000976562, 0.0703125, 0.354492, -9.71777, 1.19.2022 20:7:3.937
24, 2.20295, 359.837, 179.52, 0, -0.000976562, -0.000976562, -0.000976562, 0.401367, -9.69629, 1.19.2022 20:7:3.945
25, 2.20295, 359.837, 179.52, -0.000976562, -0.000976562, -0.000976562, 0.0654297, 0.34668, -9.68945, 1.19.2022 20:7:3.953
26, 2.20295, 359.837, 179.52, -0.000976562, -0.00195312, -0.000976562, -0.00683594, 0.381836, -9.76562, 1.19.2022 20:7:3.961
27, 2.20295, 359.837, 179.52, -0.000976562, -0.000976562, -0.000976562, 0.0078125, 0.390625, -9.71777, 1.19.2022 20:7:3.969
28, 2.20295, 359.837, 179.52, 0, -0.000976562, -0.000976562, 0.0791016, 0.366211, -9.73438, 1.19.2022 20:7:3.977
29, 2.20295, 359.837, 179.52, 0, -0.000976562, -0.000976562, -0.0439453, 0.382812, -9.71289, 1.19.2022 20:7:3.985
30, 2.20295, 359.837, 179.52, -0.000976562, 0, -0.000976562, 0.0175781, 0.371094, -9.72852, 1.19.2022 20:7:3.993
31, 2.20295, 359.837, 179.52, -0.000976562, -0.000976562, -0.000976562, 0.0341797, 0.379883, -9.69043, 1.19.2022 20:7:4.001
32, 2.20295, 359.837, 179.52, -0.000976562, 0, 0, -0.0166016, 0.413086, -9.75488, 1.19.2022 20:7:4.009
33, 2.20295, 359.837, 179.52, 0, 0, -0.000976562, 0.0673828, 0.373047, -9.69824, 1.19.2022 20:7:4.017
34, 2.20295, 359.837, 179.52, 0, -0.000976562, -0.000976562, 0.00585938, 0.394531, -9.6875, 1.19.2022 20:7:4.025
35, 2.20298, 359.844, 179.52, 0, -0.000976562, 0, 0.0146484, 0.393555, -9.73242, 1.19.2022 20:7:4.033
36, 2.20298, 359.844, 179.52, 0, -0.00195312, -0.000976562, 0.0673828, 0.349609, -9.70801, 1.19.2022 20:7:4.041
37, 2.20997, 359.844, 179.52, -0.000976562, -0.000976562, -0.000976562, -0.0224609, 0.392578, -9.70605, 1.19.2022 20:7:4.049
38, 2.20997, 359.844, 179.52, -0.000976562, -0.000976562, -0.000976562, 0.0244141, 0.349609, -9.72852, 1.19.2022 20:7:4.057
39, 2.20997, 359.844, 179.52, -0.000976562, -0.000976562, -0.000976562, 0.0195312, 0.366211, -9.71191, 1.19.2022 20:7:4.065
40, 2.20997, 359.844, 179.52, -0.000976562, -0.000976562, -0.000976562, -0.0107422, 0.385742, -9.71094, 1.19.2022 20:7:4.073
41, 2.20997, 359.844, 179.52, 0, -0.000976562, -0.000976562, 0.0556641, 0.356445, -9.70605, 1.19.2022 20:7:4.081
42, 2.21, 359.851, 179.52, -0.000976562, -0.00195312, -0.000976562, -0.00390625, 0.362305, -9.72852, 1.19.2022 20:7:4.089
43, 2.21, 359.851, 179.52, 0, 0, 0, 0.0292969, 0.37793, -9.70898, 1.19.2022 20:7:4.097
44, 2.21, 359.851, 179.52, 0, -0.000976562, 0, 0.0458984, 0.37793, -9.72168, 1.19.2022 20:7:4.105
45, 2.21, 359.851, 179.52, -0.000976562, -0.000976562, -0.000976562, -0.0185547, 0.398438, -9.74316, 1.19.2022 20:7:4.113
46, 2.21, 359.851, 179.52, 0, -0.000976562, -0.00195312, 0.0742188, 0.388672, -9.73535, 1.19.2022 20:7:4.121
47, 2.21, 359.851, 179.52, 0, -0.00195312, -0.000976562, 0.0175781, 0.359375, -9.70996, 1.19.2022 20:7:4.129
48, 2.21, 359.851, 179.52, -0.000976562, -0.000976562, -0.000976562, 0.00390625, 0.393555, -9.67578, 1.19.2022 20:7:4.137
49, 2.21698, 359.851, 179.52, -0.000976562, 0, -0.000976562, 0.0683594, 0.376953, -9.69141, 1.19.2022 20:7:4.145
50, 2.21698, 359.851, 179.52, -0.000976562, 0, -0.000976562, -0.0244141, 0.384766, -9.68457, 1.19.2022 20:7:4.153
51, 2.21698, 359.851, 179.52, -0.000976562, 0, -0.00195312, 0.0244141, 0.391602, -9.75195, 1.19.2022 20:7:4.161
52, 2.21698, 359.851, 179.52, -0.000976562, -0.000976562, -0.00195312, 0.0527344, 0.381836, -9.74512, 1.19.2022 20:7:4.169
53, 2.21698, 359.851, 179.52, -0.000976562, 0, -0.000976562, -0.0332031, 0.395508, -9.72656, 1.19.2022 20:7:4.177
54, 2.21698, 359.851, 179.52, -0.00195312, 0, -0.000976562, 0.0742188, 0.361328, -9.72949, 1.19.2022 20:7:4.185
55, 2.21698, 359.851, 179.52, 0, -0.000976562, -0.000976562, 0.0273438, 0.380859, -9.71191, 1.19.2022 20:7:4.193
56, 2.224, 359.858, 179.52, 0, -0.00195312, -0.000976562, 0.015625, 0.399414, -9.69727, 1.19.2022 20:7:4.201
57, 2.224, 359.858, 179.52, 0, -0.00195312, -0.000976562, 0.0712891, 0.345703, -9.75391, 1.19.2022 20:7:4.209
58, 2.224, 359.858, 179.52, -0.000976562, -0.00195312, -0.000976562, -0.0166016, 0.384766, -9.76074, 1.19.2022 20:7:4.217
59, 2.224, 359.858, 179.52, 0, -0.000976562, -0.000976562, 0.0419922, 0.384766, -9.69727, 1.19.2022 20:7:4.225
60, 2.22401, 359.858, 179.527, -0.000976562, -0.000976562, -0.000976562, 0.0292969, 0.360352, -9.69336, 1.19.2022 20:7:4.233
61, 2.22401, 359.858, 179.527, -0.000976562, 0, -0.000976562, -0.00390625, 0.389648, -9.70898, 1.19.2022 20:7:4.241
62, 2.22401, 359.858, 179.527, -0.000976562, -0.00195312, -0.000976562, 0.0878906, 0.362305, -9.75586, 1.19.2022 20:7:4.249
63, 2.22401, 359.858, 179.527, 0, -0.000976562, -0.000976562, -0.00976562, 0.379883, -9.75879, 1.19.2022 20:7:4.257
64, 2.22401, 359.858, 179.527, 0.000976562, -0.000976562, -0.000976562, 0.00585938, 0.358398, -9.7002, 1.19.2022 20:7:4.265
65, 2.22401, 359.858, 179.527, 0, -0.000976562, -0.000976562, 0.0693359, 0.354492, -9.73242, 1.19.2022 20:7:4.273
66, 2.22401, 359.858, 179.527, -0.000976562, -0.000976562, 0, -0.0351562, 0.390625, -9.73145, 1.19.2022 20:7:4.281
67, 2.224, 359.858, 179.52, -0.00195312, -0.000976562, 0, 0.0537109, 0.389648, -9.70215, 1.19.2022 20:7:4.289
68, 2.224, 359.858, 179.52, -0.000976562, -0.00195312, -0.000976562, 0.00488281, 0.367188, -9.74707, 1.19.2022 20:7:4.297
69, 2.224, 359.858, 179.52, -0.000976562, -0.00195312, -0.000976562, 0.0078125, 0.374023, -9.74023, 1.19.2022 20:7:4.305
70, 2.224, 359.858, 179.52, -0.000976562, -0.00195312, -0.000976562, 0.0527344, 0.349609, -9.73145, 1.19.2022 20:7:4.313
71, 2.224, 359.858, 179.52, -0.00195312, -0.000976562, -0.000976562, -0.0126953, 0.378906, -9.66895, 1.19.2022 20:7:4.321
72, 2.224, 359.858, 179.52, -0.000976562, -0.000976562, -0.000976562, 0.0244141, 0.366211, -9.71875, 1.19.2022 20:7:4.329
73, 2.224, 359.858, 179.52, 0, -0.000976562, -0.000976562, 0.0361328, 0.366211, -9.71973, 1.19.2022 20:7:4.337
74, 2.224, 359.858, 179.52, 0, -0.000976562, -0.000976562, -0.0302734, 0.386719, -9.74609, 1.19.2022 20:7:4.345
75, 2.22401, 359.858, 179.527, -0.000976562, -0.000976562, -0.00195312, 0.0654297, 0.394531, -9.70508, 1.19.2022 20:7:4.353
76, 2.22401, 359.858, 179.527, -0.000976562, -0.00195312, -0.00195312, 0.0224609, 0.375, -9.69531, 1.19.2022 20:7:4.361
77, 2.22401, 359.858, 179.527, 0, -0.00195312, 0, 0.0175781, 0.374023, -9.72363, 1.19.2022 20:7:4.369
78, 2.22401, 359.858, 179.527, 0, 0, 0.000976562, 0.0673828, 0.348633, -9.70117, 1.19.2022 20:7:4.377
79, 2.224, 359.858, 179.52, -0.000976562, -0.000976562, 0.000976562, 0, 0.362305, -9.75, 1.19.2022 20:7:4.385
80, 2.224, 359.858, 179.52, -0.000976562, 0, 0.000976562, 0.0410156, 0.392578, -9.7207, 1.19.2022 20:7:4.393
81, 2.224, 359.858, 179.52, 0, 0.000976562, 0, 0.0410156, 0.37207, -9.75, 1.19.2022 20:7:4.401
82, 2.224, 359.858, 179.52, 0, 0, -0.000976562, -0.0351562, 0.408203, -9.74316, 1.19.2022 20:7:4.409
83, 2.224, 359.858, 179.52, 0, 0, 0.000976562, 0.0390625, 0.369141, -9.72656, 1.19.2022 20:7:4.417
84, 2.21701, 359.858, 179.52, 0, 0, -0.000976562, 0.00976562, 0.345703, -9.73145, 1.19.2022 20:7:4.425
85, 2.21701, 359.858, 179.52, 0, 0, -0.000976562, 0.0078125, 0.379883, -9.69922, 1.19.2022 20:7:4.433
86, 2.21701, 359.858, 179.52, 0, 0, 0.000976562, 0.0761719, 0.395508, -9.74707, 1.19.2022 20:7:4.441
87, 2.21701, 359.858, 179.52, 0, 0, -0.000976562, -0.0136719, 0.37793, -9.7041, 1.19.2022 20:7:4.449
88, 2.21701, 359.858, 179.52, -0.000976562, 0, 0, 0.0517578, 0.365234, -9.69141, 1.19.2022 20:7:4.457
89, 2.21701, 359.858, 179.52, 0, 0, -0.000976562, 0.0371094, 0.376953, -9.68359, 1.19.2022 20:7:4.465
90, 2.21701, 359.858, 179.52, -0.000976562, -0.000976562, -0.000976562, 0.00878906, 0.399414, -9.69238, 1.19.2022 20:7:4.473
91, 2.21701, 359.858, 179.52, 0, 0, -0.000976562, 0.0888672, 0.364258, -9.71973, 1.19.2022 20:7:4.481
92, 2.21701, 359.858, 179.52, 0, 0, -0.000976562, -0.0136719, 0.368164, -9.70898, 1.19.2022 20:7:4.489
93, 2.21701, 359.858, 179.52, -0.000976562, 0.000976562, -0.00195312, 0.0224609, 0.366211, -9.70703, 1.19.2022 20:7:4.497
94, 2.21701, 359.858, 179.52, -0.000976562, 0, -0.00195312, 0.0410156, 0.356445, -9.71973, 1.19.2022 20:7:4.505
95, 2.21701, 359.858, 179.52, -0.000976562, 0, 0, -0.00585938, 0.386719, -9.67773, 1.19.2022 20:7:4.513
96, 2.21701, 359.858, 179.52, -0.000976562, 0.000976562, 0.000976562, 0.0673828, 0.375977, -9.70996, 1.19.2022 20:7:4.521
97, 2.21698, 359.851, 179.52, 0, 0, -0.000976562, 0.0185547, 0.363281, -9.77148, 1.19.2022 20:7:4.529
98, 2.21698, 359.851, 179.52, -0.000976562, 0.000976562, 0.000976562, 0.00292969, 0.40625, -9.75977, 1.19.2022 20:7:4.537
99, 2.21698, 359.851, 179.52, 0, 0.000976562, 0.000976562, 0.0820312, 0.359375, -9.71973, 1.19.2022 20:7:4.545
100, 2.21698, 359.851, 179.52, -0.000976562, 0, 0.000976562, -0.0253906, 0.382812, -9.69922, 1.19.2022 20:7:4.553
101, 2.21698, 359.851, 179.52, -0.00195312, 0.000976562, 0.000976562, 0.0195312, 0.362305, -9.7334, 1.19.2022 20:7:4.561
102, 2.21698, 359.851, 179.52, -0.000976562, -0.000976562, -0.000976562, 0.0429688, 0.359375, -9.73828, 1.19.2022 20:7:4.569
103, 2.21698, 359.851, 179.52, -0.00195312, -0.000976562, -0.00195312, -0.0263672, 0.379883, -9.76953, 1.19.2022 20:7:4.577
104, 2.21698, 359.851, 179.52, -0.000976562, 0, 0, 0.0839844, 0.40918, -9.72559, 1.19.2022 20:7:4.585
105, 2.21698, 359.851, 179.52, -0.000976562, 0, 0, 0.00683594, 0.40625, -9.77441, 1.19.2022 20:7:4.593
106, 2.21698, 359.851, 179.52, 0, 0, -0.000976562, -0.0136719, 0.37793, -9.7041, 1.19.2022 20:7:4.601
107, 2.21698, 359.851, 179.52, -0.000976562, 0, 0, 0.0664062, 0.370117, -9.78125, 1.19.2022 20:7:4.609
108, 2.21698, 359.851, 179.52, 0, 0, -0.000976562, -0.0205078, 0.375977, -9.71094, 1.19.2022 20:7:4.617
109, 2.21698, 359.851, 179.52, -0.000976562, 0.000976562, 0, 0.0517578, 0.401367, -9.68359, 1.19.2022 20:7:4.625
110, 2.21698, 359.851, 179.52, -0.00195312, 0, -0.000976562, 0.0488281, 0.358398, -9.70996, 1.19.2022 20:7:4.633
111, 2.22394, 359.844, 179.52, -0.000976562, 0, -0.000976562, -0.000976562, 0.393555, -9.67285, 1.19.2022 20:7:4.641
112, 2.22394, 359.844, 179.52, -0.000976562, -0.000976562, 0, 0.0742188, 0.342773, -9.72559, 1.19.2022 20:7:4.649
113, 2.22394, 359.844, 179.52, 0, -0.000976562, -0.000976562, -0.000976562, 0.366211, -9.70703, 1.19.2022 20:7:4.657
114, 2.22394, 359.844, 179.52, 0, -0.000976562, -0.000976562, 0.0205078, 0.375, -9.69531, 1.19.2022 20:7:4.665
115, 2.22394, 359.844, 179.52, 0, -0.000976562, -0.000976562, 0.00292969, 0.358398, -9.70215, 1.19.2022 20:7:4.673
116, 2.22394, 359.844, 179.52, -0.000976562, -0.000976562, 0, -0.0273438, 0.366211, -9.71387, 1.19.2022 20:7:4.681
117, 2.22394, 359.844, 179.52, -0.000976562, -0.000976562, -0.00195312, 0.0205078, 0.384766, -9.68066, 1.19.2022 20:7:4.689
118, 2.22397, 359.851, 179.52, -0.000976562, -0.000976562, -0.000976562, 0.0078125, 0.371094, -9.7002, 1.19.2022 20:7:4.697
119, 2.22397, 359.851, 179.52, -0.000976562, -0.000976562, 0, -0.0136719, 0.385742, -9.72461, 1.19.2022 20:7:4.705
120, 2.22397, 359.851, 179.52, -0.000976562, 0, 0, 0.0810547, 0.376953, -9.75488, 1.19.2022 20:7:4.713
121, 2.22397, 359.851, 179.52, 0, -0.000976562, 0, -0.00878906, 0.384766, -9.69434, 1.19.2022 20:7:4.721
122, 2.22397, 359.851, 179.52, -0.000976562, -0.00195312, -0.00195312, 0.0205078, 0.379883, -9.69727, 1.19.2022 20:7:4.729
123, 2.22397, 359.851, 179.52, -0.00195312, -0.000976562, -0.000976562, 0.0478516, 0.345703, -9.75098, 1.19.2022 20:7:4.737
124, 2.22397, 359.851, 179.52, -0.000976562, -0.000976562, 0, -0.0195312, 0.37793, -9.77734, 1.19.2022 20:7:4.745
125, 2.22397, 359.851, 179.52, 0, 0, -0.000976562, 0.0673828, 0.388672, -9.74316, 1.19.2022 20:7:4.753
126, 2.22397, 359.851, 179.52, -0.000976562, 0, -0.00195312, 0.0322266, 0.380859, -9.71875, 1.19.2022 20:7:4.761
127, 2.224, 359.858, 179.52, -0.000976562, -0.000976562, -0.000976562, 0.000976562, 0.402344, -9.71094, 1.19.2022 20:7:4.769
128, 2.224, 359.858, 179.52, -0.000976562, -0.000976562, -0.000976562, 0.0673828, 0.361328, -9.71289, 1.19.2022 20:7:4.777
129, 2.224, 359.858, 179.52, -0.000976562, -0.00195312, -0.000976562, -0.0195312, 0.394531, -9.76465, 1.19.2022 20:7:4.785
130, 2.224, 359.858, 179.52, -0.000976562, 0, -0.00195312, 0.03125, 0.390625, -9.7373, 1.19.2022 20:7:4.793
131, 2.224, 359.858, 179.52, -0.000976562, -0.000976562, -0.000976562, 0.0625, 0.354492, -9.74121, 1.19.2022 20:7:4.801
132, 2.224, 359.858, 179.52, 0, -0.000976562, 0, -0.00878906, 0.395508, -9.71973, 1.19.2022 20:7:4.809
133, 2.224, 359.858, 179.52, 0, -0.000976562, -0.000976562, 0.0703125, 0.387695, -9.7002, 1.19.2022 20:7:4.817
134, 2.224, 359.858, 179.52, -0.000976562, 0, -0.000976562, -0.00683594, 0.364258, -9.72363, 1.19.2022 20:7:4.825
135, 2.224, 359.858, 179.52, -0.00195312, -0.000976562, 0, 0.00390625, 0.379883, -9.69238, 1.19.2022 20:7:4.831
136, 2.224, 359.858, 179.52, -0.000976562, -0.00195312, -0.000976562, 0.0673828, 0.354492, -9.72949, 1.19.2022 20:7:4.839
137, 2.224, 359.858, 179.52, -0.000976562, -0.000976562, -0.000976562, -0.015625, 0.387695, -9.69629, 1.19.2022 20:7:4.847
138, 2.224, 359.858, 179.52, -0.000976562, -0.000976562, 0, 0.046875, 0.363281, -9.69336, 1.19.2022 20:7:4.855
139, 2.224, 359.858, 179.52, -0.000976562, 0, -0.000976562, 0.0292969, 0.388672, -9.73242, 1.19.2022 20:7:4.863
140, 2.224, 359.858, 179.52, 0, -0.000976562, -0.000976562, -0.0136719, 0.408203, -9.74121, 1.19.2022 20:7:4.871
141, 2.224, 359.858, 179.52, 0, -0.00195312, -0.00195312, 0.0664062, 0.376953, -9.76953, 1.19.2022 20:7:4.879
142, 2.224, 359.858, 179.52, 0, 0, -0.000976562, 0.0078125, 0.373047, -9.70898, 1.19.2022 20:7:4.887
143, 2.224, 359.858, 179.52, 0, 0, -0.000976562, 0.015625, 0.392578, -9.71582, 1.19.2022 20:7:4.895
144, 2.224, 359.858, 179.52, -0.000976562, -0.000976562, -0.000976562, 0.0693359, 0.352539, -9.74414, 1.19.2022 20:7:4.903
145, 2.23099, 359.858, 179.52, -0.000976562, -0.000976562, -0.000976562, 0.00585938, 0.405273, -9.72754, 1.19.2022 20:7:4.911
146, 2.23099, 359.858, 179.52, 0, -0.000976562, 0, 0.0546875, 0.390625, -9.74512, 1.19.2022 20:7:4.919
147, 2.23099, 359.858, 179.52, -0.000976562, 0, 0, 0.0380859, 0.376953, -9.75684, 1.19.2022 20:7:4.927
148, 2.23096, 359.851, 179.52, -0.000976562, -0.000976562, 0, 0.00488281, 0.380859, -9.73535, 1.19.2022 20:7:4.935
149, 2.23096, 359.851, 179.52, -0.000976562, 0, 0, 0.0605469, 0.370117, -9.7002, 1.19.2022 20:7:4.943
150, 2.23096, 359.851, 179.52, -0.000976562, 0, -0.000976562, -0.00878906, 0.397461, -9.70312, 1.19.2022 20:7:4.951
151, 2.23096, 359.851, 179.52, 0, -0.000976562, -0.000976562, 0.0195312, 0.392578, -9.71387, 1.19.2022 20:7:4.959
152, 2.23096, 359.851, 179.52, 0, -0.000976562, 0, 0.0595703, 0.375, -9.75488, 1.19.2022 20:7:4.967
153, 2.23096, 359.851, 179.52, 0, -0.000976562, 0, -0.0283203, 0.388672, -9.75781, 1.19.2022 20:7:4.975
154, 2.23096, 359.851, 179.52, 0, -0.000976562, 0, 0.0595703, 0.355469, -9.74316, 1.19.2022 20:7:4.983
155, 2.23096, 359.851, 179.52, 0, -0.000976562, -0.000976562, 0.00585938, 0.358398, -9.7002, 1.19.2022 20:7:4.991
156, 2.23096, 359.851, 179.52, -0.000976562, -0.000976562, -0.000976562, 0.0166016, 0.390625, -9.74707, 1.19.2022 20:7:4.999
157, 2.23096, 359.851, 179.52, -0.000976562, -0.000976562, -0.000976562, 0.0761719, 0.362305, -9.75293, 1.19.2022 20:7:5.007
158, 2.23096, 359.851, 179.52, -0.000976562, -0.000976562, 0, -0.0136719, 0.398438, -9.75098, 1.19.2022 20:7:5.015
159, 2.23096, 359.851, 179.52, 0, 0, -0.000976562, 0.0410156, 0.373047, -9.71484, 1.19.2022 20:7:5.023
160, 2.23093, 359.844, 179.52, -0.00195312, 0, -0.000976562, 0.0693359, 0.359375, -9.73145, 1.19.2022 20:7:5.031
161, 2.23792, 359.844, 179.52, -0.000976562, -0.000976562, -0.000976562, -0.0136719, 0.385742, -9.72266, 1.19.2022 20:7:5.039
162, 2.23792, 359.844, 179.52, 0, 0, -0.000976562, 0.0625, 0.369141, -9.73633, 1.19.2022 20:7:5.047
163, 2.23093, 359.844, 179.52, 0, -0.000976562, 0, -0.00683594, 0.383789, -9.7373, 1.19.2022 20:7:5.055
164, 2.23093, 359.844, 179.52, 0.000976562, -0.000976562, -0.000976562, -0.00195312, 0.415039, -9.75293, 1.19.2022 20:7:5.063
165, 2.23093, 359.844, 179.52, 0, -0.000976562, -0.00195312, 0.0595703, 0.344727, -9.73438, 1.19.2022 20:7:5.071
166, 2.23093, 359.844, 179.52, -0.00195312, 0, 0.000976562, -0.0498047, 0.393555, -9.75293, 1.19.2022 20:7:5.079
167, 2.23093, 359.844, 179.52, -0.00195312, -0.000976562, 0, 0.0537109, 0.375, -9.69336, 1.19.2022 20:7:5.087
168, 2.23792, 359.844, 179.52, -0.00195312, -0.00195312, -0.000976562, 0.0458984, 0.375977, -9.73828, 1.19.2022 20:7:5.095
169, 2.23792, 359.844, 179.52, -0.000976562, -0.000976562, -0.000976562, -0.00390625, 0.395508, -9.72949, 1.19.2022 20:7:5.103
170, 2.23792, 359.844, 179.52, 0, -0.000976562, -0.000976562, 0.0585938, 0.356445, -9.69629, 1.19.2022 20:7:5.111
171, 2.23792, 359.844, 179.52, -0.000976562, -0.000976562, -0.000976562, -0.0136719, 0.382812, -9.71582, 1.19.2022 20:7:5.119
172, 2.23792, 359.844, 179.52, -0.00195312, -0.000976562, -0.000976562, -0.015625, 0.383789, -9.72461, 1.19.2022 20:7:5.127
173, 2.23792, 359.844, 179.52, -0.000976562, -0.000976562, 0, 0.0625, 0.375977, -9.71484, 1.19.2022 20:7:5.135
174, 2.23792, 359.844, 179.52, -0.000976562, -0.00195312, 0, -0.0117188, 0.408203, -9.74609, 1.19.2022 20:7:5.143
175, 2.23792, 359.844, 179.52, -0.000976562, -0.000976562, -0.000976562, 0.0361328, 0.393555, -9.76367, 1.19.2022 20:7:5.151
176, 2.23795, 359.851, 179.52, -0.000976562, -0.000976562, -0.00195312, 0.0458984, 0.384766, -9.70996, 1.19.2022 20:7:5.159
177, 2.23795, 359.851, 179.52, 0, -0.000976562, -0.00195312, -0.0175781, 0.389648, -9.68945, 1.19.2022 20:7:5.167
178, 2.23795, 359.851, 179.52, 0, -0.000976562, -0.000976562, 0.0576172, 0.382812, -9.72656, 1.19.2022 20:7:5.175
179, 2.23795, 359.851, 179.52, -0.000976562, -0.00195312, 0, 0.0126953, 0.369141, -9.7373, 1.19.2022 20:7:5.183
180, 2.23795, 359.851, 179.52, 0, -0.000976562, -0.000976562, 0.0292969, 0.383789, -9.7373, 1.19.2022 20:7:5.191
181, 2.23795, 359.851, 179.52, -0.000976562, -0.000976562, 0, 0.0439453, 0.364258, -9.72461, 1.19.2022 20:7:5.199
182, 2.23795, 359.851, 179.52, -0.000976562, 0, 0, -0.0253906, 0.407227, -9.71484, 1.19.2022 20:7:5.207
183, 2.23795, 359.851, 179.52, -0.000976562, -0.000976562, -0.000976562, 0.0488281, 0.363281, -9.71289, 1.19.2022 20:7:5.215
184, 2.24494, 359.851, 179.52, -0.000976562, -0.000976562, -0.00195312, 0.0322266, 0.375, -9.69336, 1.19.2022 20:7:5.223
185, 2.24494, 359.851, 179.52, -0.000976562, -0.000976562, 0, 0.00292969, 0.387695, -9.71094, 1.19.2022 20:7:5.231
186, 2.24494, 359.851, 179.52, 0, 0, 0, 0.0761719, 0.393555, -9.75684, 1.19.2022 20:7:5.239
187, 2.24494, 359.851, 179.52, -0.000976562, 0, -0.000976562, -0.0175781, 0.391602, -9.69434, 1.19.2022 20:7:5.247
188, 2.24494, 359.851, 179.52, -0.000976562, 0, -0.000976562, 0.0341797, 0.373047, -9.71191, 1.19.2022 20:7:5.255
189, 2.24494, 359.851, 179.52, -0.000976562, -0.00195312, -0.00195312, 0.0605469, 0.385742, -9.72656, 1.19.2022 20:7:5.263
190, 2.24494, 359.851, 179.52, -0.000976562, -0.000976562, -0.000976562, -0.0253906, 0.375977, -9.7207, 1.19.2022 20:7:5.271
191, 2.24494, 359.851, 179.52, 0, 0.000976562, -0.000976562, 0.0712891, 0.362305, -9.75098, 1.19.2022 20:7:5.279
192, 2.24494, 359.851, 179.52, 0, 0, -0.000976562, 0.0175781, 0.37793, -9.71875, 1.19.2022 20:7:5.287
193, 2.24494, 359.851, 179.52, 0, -0.000976562, -0.000976562, 0.0107422, 0.380859, -9.71875, 1.19.2022 20:7:5.295
194, 2.24494, 359.851, 179.52, 0, 0, -0.000976562, 0.0673828, 0.354492, -9.72461, 1.19.2022 20:7:5.303
195, 2.24494, 359.851, 179.52, -0.000976562, -0.000976562, -0.000976562, -0.0136719, 0.379883, -9.7041, 1.19.2022 20:7:5.311
196, 2.24494, 359.851, 179.52, -0.000976562, -0.000976562, 0, 0.0341797, 0.359375, -9.72168, 1.19.2022 20:7:5.319
197, 2.24494, 359.851, 179.52, -0.000976562, -0.000976562, -0.000976562, 0.03125, 0.362305, -9.75, 1.19.2022 20:7:5.327
198, 2.24494, 359.851, 179.52, 0, 0, 0, -0.0205078, 0.392578, -9.71777, 1.19.2022 20:7:5.335
199, 2.24494, 359.851, 179.52, 0, 0, -0.000976562, 0.0742188, 0.376953, -9.74316, 1.19.2022 20:7:5.343
200, 2.24494, 359.851, 179.52, -0.000976562, -0.000976562, -0.000976562, -0.00390625, 0.387695, -9.7207, 1.19.2022 20:7:5.351
201, 2.24494, 359.851, 179.52, -0.000976562, -0.00195312, -0.000976562, 0.0234375, 0.381836, -9.76074, 1.19.2022 20:7:5.359
202, 2.24494, 359.851, 179.52, -0.00195312, -0.000976562, -0.000976562, 0.0693359, 0.331055, -9.72754, 1.19.2022 20:7:5.367
203, 2.24494, 359.851, 179.52, -0.000976562, 0, -0.00195312, -0.00878906, 0.387695, -9.71582, 1.19.2022 20:7:5.375
204, 2.24494, 359.851, 179.52, 0, 0, -0.00195312, 0.0673828, 0.380859, -9.73828, 1.19.2022 20:7:5.383
205, 2.23795, 359.851, 179.52, 0, 0, -0.000976562, -0.00683594, 0.359375, -9.7168, 1.19.2022 20:7:5.391
206, 2.23795, 359.851, 179.52, 0, 0, -0.000976562, -0.00195312, 0.396484, -9.75098, 1.19.2022 20:7:5.399
207, 2.23795, 359.851, 179.52, 0, 0, -0.00195312, 0.0693359, 0.350586, -9.74414, 1.19.2022 20:7:5.407
208, 2.23795, 359.851, 179.52, 0, -0.000976562, 0.000976562, -0.0234375, 0.385742, -9.72949, 1.19.2022 20:7:5.415
209, 2.23795, 359.851, 179.52, -0.000976562, -0.000976562, 0.000976562, 0.00585938, 0.384766, -9.69434, 1.19.2022 20:7:5.423
210, 2.23795, 359.851, 179.52, -0.000976562, 0, 0.000976562, 0.0078125, 0.354492, -9.72168, 1.19.2022 20:7:5.431
211, 2.23795, 359.851, 179.52, -0.000976562, 0, -0.000976562, -0.0390625, 0.396484, -9.69629, 1.19.2022 20:7:5.439
212, 2.23096, 359.851, 179.52, 0, -0.000976562, 0.000976562, 0.0693359, 0.365234, -9.75293, 1.19.2022 20:7:5.447
213, 2.23096, 359.851, 179.52, -0.000976562, -0.00195312, -0.000976562, 0.0195312, 0.369141, -9.7334, 1.19.2022 20:7:5.455
214, 2.23096, 359.851, 179.52, -0.00195312, -0.000976562, -0.000976562, -0.00585938, 0.419922, -9.66992, 1.19.2022 20:7:5.463
215, 2.23096, 359.851, 179.52, -0.000976562, -0.000976562, -0.000976562, 0.0673828, 0.370117, -9.70312, 1.19.2022 20:7:5.471
216, 2.23096, 359.851, 179.52, 0, -0.000976562, 0.000976562, -0.03125, 0.391602, -9.75098, 1.19.2022 20:7:5.479
217, 2.23099, 359.858, 179.52, -0.000976562, -0.000976562, -0.000976562, 0.00292969, 0.382812, -9.70605, 1.19.2022 20:7:5.487
218, 2.23099, 359.858, 179.52, -0.000976562, -0.000976562, -0.000976562, 0.0488281, 0.360352, -9.69336, 1.19.2022 20:7:5.495
219, 2.23099, 359.858, 179.52, -0.000976562, -0.000976562, 0.000976562, -0.0205078, 0.388672, -9.73242, 1.19.2022 20:7:5.503
220, 2.23099, 359.858, 179.52, 0, -0.000976562, 0.000976562, 0.0888672, 0.37793, -9.70312, 1.19.2022 20:7:5.511
221, 2.23099, 359.858, 179.52, 0, -0.000976562, 0.000976562, 0.03125, 0.393555, -9.75195, 1.19.2022 20:7:5.519
222, 2.23099, 359.858, 179.52, 0, -0.000976562, -0.000976562, -0.0224609, 0.355469, -9.67578, 1.19.2022 20:7:5.527
223, 2.23102, 359.865, 179.52, 0, -0.000976562, -0.00195312, 0.0556641, 0.342773, -9.72266, 1.19.2022 20:7:5.535
224, 2.23102, 359.865, 179.52, -0.000976562, -0.000976562, -0.00195312, -0.0244141, 0.396484, -9.67969, 1.19.2022 20:7:5.543
225, 2.23102, 359.865, 179.52, -0.00195312, -0.000976562, -0.000976562, 0.0390625, 0.374023, -9.72363, 1.19.2022 20:7:5.551
226, 2.23102, 359.865, 179.52, -0.000976562, -0.000976562, -0.000976562, 0.0390625, 0.390625, -9.72852, 1.19.2022 20:7:5.559
227, 2.23102, 359.865, 179.52, -0.000976562, -0.000976562, -0.000976562, -0.0224609, 0.375, -9.68945, 1.19.2022 20:7:5.567
228, 2.23102, 359.865, 179.52, -0.000976562, -0.000976562, -0.000976562, 0.0908203, 0.375, -9.76953, 1.19.2022 20:7:5.575
229, 2.23102, 359.865, 179.52, 0, -0.000976562, -0.000976562, 0.0117188, 0.383789, -9.74902, 1.19.2022 20:7:5.583
230, 2.23102, 359.865, 179.52, -0.000976562, -0.000976562, -0.000976562, 0.00488281, 0.391602, -9.75098, 1.19.2022 20:7:5.591
231, 2.23102, 359.865, 179.52, 0, 0, -0.000976562, 0.0751953, 0.370117, -9.70312, 1.19.2022 20:7:5.599
232, 2.23102, 359.865, 179.52, -0.000976562, -0.000976562, -0.000976562, 0.0175781, 0.380859, -9.73047, 1.19.2022 20:7:5.607
233, 2.23102, 359.865, 179.52, -0.000976562, -0.000976562, -0.000976562, 0.0654297, 0.384766, -9.70508, 1.19.2022 20:7:5.615
234, 2.23102, 359.865, 179.52, -0.000976562, 0, -0.000976562, 0.0507812, 0.366211, -9.7168, 1.19.2022 20:7:5.623
235, 2.23102, 359.865, 179.52, 0, 0, -0.000976562, -0.0175781, 0.404297, -9.68945, 1.19.2022 20:7:5.631
236, 2.23102, 359.865, 179.52, -0.000976562, -0.000976562, -0.000976562, 0.0605469, 0.354492, -9.73145, 1.19.2022 20:7:5.639
237, 2.23102, 359.865, 179.52, -0.000976562, 0, -0.000976562, 0.000976562, 0.391602, -9.69629, 1.19.2022 20:7:5.647
238, 2.23102, 359.865, 179.52, -0.000976562, 0, -0.000976562, 0.0146484, 0.374023, -9.73242, 1.19.2022 20:7:5.655
239, 2.23099, 359.858, 179.52, 0, -0.000976562, -0.000976562, 0.0683594, 0.367188, -9.67285, 1.19.2022 20:7:5.663
240, 2.23099, 359.858, 179.52, -0.000976562, -0.000976562, -0.000976562, -0.0185547, 0.391602, -9.74609, 1.19.2022 20:7:5.671
241, 2.23099, 359.858, 179.52, -0.000976562, 0, -0.000976562, 0.0507812, 0.375, -9.7002, 1.19.2022 20:7:5.679
242, 2.23099, 359.858, 179.52, 0, -0.00195312, -0.000976562, 0.00292969, 0.394531, -9.71289, 1.19.2022 20:7:5.687
243, 2.23099, 359.858, 179.52, -0.000976562, -0.000976562, -0.000976562, 0.0078125, 0.395508, -9.7207, 1.19.2022 20:7:5.695
244, 2.23099, 359.858, 179.52, 0, 0, 0, 0.0761719, 0.362305, -9.74805, 1.19.2022 20:7:5.703
245, 2.23099, 359.858, 179.52, 0, -0.000976562, -0.000976562, -0.0253906, 0.390625, -9.72266, 1.19.2022 20:7:5.711
246, 2.23099, 359.858, 179.52, 0, -0.000976562, -0.000976562, 0.0224609, 0.371094, -9.70996, 1.19.2022 20:7:5.719
247, 2.23099, 359.858, 179.52, 0, 0, -0.00195312, 0.0654297, 0.356445, -9.70605, 1.19.2022 20:7:5.727
248, 2.23096, 359.851, 179.52, -0.000976562, -0.000976562, -0.000976562, 0.00390625, 0.397461, -9.7041, 1.19.2022 20:7:5.735
249, 2.23795, 359.851, 179.52, -0.000976562, -0.00195312, 0, 0.0507812, 0.366211, -9.73145, 1.19.2022 20:7:5.743
250, 2.23795, 359.851, 179.52, 0, -0.00195312, -0.000976562, -0.0117188, 0.391602, -9.75293, 1.19.2022 20:7:5.751
251, 2.23795, 359.851, 179.52, -0.000976562, -0.000976562, -0.000976562, 0.00292969, 0.382812, -9.7207, 1.19.2022 20:7:5.759
252, 2.23795, 359.851, 179.52, -0.000976562, -0.000976562, -0.000976562, 0.0644531, 0.365234, -9.77148, 1.19.2022 20:7:5.767
253, 2.23795, 359.851, 179.52, -0.000976562, -0.000976562, -0.000976562, -0.0185547, 0.400391, -9.71973, 1.19.2022 20:7:5.775
254, 2.23795, 359.851, 179.52, -0.000976562, -0.000976562, -0.000976562, 0.0585938, 0.365234, -9.69629, 1.19.2022 20:7:5.783
255, 2.23795, 359.851, 179.52, -0.000976562, -0.000976562, -0.00195312, 0.0292969, 0.368164, -9.69824, 1.19.2022 20:7:5.791
256, 2.23795, 359.851, 179.52, -0.000976562, -0.000976562, 0, -0.000976562, 0.381836, -9.68262, 1.19.2022 20:7:5.797
257, 2.23795, 359.851, 179.52, -0.000976562, -0.000976562, 0, 0.0722656, 0.356445, -9.72266, 1.19.2022 20:7:5.805
258, 2.23795, 359.851, 179.52, -0.000976562, -0.000976562, 0, 0.0195312, 0.380859, -9.71582, 1.19.2022 20:7:5.813
259, 2.23795, 359.851, 179.52, 0, 0, 0, 0.0146484, 0.388672, -9.73047, 1.19.2022 20:7:5.821
260, 2.23795, 359.851, 179.52, -0.000976562, 0, -0.000976562, 0.0410156, 0.362305, -9.7334, 1.19.2022 20:7:5.829
261, 2.23795, 359.851, 179.52, -0.000976562, -0.000976562, 0, -0.0117188, 0.413086, -9.75, 1.19.2022 20:7:5.837
262, 2.23795, 359.851, 179.52, 0, -0.000976562, -0.000976562, 0.0537109, 0.375977, -9.70703, 1.19.2022 20:7:5.845
263, 2.23795, 359.851, 179.52, -0.000976562, 0, -0.000976562, 0.0371094, 0.359375, -9.70996, 1.19.2022 20:7:5.853
264, 2.23795, 359.851, 179.52, -0.000976562, -0.000976562, -0.000976562, -0.0185547, 0.386719, -9.74414, 1.19.2022 20:7:5.861
265, 2.23795, 359.851, 179.52, -0.000976562, -0.000976562, 0, 0.0771484, 0.359375, -9.73242, 1.19.2022 20:7:5.869
266, 2.23795, 359.851, 179.52, -0.000976562, -0.000976562, 0, -0.0107422, 0.389648, -9.70605, 1.19.2022 20:7:5.877
267, 2.23795, 359.851, 179.52, -0.000976562, -0.000976562, 0, 0.0195312, 0.390625, -9.73535, 1.19.2022 20:7:5.885
268, 2.23795, 359.851, 179.52, -0.000976562, -0.000976562, -0.000976562, 0.0390625, 0.37793, -9.71387, 1.19.2022 20:7:5.893
269, 2.23795, 359.851, 179.52, -0.000976562, 0, -0.000976562, -0.0302734, 0.407227, -9.73633, 1.19.2022 20:7:5.901
270, 2.23795, 359.851, 179.52, 0, 0, -0.000976562, 0.0507812, 0.362305, -9.7334, 1.19.2022 20:7:5.909
271, 2.23795, 359.851, 179.52, -0.000976562, 0, -0.000976562, 0.0253906, 0.366211, -9.7002, 1.19.2022 20:7:5.917
272, 2.23795, 359.851, 179.52, -0.000976562, -0.000976562, -0.00195312, 0, 0.376953, -9.75195, 1.19.2022 20:7:5.925
273, 2.23795, 359.851, 179.52, -0.000976562, -0.00195312, -0.000976562, 0.0810547, 0.355469, -9.76758, 1.19.2022 20:7:5.933
274, 2.23795, 359.851, 179.52, -0.00195312, 0, -0.000976562, -0.0341797, 0.373047, -9.69629, 1.19.2022 20:7:5.941
275, 2.23795, 359.851, 179.52, -0.000976562, -0.000976562, 0, 0.0292969, 0.383789, -9.74023, 1.19.2022 20:7:5.949
276, 2.23795, 359.851, 179.52, -0.000976562, 0, 0, 0.0390625, 0.366211, -9.70508, 1.19.2022 20:7:5.957
277, 2.23795, 359.851, 179.52, -0.000976562, -0.000976562, -0.000976562, -0.0351562, 0.40332, -9.74316, 1.19.2022 20:7:5.965
278, 2.23795, 359.851, 179.52, 0, 0, -0.000976562, 0.0625, 0.371094, -9.72656, 1.19.2022 20:7:5.973
279, 2.23795, 359.851, 179.52, -0.000976562, 0, -0.000976562, 0.0078125, 0.404297, -9.71973, 1.19.2022 20:7:5.981
280, 2.23795, 359.851, 179.52, 0, -0.000976562, -0.000976562, -0.00195312, 0.395508, -9.72266, 1.19.2022 20:7:5.989
281, 2.23795, 359.851, 179.52, 0, 0, -0.000976562, 0.0537109, 0.391602, -9.69531, 1.19.2022 20:7:5.997
282, 2.23795, 359.851, 179.52, -0.00195312, 0, -0.000976562, -0.0419922, 0.411133, -9.68652, 1.19.2022 20:7:6.005
283, 2.23795, 359.851, 179.52, 0, 0, -0.000976562, 0.0224609, 0.379883, -9.7002, 1.19.2022 20:7:6.013
284, 2.23795, 359.851, 179.52, -0.000976562, -0.000976562, -0.000976562, 0.0507812, 0.371094, -9.70312, 1.19.2022 20:7:6.021
285, 2.23795, 359.851, 179.52, -0.00195312, -0.000976562, -0.000976562, -0.0117188, 0.400391, -9.73438, 1.19.2022 20:7:6.029
286, 2.23798, 359.858, 179.52, -0.000976562, -0.000976562, -0.00195312, 0.0761719, 0.376953, -9.76172, 1.19.2022 20:7:6.037
287, 2.24497, 359.858, 179.52, -0.000976562, -0.000976562, -0.000976562, 0.00292969, 0.371094, -9.70898, 1.19.2022 20:7:6.045
288, 2.24497, 359.858, 179.52, 0, -0.000976562, -0.000976562, 0.00976562, 0.390625, -9.72266, 1.19.2022 20:7:6.053
289, 2.24497, 359.858, 179.52, -0.000976562, -0.000976562, -0.000976562, 0.0654297, 0.371094, -9.72461, 1.19.2022 20:7:6.061
290, 2.24497, 359.858, 179.52, -0.000976562, -0.000976562, -0.000976562, -0.0273438, 0.404297, -9.71973, 1.19.2022 20:7:6.069
291, 2.24497, 359.858, 179.52, -0.000976562, -0.000976562, -0.000976562, 0.0507812, 0.390625, -9.71875, 1.19.2022 20:7:6.077
292, 2.24497, 359.858, 179.52, -0.000976562, -0.000976562, -0.000976562, 0.0214844, 0.388672, -9.74414, 1.19.2022 20:7:6.085
293, 2.24497, 359.858, 179.52, -0.000976562, -0.000976562, -0.000976562, -0.0234375, 0.386719, -9.74121, 1.19.2022 20:7:6.093
294, 2.25195, 359.858, 179.52, -0.00195312, -0.000976562, -0.000976562, 0.0771484, 0.341797, -9.70898, 1.19.2022 20:7:6.101
295, 2.25195, 359.858, 179.52, -0.000976562, -0.000976562, -0.000976562, 0.00488281, 0.383789, -9.73242, 1.19.2022 20:7:6.109
296, 2.25198, 359.865, 179.52, -0.000976562, -0.000976562, 0, 0.0292969, 0.415039, -9.74121, 1.19.2022 20:7:6.117
297, 2.25198, 359.865, 179.52, 0, -0.000976562, -0.000976562, 0.0361328, 0.364258, -9.72168, 1.19.2022 20:7:6.125
298, 2.25198, 359.865, 179.52, -0.000976562, 0, -0.00195312, -0.0175781, 0.379883, -9.7041, 1.19.2022 20:7:6.133
299, 2.25198, 359.865, 179.52, -0.000976562, -0.000976562, -0.000976562, 0.0625, 0.362305, -9.75488, 1.19.2022 20:7:6.141
300, 2.25198, 359.865, 179.52, 0, -0.000976562, -0.000976562, 0.0078125, 0.385742, -9.74219, 1.19.2022 20:7:6.149
301, 2.25198, 359.865, 179.52, -0.000976562, -0.000976562, -0.00195312, -0.0107422, 0.380859, -9.71387, 1.19.2022 20:7:6.157
302, 2.25198, 359.865, 179.52, 0, 0, 0, 0.0888672, 0.34668, -9.69727, 1.19.2022 20:7:6.165
303, 2.25198, 359.865, 179.52, -0.000976562, -0.00195312, -0.000976562, -0.015625, 0.402344, -9.71973, 1.19.2022 20:7:6.173
304, 2.25198, 359.865, 179.52, -0.000976562, -0.000976562, 0.000976562, 0.0107422, 0.402344, -9.71289, 1.19.2022 20:7:6.181
305, 2.25198, 359.865, 179.52, -0.000976562, -0.000976562, 0, 0.0507812, 0.368164, -9.70801, 1.19.2022 20:7:6.189
306, 2.25198, 359.865, 179.52, -0.000976562, -0.000976562, 0, -0.0107422, 0.399414, -9.71289, 1.19.2022 20:7:6.197
307, 2.25198, 359.865, 179.52, -0.000976562, -0.000976562, 0.000976562, 0.0966797, 0.357422, -9.6709, 1.19.2022 20:7:6.205
308, 2.25198, 359.865, 179.52, -0.00195312, -0.000976562, 0, 0.015625, 0.402344, -9.71094, 1.19.2022 20:7:6.213
309, 2.25198, 359.865, 179.52, 0, -0.000976562, 0, 0.0478516, 0.397461, -9.7373, 1.19.2022 20:7:6.221
310, 2.25198, 359.865, 179.52, -0.000976562, 0, 0, 0.0673828, 0.371094, -9.73633, 1.19.2022 20:7:6.229
311, 2.25198, 359.865, 179.52, 0, -0.000976562, 0.00195312, -0.0517578, 0.405273, -9.74023, 1.19.2022 20:7:6.237
312, 2.25195, 359.858, 179.52, 0, 0, 0.000976562, 0.0488281, 0.384766, -9.70996, 1.19.2022 20:7:6.245
313, 2.25195, 359.858, 179.52, 0, -0.000976562, 0, 0.0224609, 0.359375, -9.72852, 1.19.2022 20:7:6.253
314, 2.25195, 359.858, 179.52, 0, -0.000976562, 0, 0, 0.398438, -9.73926, 1.19.2022 20:7:6.261
315, 2.25195, 359.858, 179.52, 0, 0, 0, 0.0439453, 0.370117, -9.69336, 1.19.2022 20:7:6.269
316, 2.25195, 359.858, 179.52, 0.00195312, 0, 0.000976562, -0.0136719, 0.392578, -9.72461, 1.19.2022 20:7:6.277
317, 2.25195, 359.858, 179.52, -0.000976562, 0, 0.000976562, 0.0244141, 0.380859, -9.7168, 1.19.2022 20:7:6.285
318, 2.25195, 359.858, 179.52, -0.00195312, -0.000976562, 0, 0.0654297, 0.371094, -9.71289, 1.19.2022 20:7:6.293
319, 2.25195, 359.858, 179.52, -0.000976562, -0.000976562, 0, -0.0205078, 0.400391, -9.72461, 1.19.2022 20:7:6.301
320, 2.25195, 359.858, 179.52, 0, -0.000976562, 0, 0.0507812, 0.371094, -9.72656, 1.19.2022 20:7:6.309
321, 2.25195, 359.858, 179.52, -0.000976562, -0.000976562, 0.000976562, 0.0283203, 0.367188, -9.75684, 1.19.2022 20:7:6.317
322, 2.25894, 359.858, 179.52, -0.000976562, 0, 0, 0.0224609, 0.378906, -9.73242, 1.19.2022 20:7:6.325
323, 2.25894, 359.858, 179.52, 0, -0.000976562, 0, 0.0810547, 0.375977, -9.73828, 1.19.2022 20:7:6.333
324, 2.25195, 359.858, 179.52, 0, -0.000976562, 0, -0.0302734, 0.400391, -9.73828, 1.19.2022 20:7:6.341
325, 2.25195, 359.858, 179.52, -0.000976562, -0.000976562, 0, 0.0273438, 0.373047, -9.7002, 1.19.2022 20:7:6.349
326, 2.25195, 359.858, 179.52, -0.000976562, -0.000976562, 0, 0.0605469, 0.361328, -9.72168, 1.19.2022 20:7:6.357
327, 2.25195, 359.858, 179.52, 0, -0.000976562, -0.00195312, -0.0380859, 0.383789, -9.73633, 1.19.2022 20:7:6.365
328, 2.25195, 359.858, 179.52, -0.000976562, -0.000976562, 0, 0.0625, 0.364258, -9.73633, 1.19.2022 20:7:6.373
329, 2.25195, 359.858, 179.52, -0.000976562, -0.000976562, 0, 0.0244141, 0.351562, -9.71973, 1.19.2022 20:7:6.381
330, 2.25193, 359.851, 179.52, 0, 0, 0, 0.0107422, 0.382812, -9.7207, 1.19.2022 20:7:6.389
331, 2.25193, 359.851, 179.52, -0.000976562, -0.000976562, 0, 0.0644531, 0.342773, -9.74414, 1.19.2022 20:7:6.397
332, 2.25193, 359.851, 179.52, -0.000976562, 0, 0, 0.00292969, 0.404297, -9.72266, 1.19.2022 20:7:6.405
333, 2.25193, 359.851, 179.52, 0, 0, 0, 0.0546875, 0.390625, -9.74707, 1.19.2022 20:7:6.413
334, 2.25193, 359.851, 179.52, -0.000976562, -0.000976562, -0.00195312, 0.0273438, 0.371094, -9.70508, 1.19.2022 20:7:6.421
335, 2.25193, 359.851, 179.52, -0.000976562, -0.00195312, -0.000976562, -0.0117188, 0.391602, -9.76953, 1.19.2022 20:7:6.429
336, 2.25193, 359.851, 179.52, -0.000976562, -0.000976562, -0.000976562, 0.0859375, 0.355469, -9.76074, 1.19.2022 20:7:6.437
337, 2.24494, 359.851, 179.52, -0.000976562, -0.00195312, -0.00195312, 0.0078125, 0.356445, -9.71875, 1.19.2022 20:7:6.445
338, 2.24494, 359.851, 179.52, -0.000976562, -0.00195312, -0.000976562, 0.0224609, 0.404297, -9.71289, 1.19.2022 20:7:6.453
339, 2.24494, 359.851, 179.52, 0, 0, -0.000976562, 0.0703125, 0.367188, -9.67773, 1.19.2022 20:7:6.461
340, 2.24494, 359.851, 179.52, -0.000976562, 0.000976562, -0.000976562, 0.0107422, 0.404297, -9.71094, 1.19.2022 20:7:6.469
341, 2.24491, 359.844, 179.52, -0.000976562, 0, -0.000976562, 0.0556641, 0.352539, -9.73438, 1.19.2022 20:7:6.477
342, 2.24491, 359.844, 179.52, 0, -0.000976562, -0.00195312, 0.0175781, 0.371094, -9.70215, 1.19.2022 20:7:6.485
343, 2.24491, 359.844, 179.52, 0, -0.000976562, -0.000976562, 0.0078125, 0.375977, -9.73242, 1.19.2022 20:7:6.493
344, 2.24491, 359.844, 179.52, -0.000976562, -0.000976562, -0.000976562, 0.103516, 0.368164, -9.7207, 1.19.2022 20:7:6.501
345, 2.24491, 359.844, 179.52, -0.000976562, -0.000976562, -0.00195312, -0.0185547, 0.373047, -9.71094, 1.19.2022 20:7:6.509
346, 2.23792, 359.844, 179.52, -0.000976562, -0.000976562, -0.000976562, 0.00292969, 0.367188, -9.74023, 1.19.2022 20:7:6.517
347, 2.23792, 359.844, 179.52, 0, -0.000976562, -0.00195312, 0.0625, 0.374023, -9.73145, 1.19.2022 20:7:6.525
348, 2.23789, 359.837, 179.521, -0.000976562, -0.000976562, -0.000976562, -0.0273438, 0.396484, -9.67969, 1.19.2022 20:7:6.533
349, 2.23789, 359.837, 179.521, 0, -0.00195312, -0.000976562, 0.0634766, 0.370117, -9.70312, 1.19.2022 20:7:6.541
350, 2.23789, 359.837, 179.521, -0.000976562, -0.000976562, -0.000976562, 0.0341797, 0.351562, -9.71973, 1.19.2022 20:7:6.549
351, 2.23789, 359.837, 179.521, -0.000976562, -0.000976562, -0.000976562, -0.000976562, 0.368164, -9.69531, 1.19.2022 20:7:6.557
352, 2.23789, 359.837, 179.521, -0.00195312, -0.000976562, 0, 0.0576172, 0.347656, -9.73242, 1.19.2022 20:7:6.565
353, 2.23789, 359.837, 179.521, -0.000976562, -0.000976562, 0, -0.0253906, 0.375977, -9.72266, 1.19.2022 20:7:6.573
354, 2.2309, 359.837, 179.521, 0, -0.000976562, -0.000976562, 0.0390625, 0.380859, -9.70996, 1.19.2022 20:7:6.581
355, 2.2309, 359.837, 179.521, -0.000976562, 0, -0.000976562, 0.0341797, 0.366211, -9.71191, 1.19.2022 20:7:6.589
356, 2.2309, 359.837, 179.521, -0.000976562, -0.000976562, -0.000976562, -0.0273438, 0.407227, -9.70996, 1.19.2022 20:7:6.597
357, 2.2309, 359.837, 179.521, 0, 0, -0.000976562, 0.0820312, 0.358398, -9.68945, 1.19.2022 20:7:6.605
358, 2.2309, 359.837, 179.521, 0, 0, 0, 0.0244141, 0.371094, -9.70215, 1.19.2022 20:7:6.613
359, 2.2309, 359.837, 179.521, -0.000976562, -0.000976562, -0.000976562, 0.0273438, 0.392578, -9.71875, 1.19.2022 20:7:6.621
360, 2.2309, 359.837, 179.521, 0, -0.000976562, -0.000976562, 0.0751953, 0.34375, -9.67578, 1.19.2022 20:7:6.629
361, 2.22391, 359.837, 179.521, -0.000976562, 0, -0.000976562, -0.0253906, 0.363281, -9.70215, 1.19.2022 20:7:6.637
362, 2.22391, 359.837, 179.521, -0.000976562, -0.00195312, -0.00195312, 0.0244141, 0.400391, -9.7373, 1.19.2022 20:7:6.645
363, 2.22391, 359.837, 179.521, -0.000976562, -0.000976562, -0.000976562, 0.0458984, 0.374023, -9.73535, 1.19.2022 20:7:6.653
364, 2.22391, 359.837, 179.521, 0, 0, -0.000976562, -0.00292969, 0.40625, -9.67969, 1.19.2022 20:7:6.661
365, 2.22391, 359.837, 179.521, -0.000976562, -0.000976562, -0.000976562, 0.0839844, 0.349609, -9.7207, 1.19.2022 20:7:6.669
366, 2.22391, 359.837, 179.521, -0.000976562, -0.00195312, 0, 0.000976562, 0.359375, -9.7168, 1.19.2022 20:7:6.677
367, 2.22391, 359.837, 179.521, -0.000976562, -0.00195312, 0, 0.00585938, 0.397461, -9.72266, 1.19.2022 20:7:6.685
368, 2.22391, 359.837, 179.521, -0.000976562, -0.000976562, 0, 0.0654297, 0.354492, -9.71094, 1.19.2022 20:7:6.693
369, 2.22391, 359.837, 179.521, -0.000976562, -0.000976562, 0, -0.0253906, 0.389648, -9.70801, 1.19.2022 20:7:6.701
370, 2.22391, 359.837, 179.521, -0.000976562, -0.000976562, 0.000976562, 0.0390625, 0.363281, -9.70801, 1.19.2022 20:7:6.709
371, 2.22391, 359.837, 179.521, -0.000976562, 0, 0, 0.0244141, 0.364258, -9.72168, 1.19.2022 20:7:6.717
372, 2.22391, 359.837, 179.521, -0.000976562, -0.000976562, 0.000976562, 0.00878906, 0.396484, -9.68262, 1.19.2022 20:7:6.725
373, 2.22391, 359.837, 179.521, -0.000976562, -0.000976562, 0, 0.0722656, 0.362305, -9.73145, 1.19.2022 20:7:6.733
374, 2.22391, 359.837, 179.521, 0, -0.000976562, 0, 0.0107422, 0.373047, -9.68555, 1.19.2022 20:7:6.741
375, 2.21692, 359.837, 179.521, -0.000976562, -0.000976562, 0, 0.0302734, 0.375, -9.68164, 1.19.2022 20:7:6.749
376, 2.21692, 359.837, 179.521, -0.000976562, -0.000976562, 0, 0.046875, 0.357422, -9.67285, 1.19.2022 20:7:6.757
377, 2.21692, 359.837, 179.521, 0, 0, 0, -0.0390625, 0.353516, -9.69727, 1.19.2022 20:7:6.763
378, 2.21692, 359.837, 179.521, -0.000976562, 0.000976562, -0.000976562, 0.0576172, 0.382812, -9.72168, 1.19.2022 20:7:6.771
379, 2.21692, 359.837, 179.521, 0, -0.000976562, -0.00195312, 0.00390625, 0.353516, -9.67383, 1.19.2022 20:7:6.779
380, 2.21692, 359.837, 179.521, 0, -0.000976562, 0, 0.00585938, 0.375977, -9.71582, 1.19.2022 20:7:6.787
381, 2.21692, 359.837, 179.521, 0, 0, 0, 0.0605469, 0.356445, -9.70801, 1.19.2022 20:7:6.795
382, 2.21692, 359.837, 179.521, -0.000976562, 0, 0, -0.0273438, 0.386719, -9.67285, 1.19.2022 20:7:6.803
383, 2.21692, 359.837, 179.521, -0.000976562, 0.000976562, -0.000976562, 0.0634766, 0.360352, -9.68652, 1.19.2022 20:7:6.811
384, 2.20994, 359.837, 179.52, 0, 0, 0, 0.0361328, 0.356445, -9.71973, 1.19.2022 20:7:6.819
385, 2.20994, 359.837, 179.52, 0, -0.000976562, 0.000976562, -0.015625, 0.401367, -9.67969, 1.19.2022 20:7:6.827
386, 2.20994, 359.837, 179.52, -0.000976562, 0, 0, 0.103516, 0.360352, -9.67773, 1.19.2022 20:7:6.835
387, 2.20994, 359.837, 179.52, 0, 0.000976562, -0.00195312, 0.015625, 0.363281, -9.69043, 1.19.2022 20:7:6.843
388, 2.20994, 359.837, 179.52, 0, -0.000976562, 0, 0.00976562, 0.385742, -9.73047, 1.19.2022 20:7:6.851
389, 2.20994, 359.837, 179.52, -0.000976562, -0.000976562, 0, 0.0566406, 0.355469, -9.66992, 1.19.2022 20:7:6.859
390, 2.20994, 359.837, 179.52, -0.000976562, -0.000976562, 0.000976562, -0.0429688, 0.410156, -9.74316, 1.19.2022 20:7:6.867
391, 2.20994, 359.837, 179.52, -0.000976562, -0.00195312, 0, 0.0439453, 0.369141, -9.72168, 1.19.2022 20:7:6.875
392, 2.20994, 359.837, 179.52, 0, -0.000976562, 0, 0.0644531, 0.384766, -9.77148, 1.19.2022 20:7:6.883
393, 2.20994, 359.837, 179.52, 0, -0.000976562, 0, -0.00585938, 0.417969, -9.68457, 1.19.2022 20:7:6.891
394, 2.20994, 359.837, 179.52, 0, -0.000976562, 0, 0.0761719, 0.374023, -9.75, 1.19.2022 20:7:6.899
395, 2.20994, 359.837, 179.52, 0, -0.000976562, -0.00195312, -0.00390625, 0.392578, -9.72266, 1.19.2022 20:7:6.907
396, 2.20994, 359.837, 179.52, -0.000976562, 0, 0, 0.0195312, 0.387695, -9.72363, 1.19.2022 20:7:6.915
397, 2.20994, 359.837, 179.52, -0.000976562, 0.00195312, 0, 0.0527344, 0.371094, -9.72168, 1.19.2022 20:7:6.923
398, 2.20994, 359.837, 179.52, -0.000976562, 0, 0, -0.0488281, 0.382812, -9.71484, 1.19.2022 20:7:6.931
399, 2.20994, 359.837, 179.52, 0, 0, 0, 0.0585938, 0.386719, -9.68555, 1.19.2022 20:7:6.939
400, 2.20994, 359.837, 179.52, -0.000976562, -0.000976562, 0, 0.0244141, 0.37793, -9.7207, 1.19.2022 20:7:6.947
401, 2.20994, 359.837, 179.52, -0.000976562, -0.00195312, -0.000976562, 0.0195312, 0.400391, -9.72754, 1.19.2022 20:7:6.955
402, 2.21692, 359.837, 179.521, -0.000976562, -0.000976562, 0, 0.0908203, 0.37207, -9.73926, 1.19.2022 20:7:6.963
403, 2.21692, 359.837, 179.521, -0.000976562, 0, 0, 0.0126953, 0.383789, -9.72754, 1.19.2022 20:7:6.971
404, 2.21692, 359.837, 179.521, -0.000976562, 0.000976562, 0, 0.015625, 0.420898, -9.70996, 1.19.2022 20:7:6.979
405, 2.21692, 359.837, 179.521, -0.000976562, 0.000976562, -0.000976562, 0.0605469, 0.361328, -9.72656, 1.19.2022 20:7:6.987
406, 2.21692, 359.837, 179.521, -0.000976562, -0.000976562, 0, -0.0166016, 0.384766, -9.76953, 1.19.2022 20:7:6.995
407, 2.22391, 359.837, 179.521, -0.000976562, 0, 0, 0.0751953, 0.363281, -9.70117, 1.19.2022 20:7:7.003
408, 2.22391, 359.837, 179.521, 0, 0, -0.00195312, 0.0410156, 0.37207, -9.75, 1.19.2022 20:7:7.011
409, 2.22388, 359.83, 179.521, 0, -0.000976562, 0, -0.0107422, 0.382812, -9.7207, 1.19.2022 20:7:7.019
410, 2.22388, 359.83, 179.521, -0.000976562, -0.000976562, 0, 0.0625, 0.357422, -9.72754, 1.19.2022 20:7:7.027
411, 2.22388, 359.83, 179.521, 0, -0.000976562, 0, -0.0175781, 0.394531, -9.70312, 1.19.2022 20:7:7.035
412, 2.22388, 359.83, 179.521, 0, -0.00195312, -0.000976562, 0.0439453, 0.359375, -9.71289, 1.19.2022 20:7:7.043
413, 2.22388, 359.83, 179.521, 0, -0.00195312, 0.000976562, 0.0292969, 0.335938, -9.74121, 1.19.2022 20:7:7.051
414, 2.22391, 359.837, 179.521, -0.000976562, -0.000976562, 0, -0.03125, 0.37207, -9.75391, 1.19.2022 20:7:7.059
415, 2.22391, 359.837, 179.521, -0.000976562, -0.000976562, 0.000976562, 0.0654297, 0.373047, -9.70996, 1.19.2022 20:7:7.067
416, 2.2309, 359.837, 179.521, -0.000976562, 0, 0, 0.000976562, 0.378906, -9.7207, 1.19.2022 20:7:7.075
417, 2.2309, 359.837, 179.521, 0, 0, 0, -0.0136719, 0.405273, -9.72949, 1.19.2022 20:7:7.083
418, 2.22391, 359.837, 179.521, 0, 0, 0, 0.0673828, 0.362305, -9.73926, 1.19.2022 20:7:7.091
419, 2.22391, 359.837, 179.521, -0.000976562, -0.000976562, 0, -0.0253906, 0.380859, -9.72754, 1.19.2022 20:7:7.099
420, 2.22391, 359.837, 179.521, -0.000976562, -0.00195312, 0.000976562, 0.0214844, 0.352539, -9.74023, 1.19.2022 20:7:7.107
421, 2.22391, 359.837, 179.521, 0.000976562, -0.000976562, -0.000976562, 0.0175781, 0.356445, -9.69141, 1.19.2022 20:7:7.115
422, 2.22391, 359.837, 179.521, -0.000976562, -0.00195312, -0.000976562, -0.00390625, 0.385742, -9.71387, 1.19.2022 20:7:7.123
423, 2.22391, 359.837, 179.521, 0, -0.000976562, 0.000976562, 0.0869141, 0.373047, -9.69824, 1.19.2022 20:7:7.131
424, 2.22394, 359.844, 179.52, 0, -0.000976562, 0.000976562, -0.00195312, 0.380859, -9.73047, 1.19.2022 20:7:7.139
425, 2.22394, 359.844, 179.52, -0.000976562, -0.000976562, 0, 0.0273438, 0.392578, -9.7207, 1.19.2022 20:7:7.147
426, 2.22394, 359.844, 179.52, 0, -0.000976562, 0.000976562, 0.046875, 0.367188, -9.66309, 1.19.2022 20:7:7.155
427, 2.22394, 359.844, 179.52, 0, -0.00195312, -0.00195312, -0.0195312, 0.398438, -9.66797, 1.19.2022 20:7:7.163
428, 2.22394, 359.844, 179.52, 0, -0.000976562, 0, 0.046875, 0.394531, -9.69727, 1.19.2022 20:7:7.171
429, 2.22394, 359.844, 179.52, 0, 0, 0.000976562, 0.0273438, 0.375977, -9.72363, 1.19.2022 20:7:7.179
430, 2.22394, 359.844, 179.52, 0, -0.000976562, -0.000976562, -0.000976562, 0.40918, -9.70801, 1.19.2022 20:7:7.187
431, 2.22394, 359.844, 179.52, 0, 0, -0.000976562, 0.0839844, 0.394531, -9.71484, 1.19.2022 20:7:7.195
432, 2.22394, 359.844, 179.52, 0, 0, -0.000976562, -0.0126953, 0.411133, -9.69336, 1.19.2022 20:7:7.203
433, 2.22394, 359.844, 179.52, -0.000976562, -0.000976562, 0, 0.0322266, 0.379883, -9.69531, 1.19.2022 20:7:7.211
434, 2.22397, 359.851, 179.52, -0.000976562, -0.000976562, -0.000976562, 0.0244141, 0.376953, -9.7373, 1.19.2022 20:7:7.219
435, 2.22397, 359.851, 179.52, -0.000976562, -0.000976562, -0.000976562, -0.0136719, 0.395508, -9.73438, 1.19.2022 20:7:7.227
436, 2.23096, 359.851, 179.52, -0.000976562, -0.000976562, -0.000976562, 0.0654297, 0.356445, -9.71289, 1.19.2022 20:7:7.235
437, 2.23096, 359.851, 179.52, -0.000976562, -0.000976562, -0.000976562, 0.0224609, 0.351562, -9.7168, 1.19.2022 20:7:7.243
438, 2.23096, 359.851, 179.52, -0.000976562, 0, -0.00195312, -0.0224609, 0.391602, -9.69434, 1.19.2022 20:7:7.251
439, 2.23096, 359.851, 179.52, 0, 0, -0.000976562, 0.0439453, 0.363281, -9.71191, 1.19.2022 20:7:7.259
440, 2.23096, 359.851, 179.52, 0, -0.000976562, 0, -0.0283203, 0.40332, -9.75, 1.19.2022 20:7:7.267
441, 2.23096, 359.851, 179.52, -0.000976562, 0, -0.000976562, 0.0224609, 0.396484, -9.68555, 1.19.2022 20:7:7.275
442, 2.23795, 359.851, 179.52, 0, -0.000976562, -0.000976562, 0.0488281, 0.354492, -9.71777, 1.19.2022 20:7:7.283
443, 2.23795, 359.851, 179.52, 0, -0.000976562, -0.000976562, 0.0078125, 0.402344, -9.72949, 1.19.2022 20:7:7.291
444, 2.23795, 359.851, 179.52, 0, -0.000976562, -0.000976562, 0.0791016, 0.364258, -9.71777, 1.19.2022 20:7:7.299
445, 2.23795, 359.851, 179.52, 0, 0, -0.000976562, 0.0107422, 0.400391, -9.7207, 1.19.2022 20:7:7.307
446, 2.23795, 359.851, 179.52, 0, -0.000976562, -0.000976562, 0.0146484, 0.388672, -9.74414, 1.19.2022 20:7:7.315
447, 2.23795, 359.851, 179.52, 0.000976562, -0.000976562, -0.000976562, 0.0498047, 0.353516, -9.76758, 1.19.2022 20:7:7.323
448, 2.23798, 359.858, 179.52, 0, -0.000976562, -0.000976562, -0.0332031, 0.381836, -9.7627, 1.19.2022 20:7:7.331
449, 2.23798, 359.858, 179.52, 0, -0.000976562, -0.000976562, 0.0527344, 0.349609, -9.72754, 1.19.2022 20:7:7.339
450, 2.23798, 359.858, 179.52, 0, -0.000976562, -0.000976562, 0.0429688, 0.395508, -9.74707, 1.19.2022 20:7:7.347
451, 2.23798, 359.858, 179.52, -0.000976562, -0.000976562, -0.000976562, -0.00390625, 0.382812, -9.71387, 1.19.2022 20:7:7.355
452, 2.23798, 359.858, 179.52, -0.000976562, -0.000976562, -0.000976562, 0.0751953, 0.349609, -9.71094, 1.19.2022 20:7:7.363
453, 2.23798, 359.858, 179.52, -0.000976562, 0, -0.000976562, -0.0234375, 0.386719, -9.74609, 1.19.2022 20:7:7.371
454, 2.23798, 359.858, 179.52, 0, -0.000976562, -0.000976562, 0.0146484, 0.385742, -9.72559, 1.19.2022 20:7:7.379
455, 2.23798, 359.858, 179.52, 0, -0.000976562, -0.000976562, 0.0576172, 0.37207, -9.74316, 1.19.2022 20:7:7.387
456, 2.23798, 359.858, 179.52, 0, -0.000976562, -0.000976562, -0.0273438, 0.394531, -9.71289, 1.19.2022 20:7:7.395
457, 2.23798, 359.858, 179.52, -0.000976562, -0.000976562, -0.000976562, 0.0673828, 0.383789, -9.75488, 1.19.2022 20:7:7.403
458, 2.23798, 359.858, 179.52, -0.000976562, 0, 0.000976562, 0.0117188, 0.360352, -9.75684, 1.19.2022 20:7:7.411
459, 2.23798, 359.858, 179.52, -0.000976562, -0.000976562, -0.000976562, 0.00878906, 0.393555, -9.67285, 1.19.2022 20:7:7.419
460, 2.23798, 359.858, 179.52, -0.000976562, 0, -0.000976562, 0.0654297, 0.324219, -9.68555, 1.19.2022 20:7:7.427
461, 2.23798, 359.858, 179.52, 0, -0.000976562, -0.000976562, -0.00195312, 0.392578, -9.72949, 1.19.2022 20:7:7.435
462, 2.23798, 359.858, 179.52, -0.000976562, -0.000976562, 0, 0.0410156, 0.382812, -9.72168, 1.19.2022 20:7:7.443
463, 2.23798, 359.858, 179.52, -0.000976562, 0, 0.000976562, 0.0742188, 0.364258, -9.72461, 1.19.2022 20:7:7.451
464, 2.23798, 359.858, 179.52, 0, -0.000976562, 0, -0.0166016, 0.378906, -9.72949, 1.19.2022 20:7:7.459
465, 2.23798, 359.858, 179.52, 0, -0.000976562, -0.000976562, 0.09375, 0.363281, -9.68945, 1.19.2022 20:7:7.467
466, 2.23795, 359.851, 179.52, -0.000976562, -0.000976562, -0.00195312, 0.0224609, 0.385742, -9.72363, 1.19.2022 20:7:7.475
467, 2.23795, 359.851, 179.52, -0.000976562, -0.000976562, 0, 0.0175781, 0.387695, -9.70703, 1.19.2022 20:7:7.483
468, 2.23795, 359.851, 179.52, -0.000976562, 0, -0.000976562, 0.0742188, 0.357422, -9.75586, 1.19.2022 20:7:7.491
469, 2.23795, 359.851, 179.52, -0.000976562, -0.000976562, -0.000976562, -0.0107422, 0.401367, -9.70117, 1.19.2022 20:7:7.499
470, 2.23795, 359.851, 179.52, -0.000976562, 0, -0.000976562, 0.0410156, 0.359375, -9.71289, 1.19.2022 20:7:7.507
471, 2.23795, 359.851, 179.52, 0, 0, -0.000976562, 0.0527344, 0.364258, -9.7168, 1.19.2022 20:7:7.515
472, 2.23792, 359.844, 179.52, 0, -0.000976562, -0.000976562, 0.0107422, 0.392578, -9.70117, 1.19.2022 20:7:7.523
473, 2.23093, 359.844, 179.52, 0, -0.000976562, -0.000976562, 0.0703125, 0.358398, -9.70117, 1.19.2022 20:7:7.531
474, 2.23093, 359.844, 179.52, 0, -0.000976562, 0, 0.0224609, 0.369141, -9.7168, 1.19.2022 20:7:7.539
475, 2.23092, 359.844, 179.513, 0.000976562, -0.000976562, -0.000976562, 0.00488281, 0.376953, -9.7373, 1.19.2022 20:7:7.547
476, 2.23092, 359.844, 179.513, 0, 0, -0.000976562, 0.100586, 0.369141, -9.74121, 1.19.2022 20:7:7.555
477, 2.23089, 359.837, 179.514, 0, 0, -0.000976562, 0.0078125, 0.388672, -9.74414, 1.19.2022 20:7:7.563
478, 2.23089, 359.837, 179.514, 0, -0.000976562, -0.000976562, 0.0673828, 0.381836, -9.75195, 1.19.2022 20:7:7.571
479, 2.23089, 359.837, 179.514, 0, -0.000976562, 0, 0.0107422, 0.371094, -9.71387, 1.19.2022 20:7:7.579
480, 2.23089, 359.837, 179.514, -0.000976562, -0.00195312, -0.000976562, -0.00195312, 0.378906, -9.72266, 1.19.2022 20:7:7.587
481, 2.23086, 359.83, 179.514, -0.000976562, -0.000976562, -0.000976562, 0.0625, 0.383789, -9.7334, 1.19.2022 20:7:7.595
482, 2.23086, 359.83, 179.514, 0, 0, -0.000976562, 0.00488281, 0.37793, -9.77734, 1.19.2022 20:7:7.603
483, 2.23086, 359.83, 179.514, -0.000976562, -0.000976562, -0.000976562, 0.015625, 0.394531, -9.71582, 1.19.2022 20:7:7.611
484, 2.22387, 359.83, 179.514, 0, 0, -0.000976562, 0.0546875, 0.362305, -9.74609, 1.19.2022 20:7:7.619
485, 2.22387, 359.83, 179.514, -0.000976562, -0.000976562, 0, -0.0332031, 0.410156, -9.74512, 1.19.2022 20:7:7.627
486, 2.22387, 359.83, 179.514, -0.000976562, 0, 0.000976562, 0.0488281, 0.363281, -9.69629, 1.19.2022 20:7:7.635
487, 2.22384, 359.823, 179.514, 0, -0.000976562, 0, 0.0390625, 0.358398, -9.69824, 1.19.2022 20:7:7.643
488, 2.22384, 359.823, 179.514, -0.000976562, -0.00195312, -0.000976562, 0.0078125, 0.404297, -9.70117, 1.19.2022 20:7:7.651
489, 2.23083, 359.823, 179.514, -0.000976562, -0.000976562, -0.000976562, 0.0371094, 0.363281, -9.69824, 1.19.2022 20:7:7.659
490, 2.23083, 359.823, 179.514, -0.000976562, -0.000976562, -0.000976562, -0.0126953, 0.374023, -9.64258, 1.19.2022 20:7:7.667
491, 2.23083, 359.823, 179.514, 0, -0.000976562, -0.000976562, 0.0341797, 0.402344, -9.71582, 1.19.2022 20:7:7.675
492, 2.23083, 359.823, 179.514, 0, -0.000976562, -0.000976562, 0.0419922, 0.34082, -9.67969, 1.19.2022 20:7:7.683
493, 2.23086, 359.83, 179.514, -0.000976562, -0.000976562, -0.000976562, -0.046875, 0.384766, -9.70312, 1.19.2022 20:7:7.691
494, 2.23086, 359.83, 179.514, -0.000976562, -0.000976562, -0.000976562, 0.0751953, 0.371094, -9.70605, 1.19.2022 20:7:7.699
495, 2.23086, 359.83, 179.514, -0.000976562, -0.000976562, 0, 0.0224609, 0.365234, -9.68848, 1.19.2022 20:7:7.707
496, 2.23086, 359.83, 179.514, -0.000976562, -0.000976562, -0.000976562, 0.000976562, 0.356445, -9.70215, 1.19.2022 20:7:7.715
497, 2.23086, 359.83, 179.514, -0.000976562, -0.000976562, -0.000976562, 0.0478516, 0.357422, -9.73145, 1.19.2022 20:7:7.723
498, 2.23086, 359.83, 179.514, 0, -0.000976562, -0.000976562, -0.00195312, 0.359375, -9.7168, 1.19.2022 20:7:7.729
499, 2.23086, 359.83, 179.514, 0, -0.000976562, -0.000976562, 0.0283203, 0.370117, -9.75879, 1.19.2022 20:7:7.737
500, 2.22387, 359.83, 179.514, 0, 0, -0.00195312, 0.0205078, 0.375, -9.70215, 1.19.2022 20:7:7.745
501, 2.22387, 359.83, 179.514, -0.000976562, -0.000976562, -0.000976562, -0.015625, 0.411133, -9.68164, 1.19.2022 20:7:7.753
502, 2.22387, 359.83, 179.514, -0.000976562, 0, 0, 0.0732422, 0.365234, -9.67969, 1.19.2022 20:7:7.761
503, 2.2239, 359.837, 179.514, 0, 0, 0, -0.00878906, 0.393555, -9.73633, 1.19.2022 20:7:7.769
504, 2.2239, 359.837, 179.514, 0, -0.00195312, 0, 0.00292969, 0.387695, -9.71094, 1.19.2022 20:7:7.777
505, 2.2239, 359.837, 179.514, 0, -0.000976562, -0.000976562, 0.0742188, 0.359375, -9.72266, 1.19.2022 20:7:7.785
506, 2.2239, 359.837, 179.514, 0, 0, -0.000976562, -0.0292969, 0.384766, -9.67969, 1.19.2022 20:7:7.793
507, 2.2239, 359.837, 179.514, -0.000976562, -0.000976562, -0.000976562, 0.0390625, 0.374023, -9.72168, 1.19.2022 20:7:7.801
508, 2.2239, 359.837, 179.514, -0.000976562, -0.000976562, -0.000976562, 0.0195312, 0.356445, -9.72168, 1.19.2022 20:7:7.809
509, 2.2239, 359.837, 179.514, -0.000976562, 0, -0.000976562, 0.0126953, 0.390625, -9.71582, 1.19.2022 20:7:7.817
510, 2.22393, 359.844, 179.513, -0.00195312, 0, 0, 0.0791016, 0.362305, -9.74414, 1.19.2022 20:7:7.825
511, 2.22393, 359.844, 179.513, -0.000976562, 0, -0.000976562, -0.00878906, 0.380859, -9.73242, 1.19.2022 20:7:7.833
512, 2.22393, 359.844, 179.513, 0, -0.000976562, 0, 0.0410156, 0.349609, -9.70996, 1.19.2022 20:7:7.841
513, 2.22393, 359.844, 179.513, -0.000976562, -0.000976562, 0, 0.0957031, 0.356445, -9.72559, 1.19.2022 20:7:7.849
514, 2.22393, 359.844, 179.513, -0.000976562, 0, -0.000976562, -0.0351562, 0.395508, -9.74121, 1.19.2022 20:7:7.857
515, 2.22393, 359.844, 179.513, -0.000976562, 0, -0.000976562, 0.0742188, 0.373047, -9.71777, 1.19.2022 20:7:7.865
516, 2.22393, 359.844, 179.513, 0, -0.000976562, 0, 0.0263672, 0.376953, -9.75, 1.19.2022 20:7:7.873
517, 2.22393, 359.844, 179.513, -0.000976562, 0, 0, 0.015625, 0.384766, -9.70703, 1.19.2022 20:7:7.881
518, 2.22393, 359.844, 179.513, -0.000976562, 0, -0.000976562, 0.0986328, 0.370117, -9.69141, 1.19.2022 20:7:7.889
519, 2.2239, 359.837, 179.514, -0.000976562, -0.000976562, -0.00195312, -0.00878906, 0.405273, -9.72656, 1.19.2022 20:7:7.897
520, 2.2239, 359.837, 179.514, -0.000976562, 0, -0.000976562, 0.0625, 0.369141, -9.73145, 1.19.2022 20:7:7.905
521, 2.2239, 359.837, 179.514, 0, -0.000976562, -0.000976562, 0.03125, 0.359375, -9.71973, 1.19.2022 20:7:7.913
522, 2.2239, 359.837, 179.514, 0, -0.000976562, -0.000976562, 0, 0.388672, -9.75098, 1.19.2022 20:7:7.921
523, 2.2239, 359.837, 179.514, -0.000976562, 0, 0, 0.0673828, 0.371094, -9.71289, 1.19.2022 20:7:7.929
524, 2.2239, 359.837, 179.514, 0, 0, 0, 0.0439453, 0.379883, -9.70703, 1.19.2022 20:7:7.937
525, 2.2239, 359.837, 179.514, 0, -0.000976562, -0.000976562, 0.0292969, 0.364258, -9.72852, 1.19.2022 20:7:7.945
526, 2.21688, 359.83, 179.514, 0, 0, -0.00195312, 0.0625, 0.344727, -9.70605, 1.19.2022 20:7:7.953
527, 2.21688, 359.83, 179.514, 0, -0.000976562, 0, -0.0302734, 0.375977, -9.72754, 1.19.2022 20:7:7.961
528, 2.21688, 359.83, 179.514, 0, 0, -0.000976562, 0.0625, 0.363281, -9.71484, 1.19.2022 20:7:7.969
529, 2.21688, 359.83, 179.514, 0, -0.000976562, -0.000976562, 0.0292969, 0.362305, -9.74512, 1.19.2022 20:7:7.977
530, 2.21688, 359.83, 179.514, -0.000976562, -0.000976562, -0.00195312, 0.0253906, 0.367188, -9.67188, 1.19.2022 20:7:7.985
531, 2.21685, 359.823, 179.514, -0.000976562, 0, -0.000976562, 0.0771484, 0.370117, -9.69629, 1.19.2022 20:7:7.993
532, 2.21685, 359.823, 179.514, -0.000976562, -0.000976562, -0.00195312, -0.0322266, 0.366211, -9.71094, 1.19.2022 20:7:8.001
533, 2.21685, 359.823, 179.514, -0.000976562, -0.000976562, -0.000976562, -0.00585938, 0.384766, -9.69434, 1.19.2022 20:7:8.009
534, 2.21685, 359.823, 179.514, -0.000976562, 0, -0.000976562, 0.0654297, 0.375, -9.70508, 1.19.2022 20:7:8.017
535, 2.21685, 359.823, 179.514, -0.000976562, -0.000976562, -0.000976562, 0.0078125, 0.37793, -9.70215, 1.19.2022 20:7:8.025
536, 2.21685, 359.823, 179.514, -0.000976562, -0.00195312, -0.000976562, 0.0556641, 0.373047, -9.69141, 1.19.2022 20:7:8.033
537, 2.21685, 359.823, 179.514, -0.000976562, -0.000976562, -0.000976562, 0.0166016, 0.391602, -9.75391, 1.19.2022 20:7:8.041
538, 2.21685, 359.823, 179.514, -0.000976562, -0.000976562, -0.000976562, -0.0078125, 0.40332, -9.68164, 1.19.2022 20:7:8.049
539, 2.21685, 359.823, 179.514, -0.000976562, -0.000976562, -0.000976562, 0.0654297, 0.356445, -9.72461, 1.19.2022 20:7:8.057
540, 2.21685, 359.823, 179.514, -0.000976562, -0.000976562, -0.000976562, -0.00292969, 0.376953, -9.68262, 1.19.2022 20:7:8.065
541, 2.21685, 359.823, 179.514, 0, -0.000976562, -0.000976562, 0.0146484, 0.354492, -9.71484, 1.19.2022 20:7:8.073
542, 2.21685, 359.823, 179.514, -0.000976562, -0.000976562, -0.000976562, 0.0322266, 0.371094, -9.7168, 1.19.2022 20:7:8.081
543, 2.21685, 359.823, 179.514, -0.000976562, 0, -0.000976562, -0.0205078, 0.393555, -9.73633, 1.19.2022 20:7:8.089
544, 2.21685, 359.823, 179.514, -0.000976562, -0.000976562, -0.000976562, 0.0625, 0.376953, -9.74023, 1.19.2022 20:7:8.097
545, 2.21685, 359.823, 179.514, -0.000976562, -0.000976562, -0.000976562, 0.0214844, 0.364258, -9.74316, 1.19.2022 20:7:8.105
546, 2.21685, 359.823, 179.514, -0.000976562, 0, -0.000976562, 0.0390625, 0.373047, -9.70703, 1.19.2022 20:7:8.113
547, 2.21685, 359.823, 179.514, 0, 0.000976562, -0.000976562, 0.0908203, 0.369141, -9.72754, 1.19.2022 20:7:8.121
548, 2.21687, 359.823, 179.521, 0, -0.000976562, -0.000976562, 0.00390625, 0.384766, -9.69434, 1.19.2022 20:7:8.129
549, 2.21687, 359.823, 179.521, 0, 0, -0.000976562, 0.0371094, 0.393555, -9.68066, 1.19.2022 20:7:8.137
550, 2.21687, 359.823, 179.521, -0.000976562, 0.000976562, -0.000976562, 0.0527344, 0.376953, -9.75, 1.19.2022 20:7:8.145
551, 2.21687, 359.823, 179.521, -0.000976562, 0, -0.000976562, -0.0117188, 0.400391, -9.73633, 1.19.2022 20:7:8.153
552, 2.21687, 359.823, 179.521, -0.000976562, -0.000976562, -0.000976562, 0.0839844, 0.359375, -9.72461, 1.19.2022 20:7:8.161
553, 2.21687, 359.823, 179.521, -0.000976562, 0, -0.000976562, -0.0117188, 0.359375, -9.72852, 1.19.2022 20:7:8.169
554, 2.21687, 359.823, 179.521, -0.000976562, 0, -0.000976562, 0.000976562, 0.380859, -9.71875, 1.19.2022 20:7:8.177
555, 2.21687, 359.823, 179.521, 0, 0, -0.000976562, 0.0527344, 0.344727, -9.71777, 1.19.2022 20:7:8.185
556, 2.21687, 359.823, 179.521, -0.000976562, 0, -0.000976562, -0.0253906, 0.398438, -9.74316, 1.19.2022 20:7:8.193
557, 2.21687, 359.823, 179.521, -0.000976562, -0.000976562, -0.000976562, 0.0361328, 0.381836, -9.74707, 1.19.2022 20:7:8.201
558, 2.21687, 359.823, 179.521, 0, -0.000976562, 0, 0.0390625, 0.379883, -9.69336, 1.19.2022 20:7:8.209
559, 2.21687, 359.823, 179.521, -0.000976562, -0.000976562, 0, -0.0185547, 0.389648, -9.71094, 1.19.2022 20:7:8.217
560, 2.21687, 359.823, 179.521, -0.000976562, -0.00195312, -0.000976562, 0.0869141, 0.379883, -9.70996, 1.19.2022 20:7:8.225
561, 2.21687, 359.823, 179.521, 0, -0.000976562, 0, -0.00195312, 0.359375, -9.72363, 1.19.2022 20:7:8.233
562, 2.21687, 359.823, 179.521, 0, 0, 0, 0.0078125, 0.375, -9.70215, 1.19.2022 20:7:8.241
563, 2.2169, 359.83, 179.521, -0.000976562, -0.000976562, 0, 0.0625, 0.371094, -9.72949, 1.19.2022 20:7:8.249
564, 2.2169, 359.83, 179.521, 0, -0.000976562, 0, -0.0117188, 0.410156, -9.74121, 1.19.2022 20:7:8.257
565, 2.2169, 359.83, 179.521, -0.000976562, -0.000976562, 0.000976562, 0.0546875, 0.393555, -9.76172, 1.19.2022 20:7:8.265
566, 2.2169, 359.83, 179.521, 0, -0.000976562, 0, 0.0195312, 0.357422, -9.73535, 1.19.2022 20:7:8.273
567, 2.2169, 359.83, 179.521, 0, -0.000976562, 0, -0.00585938, 0.387695, -9.71582, 1.19.2022 20:7:8.281
568, 2.2169, 359.83, 179.521, -0.000976562, 0, 0.000976562, 0.0908203, 0.378906, -9.75293, 1.19.2022 20:7:8.289
569, 2.21688, 359.83, 179.514, -0.00195312, -0.000976562, 0, -0.00878906, 0.378906, -9.73926, 1.19.2022 20:7:8.297
570, 2.22387, 359.83, 179.514, -0.00195312, -0.000976562, 0, 0.015625, 0.368164, -9.70508, 1.19.2022 20:7:8.305
571, 2.22387, 359.83, 179.514, 0, -0.000976562, 0.000976562, 0.0439453, 0.359375, -9.72168, 1.19.2022 20:7:8.313
572, 2.22387, 359.83, 179.514, -0.000976562, -0.000976562, 0, -0.0175781, 0.391602, -9.69141, 1.19.2022 20:7:8.321
573, 2.22387, 359.83, 179.514, -0.000976562, -0.000976562, 0.000976562, 0.0673828, 0.378906, -9.74512, 1.19.2022 20:7:8.329
574, 2.2239, 359.837, 179.514, -0.000976562, 0, 0.000976562, 0.0341797, 0.37793, -9.72168, 1.19.2022 20:7:8.337
575, 2.2239, 359.837, 179.514, -0.000976562, -0.00195312, 0.000976562, 0.0107422, 0.37793, -9.71875, 1.19.2022 20:7:8.345
576, 2.2239, 359.837, 179.514, -0.000976562, -0.000976562, 0, 0.0673828, 0.375977, -9.72852, 1.19.2022 20:7:8.353
577, 2.2239, 359.837, 179.514, -0.000976562, -0.000976562, 0, -0.0205078, 0.394531, -9.70312, 1.19.2022 20:7:8.361
578, 2.2239, 359.837, 179.514, -0.000976562, 0, 0.000976562, 0.0341797, 0.397461, -9.73535, 1.19.2022 20:7:8.369
579, 2.2239, 359.837, 179.514, -0.000976562, -0.000976562, 0, 0.0478516, 0.375977, -9.73828, 1.19.2022 20:7:8.377
580, 2.2239, 359.837, 179.514, -0.000976562, -0.000976562, -0.00195312, -0.0224609, 0.399414, -9.69336, 1.19.2022 20:7:8.385
581, 2.2239, 359.837, 179.514, 0, -0.00195312, -0.000976562, 0.0722656, 0.378906, -9.72656, 1.19.2022 20:7:8.393
582, 2.23089, 359.837, 179.514, 0, -0.000976562, 0, 0.0224609, 0.370117, -9.69336, 1.19.2022 20:7:8.401
583, 2.23089, 359.837, 179.514, 0, 0, 0.000976562, 0.0253906, 0.365234, -9.69043, 1.19.2022 20:7:8.409
584, 2.23089, 359.837, 179.514, 0, 0, 0.000976562, 0.0478516, 0.350586, -9.75781, 1.19.2022 20:7:8.417
585, 2.23089, 359.837, 179.514, -0.000976562, -0.000976562, 0.000976562, -0.0234375, 0.380859, -9.73633, 1.19.2022 20:7:8.425
586, 2.23089, 359.837, 179.514, -0.000976562, 0, 0, 0.0341797, 0.385742, -9.71875, 1.19.2022 20:7:8.433
587, 2.23089, 359.837, 179.514, -0.000976562, -0.000976562, 0, 0.0556641, 0.358398, -9.70801, 1.19.2022 20:7:8.441
588, 2.23089, 359.837, 179.514, -0.000976562, -0.000976562, 0, -0.00585938, 0.375977, -9.71387, 1.19.2022 20:7:8.449
589, 2.23089, 359.837, 179.514, -0.000976562, -0.000976562, 0.000976562, 0.110352, 0.349609, -9.7373, 1.19.2022 20:7:8.457
590, 2.23089, 359.837, 179.514, 0, -0.000976562, -0.000976562, 0.00488281, 0.364258, -9.7334, 1.19.2022 20:7:8.465
591, 2.23089, 359.837, 179.514, 0, 0, -0.000976562, 0.00976562, 0.383789, -9.7373, 1.19.2022 20:7:8.473
592, 2.23089, 359.837, 179.514, 0, 0, -0.000976562, 0.0556641, 0.352539, -9.73926, 1.19.2022 20:7:8.481
593, 2.23089, 359.837, 179.514, -0.000976562, -0.000976562, -0.000976562, 0.00488281, 0.385742, -9.73926, 1.19.2022 20:7:8.489
594, 2.2239, 359.837, 179.514, 0, -0.000976562, -0.000976562, 0.0722656, 0.351562, -9.69434, 1.19.2022 20:7:8.497
595, 2.2239, 359.837, 179.514, -0.000976562, -0.000976562, -0.000976562, 0.0273438, 0.368164, -9.70703, 1.19.2022 20:7:8.505
596, 2.2239, 359.837, 179.514, 0, -0.000976562, 0, -0.00195312, 0.392578, -9.72266, 1.19.2022 20:7:8.513
597, 2.2239, 359.837, 179.514, -0.000976562, -0.000976562, -0.000976562, 0.0576172, 0.368164, -9.71484, 1.19.2022 20:7:8.521
598, 2.2239, 359.837, 179.514, -0.000976562, -0.000976562, -0.000976562, 0.00292969, 0.380859, -9.70703, 1.19.2022 20:7:8.529
599, 2.22387, 359.83, 179.514, -0.00195312, -0.000976562, -0.000976562, 0.0390625, 0.365234, -9.69336, 1.19.2022 20:7:8.537
600, 2.22387, 359.83, 179.514, -0.000976562, -0.000976562, -0.000976562, 0.0576172, 0.366211, -9.73145, 1.19.2022 20:7:8.545
601, 2.22387, 359.83, 179.514, -0.000976562, -0.000976562, -0.000976562, -0.0185547, 0.382812, -9.71289, 1.19.2022 20:7:8.553
602, 2.22387, 359.83, 179.514, -0.000976562, -0.000976562, -0.000976562, 0.0576172, 0.380859, -9.7334, 1.19.2022 20:7:8.561
603, 2.22387, 359.83, 179.514, -0.000976562, -0.000976562, -0.000976562, 0.0126953, 0.365234, -9.69336, 1.19.2022 20:7:8.569
604, 2.22387, 359.83, 179.514, -0.000976562, -0.00195312, -0.000976562, 0.0371094, 0.393555, -9.68262, 1.19.2022 20:7:8.577
605, 2.22387, 359.83, 179.514, 0, -0.000976562, -0.00195312, 0.0751953, 0.354492, -9.71094, 1.19.2022 20:7:8.585
606, 2.21688, 359.83, 179.514, -0.000976562, 0, 0, -0.0322266, 0.375, -9.67773, 1.19.2022 20:7:8.593
607, 2.21688, 359.83, 179.514, 0, -0.000976562, 0, 0.015625, 0.37793, -9.70898, 1.19.2022 20:7:8.601
608, 2.21688, 359.83, 179.514, -0.000976562, 0, -0.000976562, 0.0341797, 0.349609, -9.70801, 1.19.2022 20:7:8.609
609, 2.21688, 359.83, 179.514, 0, -0.000976562, -0.000976562, 0.00292969, 0.371094, -9.73047, 1.19.2022 20:7:8.617
610, 2.21688, 359.83, 179.514, 0, -0.000976562, -0.000976562, 0.0917969, 0.375977, -9.71973, 1.19.2022 20:7:8.625
611, 2.21688, 359.83, 179.514, -0.000976562, -0.000976562, -0.000976562, 0.0361328, 0.374023, -9.72168, 1.19.2022 20:7:8.633
612, 2.21688, 359.83, 179.514, -0.000976562, 0, -0.000976562, 0.0458984, 0.392578, -9.71875, 1.19.2022 20:7:8.641
613, 2.21688, 359.83, 179.514, -0.000976562, -0.000976562, 0, 0.0888672, 0.369141, -9.72754, 1.19.2022 20:7:8.649
614, 2.21685, 359.823, 179.514, 0, -0.000976562, -0.000976562, -0.0107422, 0.385742, -9.7207, 1.19.2022 20:7:8.657
615, 2.21685, 359.823, 179.514, 0, -0.00195312, -0.000976562, 0.0585938, 0.40625, -9.69922, 1.19.2022 20:7:8.665
616, 2.21685, 359.823, 179.514, -0.000976562, -0.000976562, -0.000976562, 0.0576172, 0.390625, -9.72852, 1.19.2022 20:7:8.673
617, 2.21685, 359.823, 179.514, -0.000976562, -0.00195312, -0.000976562, 0.0175781, 0.40625, -9.69922, 1.19.2022 20:7:8.681
618, 2.21685, 359.823, 179.514, 0, -0.000976562, 0, 0.0839844, 0.350586, -9.74609, 1.19.2022 20:7:8.689
619, 2.21685, 359.823, 179.514, -0.000976562, -0.000976562, -0.000976562, -0.0107422, 0.366211, -9.70898, 1.19.2022 20:7:8.695
620, 2.21685, 359.823, 179.514, -0.000976562, -0.000976562, -0.00195312, 0.0292969, 0.371094, -9.70996, 1.19.2022 20:7:8.703
621, 2.21682, 359.816, 179.514, -0.000976562, -0.000976562, -0.000976562, 0.0576172, 0.370117, -9.76465, 1.19.2022 20:7:8.711
622, 2.21682, 359.816, 179.514, -0.000976562, -0.000976562, -0.000976562, -0.0253906, 0.414062, -9.70312, 1.19.2022 20:7:8.721
623, 2.21682, 359.816, 179.514, 0, -0.000976562, -0.000976562, 0.0869141, 0.360352, -9.69629, 1.19.2022 20:7:8.727
624, 2.21682, 359.816, 179.514, -0.000976562, -0.000976562, 0, 0.015625, 0.348633, -9.68359, 1.19.2022 20:7:8.735
625, 2.21682, 359.816, 179.514, 0, -0.000976562, -0.000976562, 0.00390625, 0.382812, -9.69727, 1.19.2022 20:7:8.743
626, 2.21682, 359.816, 179.514, 0, -0.000976562, -0.000976562, 0.0888672, 0.356445, -9.70898, 1.19.2022 20:7:8.751
627, 2.21679, 359.809, 179.514, 0, -0.000976562, -0.000976562, 0.00488281, 0.375977, -9.73242, 1.19.2022 20:7:8.759
628, 2.21679, 359.809, 179.514, 0, -0.000976562, -0.000976562, 0.0205078, 0.384766, -9.68262, 1.19.2022 20:7:8.767
629, 2.21679, 359.809, 179.514, -0.000976562, -0.000976562, -0.000976562, 0.0361328, 0.378906, -9.74023, 1.19.2022 20:7:8.775
630, 2.21679, 359.809, 179.514, -0.000976562, -0.00195312, 0, -0.00585938, 0.407227, -9.71777, 1.19.2022 20:7:8.783
631, 2.21679, 359.809, 179.514, 0, -0.000976562, 0, 0.0810547, 0.364258, -9.73633, 1.19.2022 20:7:8.791
632, 2.21679, 359.809, 179.514, 0, -0.000976562, 0, 0, 0.374023, -9.74902, 1.19.2022 20:7:8.799
633, 2.21679, 359.809, 179.514, 0, -0.000976562, -0.00195312, 0.0146484, 0.410156, -9.74121, 1.19.2022 20:7:8.807
634, 2.21679, 359.809, 179.514, 0, -0.000976562, -0.00195312, 0.0742188, 0.362305, -9.73145, 1.19.2022 20:7:8.815
635, 2.21679, 359.809, 179.514, -0.000976562, -0.000976562, -0.000976562, -0.0205078, 0.390625, -9.72461, 1.19.2022 20:7:8.823
636, 2.21679, 359.809, 179.514, 0, -0.000976562, -0.000976562, 0.0498047, 0.378906, -9.75488, 1.19.2022 20:7:8.831
637, 2.21679, 359.809, 179.514, -0.000976562, -0.000976562, -0.000976562, 0.0341797, 0.352539, -9.73145, 1.19.2022 20:7:8.839
638, 2.21679, 359.809, 179.514, 0, 0.000976562, 0.000976562, -0.0224609, 0.394531, -9.69629, 1.19.2022 20:7:8.847
639, 2.21679, 359.809, 179.514, -0.000976562, 0.000976562, -0.000976562, 0.0771484, 0.366211, -9.70605, 1.19.2022 20:7:8.855
640, 2.22378, 359.809, 179.514, -0.000976562, -0.000976562, -0.000976562, 0.0224609, 0.354492, -9.71484, 1.19.2022 20:7:8.863
641, 2.22378, 359.809, 179.514, -0.000976562, 0.000976562, 0.000976562, 0.0224609, 0.389648, -9.69727, 1.19.2022 20:7:8.871
642, 2.22378, 359.809, 179.514, 0, -0.000976562, -0.000976562, 0.0693359, 0.374023, -9.73828, 1.19.2022 20:7:8.879
643, 2.22378, 359.809, 179.514, -0.000976562, -0.000976562, -0.000976562, -0.000976562, 0.382812, -9.70605, 1.19.2022 20:7:8.887
644, 2.22378, 359.809, 179.514, 0, -0.000976562, -0.000976562, 0.0507812, 0.366211, -9.72461, 1.19.2022 20:7:8.895
645, 2.22378, 359.809, 179.514, 0, -0.000976562, -0.000976562, 0.0322266, 0.361328, -9.70801, 1.19.2022 20:7:8.903
646, 2.22378, 359.809, 179.514, -0.000976562, 0.000976562, -0.000976562, -0.00390625, 0.389648, -9.69434, 1.19.2022 20:7:8.911
647, 2.22378, 359.809, 179.514, -0.000976562, -0.000976562, -0.000976562, 0.0986328, 0.34668, -9.71582, 1.19.2022 20:7:8.919
648, 2.22378, 359.809, 179.514, -0.000976562, -0.000976562, -0.000976562, -0.015625, 0.366211, -9.69531, 1.19.2022 20:7:8.927
649, 2.22378, 359.809, 179.514, -0.000976562, 0.000976562, 0.000976562, 0.0244141, 0.368164, -9.71191, 1.19.2022 20:7:8.935
650, 2.22378, 359.809, 179.514, 0, -0.000976562, -0.00195312, 0.0673828, 0.37207, -9.74121, 1.19.2022 20:7:8.943
651, 2.22378, 359.809, 179.514, -0.000976562, -0.000976562, -0.000976562, -0.0107422, 0.414062, -9.69824, 1.19.2022 20:7:8.951
652, 2.22378, 359.809, 179.514, -0.000976562, -0.000976562, -0.000976562, 0.0507812, 0.362305, -9.7334, 1.19.2022 20:7:8.959
653, 2.22378, 359.809, 179.514, -0.000976562, -0.000976562, -0.000976562, 0.0214844, 0.374023, -9.7373, 1.19.2022 20:7:8.967
654, 2.21679, 359.809, 179.514, 0, -0.000976562, -0.000976562, 0.000976562, 0.392578, -9.72266, 1.19.2022 20:7:8.975
655, 2.21679, 359.809, 179.514, 0, 0, -0.000976562, 0.0605469, 0.349609, -9.72266, 1.19.2022 20:7:8.983
656, 2.21679, 359.809, 179.514, 0, 0, -0.000976562, -0.0175781, 0.398438, -9.68164, 1.19.2022 20:7:8.991
657, 2.21679, 359.809, 179.514, -0.000976562, 0, -0.000976562, 0.0371094, 0.384766, -9.68066, 1.19.2022 20:7:8.999
658, 2.21679, 359.809, 179.514, 0, 0, -0.000976562, 0.0576172, 0.354492, -9.71484, 1.19.2022 20:7:9.007
659, 2.21679, 359.809, 179.514, -0.000976562, -0.000976562, -0.000976562, -0.0302734, 0.395508, -9.72656, 1.19.2022 20:7:9.015
660, 2.21679, 359.809, 179.514, -0.000976562, -0.000976562, -0.000976562, 0.0673828, 0.368164, -9.70117, 1.19.2022 20:7:9.023
661, 2.21679, 359.809, 179.514, -0.000976562, -0.000976562, 0, 0.0253906, 0.341797, -9.68164, 1.19.2022 20:7:9.031
662, 2.21679, 359.809, 179.514, -0.000976562, -0.000976562, -0.000976562, 0.015625, 0.373047, -9.69238, 1.19.2022 20:7:9.039
663, 2.21679, 359.809, 179.514, 0, -0.000976562, -0.000976562, 0.0537109, 0.375, -9.70312, 1.19.2022 20:7:9.047
664, 2.21679, 359.809, 179.514, -0.000976562, -0.000976562, -0.000976562, -0.0283203, 0.402344, -9.7334, 1.19.2022 20:7:9.055
665, 2.21682, 359.816, 179.514, 0, 0, -0.000976562, 0.0146484, 0.385742, -9.73047, 1.19.2022 20:7:9.063
666, 2.21682, 359.816, 179.514, -0.000976562, 0, 0.000976562, 0.0341797, 0.368164, -9.70996, 1.19.2022 20:7:9.071
667, 2.21682, 359.816, 179.514, -0.000976562, -0.000976562, 0, -0.0419922, 0.405273, -9.72852, 1.19.2022 20:7:9.079
668, 2.21682, 359.816, 179.514, 0, 0, 0, 0.0742188, 0.352539, -9.73633, 1.19.2022 20:7:9.087
669, 2.21682, 359.816, 179.514, 0, -0.000976562, -0.000976562, 0.0146484, 0.371094, -9.72559, 1.19.2022 20:7:9.095
670, 2.21682, 359.816, 179.514, 0, -0.000976562, -0.00195312, 0.000976562, 0.395508, -9.72461, 1.19.2022 20:7:9.103
671, 2.21685, 359.823, 179.514, 0, -0.00195312, -0.000976562, 0.0341797, 0.368164, -9.7002, 1.19.2022 20:7:9.111
672, 2.21685, 359.823, 179.514, -0.000976562, -0.00195312, -0.000976562, -0.0410156, 0.396484, -9.68164, 1.19.2022 20:7:9.119
673, 2.22384, 359.823, 179.514, -0.000976562, -0.00195312, -0.000976562, 0.0556641, 0.364258, -9.71777, 1.19.2022 20:7:9.127
674, 2.22387, 359.83, 179.514, -0.00195312, -0.000976562, -0.000976562, 0.0488281, 0.371094, -9.72168, 1.19.2022 20:7:9.135
675, 2.22387, 359.83, 179.514, -0.000976562, -0.000976562, -0.000976562, -0.015625, 0.384766, -9.70117, 1.19.2022 20:7:9.143
676, 2.22387, 359.83, 179.514, -0.00195312, -0.000976562, -0.000976562, 0.0703125, 0.366211, -9.71777, 1.19.2022 20:7:9.151
677, 2.22387, 359.83, 179.514, -0.000976562, -0.000976562, 0, -0.0185547, 0.374023, -9.74414, 1.19.2022 20:7:9.159
678, 2.2239, 359.837, 179.514, -0.000976562, 0, -0.000976562, 0.03125, 0.397461, -9.72559, 1.19.2022 20:7:9.167
679, 2.2239, 359.837, 179.514, -0.000976562, -0.000976562, 0, 0.0361328, 0.359375, -9.72168, 1.19.2022 20:7:9.175
680, 2.2239, 359.837, 179.514, 0, -0.00195312, -0.000976562, -0.0419922, 0.397461, -9.7002, 1.19.2022 20:7:9.183
681, 2.2239, 359.837, 179.514, -0.000976562, 0, -0.00195312, 0.0556641, 0.387695, -9.71191, 1.19.2022 20:7:9.191
682, 2.2239, 359.837, 179.514, -0.000976562, -0.000976562, -0.000976562, 0.0292969, 0.371094, -9.71875, 1.19.2022 20:7:9.199
683, 2.22393, 359.844, 179.513, -0.000976562, -0.000976562, -0.000976562, -0.000976562, 0.353516, -9.68848, 1.19.2022 20:7:9.207
684, 2.22393, 359.844, 179.513, 0, -0.000976562, -0.00195312, 0.0673828, 0.364258, -9.72949, 1.19.2022 20:7:9.215
685, 2.22393, 359.844, 179.513, 0, 0, 0, -0.0136719, 0.361328, -9.7041, 1.19.2022 20:7:9.223
686, 2.22393, 359.844, 179.513, -0.000976562, 0, -0.000976562, 0.0224609, 0.390625, -9.71875, 1.19.2022 20:7:9.231
687, 2.22393, 359.844, 179.513, -0.000976562, -0.000976562, -0.000976562, 0.0371094, 0.392578, -9.70215, 1.19.2022 20:7:9.239
688, 2.22396, 359.851, 179.513, 0, -0.000976562, -0.000976562, -0.0400391, 0.385742, -9.70801, 1.19.2022 20:7:9.247
689, 2.22396, 359.851, 179.513, -0.000976562, -0.000976562, 0, 0.0429688, 0.378906, -9.74707, 1.19.2022 20:7:9.255
690, 2.22396, 359.851, 179.513, -0.000976562, -0.000976562, -0.000976562, 0.015625, 0.375, -9.68359, 1.19.2022 20:7:9.263
691, 2.22396, 359.851, 179.513, 0, 0, -0.00195312, 0.0195312, 0.370117, -9.75, 1.19.2022 20:7:9.271
692, 2.22396, 359.851, 179.513, 0, 0, -0.00195312, 0.0537109, 0.358398, -9.68945, 1.19.2022 20:7:9.279
693, 2.22396, 359.851, 179.513, -0.000976562, 0, -0.000976562, -0.00292969, 0.381836, -9.67773, 1.19.2022 20:7:9.287
694, 2.22396, 359.851, 179.513, -0.000976562, 0, 0, 0.0585938, 0.379883, -9.70508, 1.19.2022 20:7:9.295
695, 2.22399, 359.858, 179.513, -0.000976562, 0, -0.000976562, 0.0185547, 0.338867, -9.76465, 1.19.2022 20:7:9.303
696, 2.22399, 359.858, 179.513, 0, 0, -0.000976562, -0.0205078, 0.376953, -9.68262, 1.19.2022 20:7:9.311
697, 2.22399, 359.858, 179.513, -0.000976562, -0.000976562, -0.00195312, 0.0527344, 0.375977, -9.72656, 1.19.2022 20:7:9.319
698, 2.22399, 359.858, 179.513, -0.000976562, 0, -0.000976562, 0.00585938, 0.392578, -9.72266, 1.19.2022 20:7:9.327
699, 2.22399, 359.858, 179.513, 0, -0.000976562, 0, 0.0107422, 0.375, -9.68066, 1.19.2022 20:7:9.335
700, 2.22399, 359.858, 179.513, -0.000976562, -0.000976562, -0.000976562, 0.0800781, 0.351562, -9.70117, 1.19.2022 20:7:9.343
701, 2.22399, 359.858, 179.513, -0.000976562, 0, -0.000976562, -0.0185547, 0.389648, -9.70801, 1.19.2022 20:7:9.351
702, 2.22399, 359.858, 179.513, 0, 0, -0.00195312, 0.0546875, 0.388672, -9.75195, 1.19.2022 20:7:9.359
703, 2.22399, 359.858, 179.513, -0.000976562, 0, -0.000976562, 0.0361328, 0.378906, -9.74219, 1.19.2022 20:7:9.367
704, 2.22399, 359.858, 179.513, -0.000976562, -0.000976562, 0, 0.000976562, 0.380859, -9.72754, 1.19.2022 20:7:9.375
705, 2.22399, 359.858, 179.513, 0, -0.000976562, -0.000976562, 0.0673828, 0.357422, -9.75293, 1.19.2022 20:7:9.383
706, 2.22399, 359.858, 179.513, -0.000976562, -0.000976562, -0.000976562, -0.0136719, 0.385742, -9.72949, 1.19.2022 20:7:9.391
707, 2.22399, 359.858, 179.513, -0.000976562, 0, -0.000976562, 0.0390625, 0.397461, -9.71875, 1.19.2022 20:7:9.399
708, 2.22399, 359.858, 179.513, -0.000976562, 0, -0.000976562, 0.0654297, 0.37793, -9.70996, 1.19.2022 20:7:9.407
709, 2.22399, 359.858, 179.513, -0.000976562, 0, -0.000976562, -0.0185547, 0.387695, -9.71094, 1.19.2022 20:7:9.415
710, 2.22399, 359.858, 179.513, -0.000976562, -0.000976562, -0.000976562, 0.0771484, 0.373047, -9.70117, 1.19.2022 20:7:9.423
711, 2.22399, 359.858, 179.513, -0.000976562, -0.000976562, -0.000976562, 0.0195312, 0.396484, -9.75879, 1.19.2022 20:7:9.431
712, 2.22399, 359.858, 179.513, 0, 0, 0, 0.0351562, 0.410156, -9.65918, 1.19.2022 20:7:9.439
713, 2.22396, 359.851, 179.513, -0.000976562, -0.000976562, 0, 0.0761719, 0.345703, -9.74609, 1.19.2022 20:7:9.447
714, 2.22396, 359.851, 179.513, -0.000976562, -0.000976562, -0.000976562, -0.0117188, 0.388672, -9.72754, 1.19.2022 20:7:9.455
715, 2.22396, 359.851, 179.513, -0.000976562, -0.000976562, -0.000976562, 0.0273438, 0.40918, -9.72754, 1.19.2022 20:7:9.463
716, 2.23095, 359.851, 179.513, -0.000976562, 0, -0.000976562, 0.0625, 0.385742, -9.7168, 1.19.2022 20:7:9.471
717, 2.23095, 359.851, 179.513, -0.000976562, 0, -0.000976562, -0.0107422, 0.390625, -9.71777, 1.19.2022 20:7:9.479
718, 2.23095, 359.851, 179.513, 0, -0.00195312, -0.000976562, 0.0507812, 0.364258, -9.74121, 1.19.2022 20:7:9.487
719, 2.23095, 359.851, 179.513, -0.000976562, -0.00195312, -0.000976562, 0.00488281, 0.352539, -9.74512, 1.19.2022 20:7:9.495
720, 2.23095, 359.851, 179.513, -0.000976562, -0.000976562, -0.000976562, 0.015625, 0.399414, -9.70605, 1.19.2022 20:7:9.503
721, 2.23092, 359.844, 179.513, 0, -0.000976562, 0, 0.0673828, 0.371094, -9.70801, 1.19.2022 20:7:9.511
722, 2.23092, 359.844, 179.513, -0.000976562, -0.000976562, -0.000976562, -0.000976562, 0.401367, -9.70312, 1.19.2022 20:7:9.519
723, 2.23092, 359.844, 179.513, 0, 0, -0.000976562, 0.0322266, 0.394531, -9.71387, 1.19.2022 20:7:9.527
724, 2.23092, 359.844, 179.513, 0, -0.000976562, -0.00195312, 0.03125, 0.383789, -9.7373, 1.19.2022 20:7:9.535
725, 2.23791, 359.844, 179.513, 0, 0, -0.000976562, -0.0205078, 0.397461, -9.70801, 1.19.2022 20:7:9.543
726, 2.23791, 359.844, 179.513, -0.000976562, 0, -0.000976562, 0.0722656, 0.370117, -9.69336, 1.19.2022 20:7:9.551
727, 2.23791, 359.844, 179.513, -0.000976562, -0.00195312, -0.00195312, -0.0107422, 0.380859, -9.72266, 1.19.2022 20:7:9.559
728, 2.23791, 359.844, 179.513, -0.00195312, -0.00195312, -0.00195312, 0.0078125, 0.395508, -9.72949, 1.19.2022 20:7:9.567
729, 2.23791, 359.844, 179.513, -0.000976562, -0.000976562, -0.000976562, 0.0576172, 0.395508, -9.7334, 1.19.2022 20:7:9.575
730, 2.23791, 359.844, 179.513, 0, 0, -0.000976562, -0.0253906, 0.378906, -9.73926, 1.19.2022 20:7:9.583
731, 2.2449, 359.844, 179.513, 0.000976562, -0.000976562, 0, 0.0634766, 0.371094, -9.78809, 1.19.2022 20:7:9.591
732, 2.2449, 359.844, 179.513, 0, 0, 0.000976562, 0.0390625, 0.375977, -9.71875, 1.19.2022 20:7:9.599
733, 2.2449, 359.844, 179.513, 0, -0.000976562, -0.000976562, -0.00585938, 0.394531, -9.6875, 1.19.2022 20:7:9.607
734, 2.2449, 359.844, 179.513, 0, -0.000976562, -0.000976562, 0.0693359, 0.361328, -9.72656, 1.19.2022 20:7:9.615
735, 2.2449, 359.844, 179.513, -0.00195312, -0.000976562, -0.00195312, -0.0136719, 0.40625, -9.70117, 1.19.2022 20:7:9.623
736, 2.2449, 359.844, 179.513, 0, -0.000976562, -0.000976562, 0.0126953, 0.402344, -9.71582, 1.19.2022 20:7:9.631
737, 2.2449, 359.844, 179.513, 0, -0.000976562, -0.000976562, 0.0566406, 0.370117, -9.67676, 1.19.2022 20:7:9.639
738, 2.2449, 359.844, 179.513, 0, 0, -0.000976562, -0.0146484, 0.393555, -9.66797, 1.19.2022 20:7:9.647
739, 2.2449, 359.844, 179.513, -0.000976562, 0, 0.000976562, 0.105469, 0.375977, -9.72949, 1.19.2022 20:7:9.655
740, 2.2449, 359.844, 179.513, -0.000976562, -0.000976562, 0.000976562, 0.0361328, 0.354492, -9.72949, 1.19.2022 20:7:9.663
741, 2.25188, 359.844, 179.513, -0.00195312, -0.000976562, -0.000976562, -0.0166016, 0.385742, -9.73926, 1.19.2022 20:7:9.669
742, 2.25188, 359.844, 179.513, -0.000976562, 0, -0.000976562, 0.0673828, 0.364258, -9.72949, 1.19.2022 20:7:9.677
743, 2.25188, 359.844, 179.513, 0, 0, -0.000976562, -0.015625, 0.388672, -9.72754, 1.19.2022 20:7:9.685
744, 2.25188, 359.844, 179.513, 0, -0.000976562, -0.000976562, 0.0380859, 0.381836, -9.74707, 1.19.2022 20:7:9.693
745, 2.25188, 359.844, 179.513, 0, -0.000976562, -0.000976562, 0.0458984, 0.369141, -9.74316, 1.19.2022 20:7:9.701
746, 2.25188, 359.844, 179.513, -0.000976562, -0.000976562, 0.000976562, 0.00585938, 0.394531, -9.70898, 1.19.2022 20:7:9.709
747, 2.25188, 359.844, 179.513, -0.000976562, -0.000976562, 0.000976562, 0.0605469, 0.369141, -9.72949, 1.19.2022 20:7:9.717
748, 2.25188, 359.844, 179.513, -0.000976562, -0.000976562, -0.000976562, 0.0224609, 0.362305, -9.73145, 1.19.2022 20:7:9.725
749, 2.25188, 359.844, 179.513, -0.000976562, 0, -0.000976562, 0.0302734, 0.384766, -9.68555, 1.19.2022 20:7:9.733
750, 2.25188, 359.844, 179.513, -0.000976562, 0, -0.000976562, 0.0800781, 0.355469, -9.68262, 1.19.2022 20:7:9.741
751, 2.25185, 359.837, 179.514, -0.000976562, 0, -0.000976562, -0.0273438, 0.404297, -9.69141, 1.19.2022 20:7:9.749
752, 2.25185, 359.837, 179.514, -0.000976562, -0.00195312, -0.000976562, 0.0507812, 0.371094, -9.7334, 1.19.2022 20:7:9.757
753, 2.25185, 359.837, 179.514, -0.000976562, -0.000976562, 0.00195312, 0.0595703, 0.390625, -9.74023, 1.19.2022 20:7:9.765
754, 2.25185, 359.837, 179.514, -0.000976562, 0, -0.000976562, -0.000976562, 0.401367, -9.68945, 1.19.2022 20:7:9.773
755, 2.25185, 359.837, 179.514, -0.000976562, -0.000976562, -0.000976562, 0.0488281, 0.369141, -9.72168, 1.19.2022 20:7:9.781
756, 2.25185, 359.837, 179.514, -0.000976562, 0, 0.000976562, -0.000976562, 0.368164, -9.70215, 1.19.2022 20:7:9.789
757, 2.25185, 359.837, 179.514, -0.000976562, -0.000976562, 0, 0.0214844, 0.395508, -9.73438, 1.19.2022 20:7:9.797
758, 2.25185, 359.837, 179.514, 0.000976562, -0.00195312, 0, 0.0625, 0.392578, -9.72852, 1.19.2022 20:7:9.805
759, 2.25185, 359.837, 179.514, 0, -0.000976562, -0.00195312, -0.0488281, 0.392578, -9.7168, 1.19.2022 20:7:9.813
760, 2.25185, 359.837, 179.514, 0, -0.000976562, -0.00195312, 0.0371094, 0.401367, -9.70605, 1.19.2022 20:7:9.821
761, 2.25185, 359.837, 179.514, -0.00195312, 0, -0.000976562, 0.0410156, 0.355469, -9.74609, 1.19.2022 20:7:9.829
762, 2.25185, 359.837, 179.514, -0.000976562, -0.000976562, 0, -0.00195312, 0.381836, -9.75098, 1.19.2022 20:7:9.837
763, 2.25185, 359.837, 179.514, 0, 0, 0.000976562, 0.0761719, 0.350586, -9.74609, 1.19.2022 20:7:9.845
764, 2.25185, 359.837, 179.514, -0.000976562, -0.000976562, -0.000976562, -0.00683594, 0.386719, -9.75098, 1.19.2022 20:7:9.853
765, 2.25185, 359.837, 179.514, -0.000976562, -0.000976562, -0.000976562, 0.0146484, 0.378906, -9.74023, 1.19.2022 20:7:9.861
766, 2.25185, 359.837, 179.514, 0, 0, -0.000976562, 0.0761719, 0.357422, -9.74609, 1.19.2022 20:7:9.869
767, 2.25185, 359.837, 179.514, 0, -0.000976562, -0.000976562, -0.015625, 0.392578, -9.72461, 1.19.2022 20:7:9.877
768, 2.25185, 359.837, 179.514, 0, -0.000976562, -0.000976562, 0.0341797, 0.379883, -9.70215, 1.19.2022 20:7:9.885
769, 2.25185, 359.837, 179.514, -0.000976562, 0, -0.000976562, 0.00585938, 0.379883, -9.69434, 1.19.2022 20:7:9.893
770, 2.25185, 359.837, 179.514, 0, -0.000976562, 0, -0.00878906, 0.395508, -9.71582, 1.19.2022 20:7:9.901
771, 2.25185, 359.837, 179.514, -0.000976562, -0.000976562, -0.000976562, 0.0527344, 0.352539, -9.74609, 1.19.2022 20:7:9.909
772, 2.25185, 359.837, 179.514, -0.000976562, 0, 0.000976562, -0.00195312, 0.383789, -9.75098, 1.19.2022 20:7:9.917
773, 2.25185, 359.837, 179.514, -0.000976562, -0.00195312, 0, 0.0322266, 0.396484, -9.69043, 1.19.2022 20:7:9.925
774, 2.25185, 359.837, 179.514, -0.000976562, -0.000976562, 0, 0.0341797, 0.369141, -9.72852, 1.19.2022 20:7:9.933
775, 2.25185, 359.837, 179.514, 0, 0, 0.000976562, 0.00292969, 0.407227, -9.73633, 1.19.2022 20:7:9.941
776, 2.25184, 359.836, 179.507, 0, 0, -0.000976562, 0.0644531, 0.369141, -9.73828, 1.19.2022 20:7:9.949
777, 2.24485, 359.836, 179.507, -0.000976562, -0.000976562, 0, 0.03125, 0.354492, -9.7334, 1.19.2022 20:7:9.957
778, 2.24485, 359.836, 179.507, 0, -0.000976562, 0, 0.0205078, 0.391602, -9.69727, 1.19.2022 20:7:9.965
779, 2.24485, 359.836, 179.507, 0, -0.000976562, 0, 0.0527344, 0.34082, -9.74609, 1.19.2022 20:7:9.973
780, 2.24485, 359.836, 179.507, 0, -0.000976562, -0.000976562, -0.0273438, 0.380859, -9.71582, 1.19.2022 20:7:9.981
781, 2.24489, 359.843, 179.506, -0.000976562, -0.00195312, -0.000976562, 0.0273438, 0.394531, -9.69434, 1.19.2022 20:7:9.989
782, 2.24489, 359.843, 179.506, -0.000976562, -0.000976562, -0.000976562, 0.00878906, 0.358398, -9.69043, 1.19.2022 20:7:9.997
783, 2.24489, 359.843, 179.506, -0.000976562, 0, -0.000976562, -0.0283203, 0.367188, -9.74219, 1.19.2022 20:7:10.005
784, 2.24489, 359.843, 179.506, -0.000976562, 0, -0.000976562, 0.0556641, 0.374023, -9.74023, 1.19.2022 20:7:10.013
785, 2.24489, 359.843, 179.506, -0.000976562, 0, -0.000976562, -0.00195312, 0.371094, -9.71387, 1.19.2022 20:7:10.021
786, 2.24489, 359.843, 179.506, -0.000976562, 0.000976562, 0, 0.0244141, 0.400391, -9.73926, 1.19.2022 20:7:10.029
787, 2.24489, 359.843, 179.506, 0, 0, -0.000976562, 0.0507812, 0.368164, -9.70508, 1.19.2022 20:7:10.037
788, 2.24489, 359.843, 179.506, -0.000976562, -0.000976562, -0.000976562, -0.0117188, 0.378906, -9.72266, 1.19.2022 20:7:10.045
789, 2.24489, 359.843, 179.506, -0.00195312, -0.000976562, -0.000976562, 0.0341797, 0.387695, -9.70703, 1.19.2022 20:7:10.053
790, 2.24489, 359.843, 179.506, -0.000976562, 0, -0.000976562, 0.0361328, 0.347656, -9.73438, 1.19.2022 20:7:10.061
791, 2.23791, 359.844, 179.513, -0.000976562, 0, -0.000976562, 0.0146484, 0.397461, -9.73242, 1.19.2022 20:7:10.069
792, 2.23794, 359.851, 179.513, -0.000976562, 0, 0, 0.09375, 0.365234, -9.69434, 1.19.2022 20:7:10.077
793, 2.23793, 359.85, 179.506, -0.000976562, 0, 0, 0.000976562, 0.392578, -9.70898, 1.19.2022 20:7:10.085
794, 2.23793, 359.85, 179.506, -0.000976562, 0, -0.000976562, 0.0322266, 0.394531, -9.70215, 1.19.2022 20:7:10.093
795, 2.2379, 359.843, 179.506, 0, 0, -0.000976562, 0.0361328, 0.337891, -9.73926, 1.19.2022 20:7:10.101
796, 2.23791, 359.844, 179.513, 0, -0.000976562, -0.000976562, -0.0283203, 0.383789, -9.74609, 1.19.2022 20:7:10.109
797, 2.23793, 359.85, 179.506, 0, -0.00195312, 0, 0.0458984, 0.362305, -9.73145, 1.19.2022 20:7:10.117
798, 2.23793, 359.85, 179.506, 0.000976562, -0.00195312, -0.000976562, 0.0341797, 0.344727, -9.72266, 1.19.2022 20:7:10.125
799, 2.23794, 359.851, 179.513, -0.000976562, 0, -0.000976562, -0.0078125, 0.381836, -9.67285, 1.19.2022 20:7:10.133
800, 2.23794, 359.851, 179.513, -0.000976562, -0.000976562, -0.000976562, 0.0712891, 0.370117, -9.7627, 1.19.2022 20:7:10.141
801, 2.23095, 359.851, 179.513, -0.000976562, -0.000976562, -0.000976562, -0.0419922, 0.380859, -9.72949, 1.19.2022 20:7:10.149
802, 2.23095, 359.851, 179.513, -0.000976562, 0, -0.000976562, 0.0253906, 0.375, -9.68848, 1.19.2022 20:7:10.157
803, 2.23095, 359.851, 179.513, 0, 0, -0.000976562, 0.0458984, 0.357422, -9.72949, 1.19.2022 20:7:10.165
804, 2.23095, 359.851, 179.513, -0.000976562, -0.000976562, -0.000976562, -0.0224609, 0.394531, -9.69629, 1.19.2022 20:7:10.173
805, 2.23095, 359.851, 179.513, -0.000976562, -0.000976562, -0.000976562, 0.0703125, 0.341797, -9.71094, 1.19.2022 20:7:10.182
806, 2.23095, 359.851, 179.513, 0, -0.000976562, -0.000976562, -0.00390625, 0.379883, -9.69922, 1.19.2022 20:7:10.193
807, 2.23095, 359.851, 179.513, 0, -0.00195312, 0, 0.00390625, 0.386719, -9.67285, 1.19.2022 20:7:10.197
808, 2.22396, 359.851, 179.513, -0.000976562, -0.000976562, -0.000976562, 0.108398, 0.364258, -9.72266, 1.19.2022 20:7:10.205
809, 2.22396, 359.851, 179.513, -0.000976562, -0.000976562, 0, -0.00683594, 0.396484, -9.74805, 1.19.2022 20:7:10.213
810, 2.22396, 359.851, 179.513, -0.000976562, 0, 0, 0.0507812, 0.392578, -9.72363, 1.19.2022 20:7:10.221
811, 2.22396, 359.851, 179.513, -0.000976562, 0, -0.000976562, 0.00585938, 0.366211, -9.72363, 1.19.2022 20:7:10.229
812, 2.22396, 359.851, 179.513, 0, 0.000976562, -0.000976562, -0.00878906, 0.395508, -9.73438, 1.19.2022 20:7:10.237
813, 2.22396, 359.851, 179.513, 0.000976562, -0.000976562, -0.000976562, 0.0839844, 0.364258, -9.72949, 1.19.2022 20:7:10.245
814, 2.22396, 359.851, 179.513, 0, -0.000976562, -0.000976562, 0.0205078, 0.366211, -9.69824, 1.19.2022 20:7:10.253
815, 2.22396, 359.851, 179.513, -0.000976562, -0.000976562, -0.000976562, 0.0273438, 0.389648, -9.70215, 1.19.2022 20:7:10.261
816, 2.22396, 359.851, 179.513, -0.000976562, 0, -0.000976562, 0.0390625, 0.358398, -9.68848, 1.19.2022 20:7:10.269
817, 2.22396, 359.851, 179.513, 0, -0.00195312, 0, -0.00390625, 0.395508, -9.73633, 1.19.2022 20:7:10.277
818, 2.22396, 359.851, 179.513, 0, -0.000976562, -0.000976562, 0.0625, 0.362305, -9.73438, 1.19.2022 20:7:10.285
819, 2.22396, 359.851, 179.513, 0, -0.00195312, -0.000976562, 0.0488281, 0.356445, -9.70801, 1.19.2022 20:7:10.293
820, 2.21697, 359.851, 179.513, 0.000976562, -0.000976562, -0.000976562, -0.00390625, 0.378906, -9.72559, 1.19.2022 20:7:10.301
821, 2.21697, 359.851, 179.513, 0, 0, -0.000976562, 0.0839844, 0.373047, -9.70801, 1.19.2022 20:7:10.309
822, 2.21697, 359.851, 179.513, 0, -0.000976562, 0, -0.00878906, 0.394531, -9.71094, 1.19.2022 20:7:10.317
823, 2.21697, 359.851, 179.513, -0.000976562, 0, -0.000976562, 0.0234375, 0.40625, -9.67773, 1.19.2022 20:7:10.325
824, 2.21697, 359.851, 179.513, 0, 0, -0.000976562, 0.0654297, 0.349609, -9.72266, 1.19.2022 20:7:10.333
825, 2.21694, 359.844, 179.513, 0, -0.000976562, -0.000976562, -0.0205078, 0.390625, -9.73438, 1.19.2022 20:7:10.341
826, 2.21694, 359.844, 179.513, -0.00195312, 0, 0, 0.0576172, 0.376953, -9.75684, 1.19.2022 20:7:10.349
827, 2.21694, 359.844, 179.513, -0.000976562, -0.000976562, 0, 0.0078125, 0.373047, -9.71191, 1.19.2022 20:7:10.357
828, 2.21694, 359.844, 179.513, 0, -0.000976562, -0.000976562, -0.0439453, 0.383789, -9.66602, 1.19.2022 20:7:10.365
829, 2.21694, 359.844, 179.513, 0, 0, 0, 0.0585938, 0.351562, -9.69629, 1.19.2022 20:7:10.373
830, 2.21694, 359.844, 179.513, 0, 0, -0.000976562, -0.0302734, 0.380859, -9.71582, 1.19.2022 20:7:10.381
831, 2.21694, 359.844, 179.513, -0.000976562, -0.000976562, -0.000976562, 0.0322266, 0.392578, -9.71582, 1.19.2022 20:7:10.389
832, 2.21694, 359.844, 179.513, -0.000976562, -0.000976562, -0.000976562, 0.0410156, 0.375977, -9.71875, 1.19.2022 20:7:10.397
833, 2.21694, 359.844, 179.513, -0.000976562, 0, -0.000976562, -0.0205078, 0.387695, -9.69434, 1.19.2022 20:7:10.405
834, 2.21694, 359.844, 179.513, 0, -0.00195312, -0.000976562, 0.0673828, 0.373047, -9.71289, 1.19.2022 20:7:10.413
835, 2.21694, 359.844, 179.513, 0, -0.000976562, -0.000976562, 0.0244141, 0.354492, -9.70996, 1.19.2022 20:7:10.421
836, 2.21697, 359.851, 179.513, -0.000976562, -0.000976562, 0, 0.00292969, 0.383789, -9.73047, 1.19.2022 20:7:10.429
837, 2.22396, 359.851, 179.513, -0.000976562, -0.000976562, 0, 0.0654297, 0.353516, -9.70312, 1.19.2022 20:7:10.437
838, 2.22396, 359.851, 179.513, -0.000976562, 0, 0, -0.0175781, 0.389648, -9.69922, 1.19.2022 20:7:10.445
839, 2.22396, 359.851, 179.513, 0, -0.000976562, -0.000976562, 0.0507812, 0.358398, -9.70117, 1.19.2022 20:7:10.453
840, 2.22395, 359.851, 179.506, 0, -0.000976562, 0, 0.0205078, 0.353516, -9.7002, 1.19.2022 20:7:10.461
841, 2.21696, 359.851, 179.506, -0.000976562, -0.000976562, -0.000976562, 0.00195312, 0.393555, -9.65234, 1.19.2022 20:7:10.469
842, 2.21696, 359.851, 179.506, -0.000976562, 0, -0.000976562, 0.0605469, 0.353516, -9.68945, 1.19.2022 20:7:10.477
843, 2.21696, 359.851, 179.506, 0, 0, -0.000976562, -0.0136719, 0.362305, -9.72852, 1.19.2022 20:7:10.485
844, 2.21697, 359.851, 179.513, 0, 0, -0.000976562, -0.0117188, 0.407227, -9.73633, 1.19.2022 20:7:10.493
845, 2.21697, 359.851, 179.513, -0.000976562, -0.000976562, -0.000976562, 0.046875, 0.376953, -9.68164, 1.19.2022 20:7:10.501
846, 2.21697, 359.851, 179.513, 0, -0.000976562, -0.000976562, -0.0458984, 0.391602, -9.68457, 1.19.2022 20:7:10.509
847, 2.21697, 359.851, 179.513, -0.000976562, 0, 0, 0.0410156, 0.371094, -9.71484, 1.19.2022 20:7:10.517
848, 2.21697, 359.851, 179.513, -0.000976562, -0.000976562, -0.000976562, 0.0507812, 0.371094, -9.71973, 1.19.2022 20:7:10.525
849, 2.217, 359.858, 179.513, -0.000976562, -0.000976562, -0.000976562, 0.0078125, 0.378906, -9.74414, 1.19.2022 20:7:10.533
850, 2.217, 359.858, 179.513, -0.000976562, -0.000976562, 0, 0.0654297, 0.366211, -9.71484, 1.19.2022 20:7:10.541
851, 2.217, 359.858, 179.513, 0, -0.000976562, -0.000976562, -0.0224609, 0.415039, -9.66992, 1.19.2022 20:7:10.549
852, 2.217, 359.858, 179.513, -0.000976562, -0.000976562, -0.000976562, 0.0224609, 0.366211, -9.7002, 1.19.2022 20:7:10.557
853, 2.217, 359.858, 179.513, -0.000976562, -0.000976562, 0, 0.0537109, 0.365234, -9.69336, 1.19.2022 20:7:10.565
854, 2.22398, 359.858, 179.506, -0.000976562, 0, -0.000976562, -0.00585938, 0.398438, -9.67969, 1.19.2022 20:7:10.573
855, 2.22399, 359.858, 179.513, 0, 0, -0.000976562, 0.0800781, 0.375, -9.68945, 1.19.2022 20:7:10.581
856, 2.22398, 359.858, 179.506, 0, -0.00195312, 0, 0.0126953, 0.363281, -9.70703, 1.19.2022 20:7:10.589
857, 2.22398, 359.858, 179.506, -0.000976562, -0.000976562, -0.000976562, -0.00390625, 0.382812, -9.71094, 1.19.2022 20:7:10.597
858, 2.22399, 359.858, 179.513, -0.000976562, -0.000976562, -0.000976562, 0.0390625, 0.367188, -9.7334, 1.19.2022 20:7:10.605
859, 2.22399, 359.858, 179.513, -0.000976562, -0.000976562, -0.000976562, -0.0292969, 0.386719, -9.69141, 1.19.2022 20:7:10.613
860, 2.22402, 359.865, 179.513, 0, -0.000976562, 0, 0.0410156, 0.379883, -9.70703, 1.19.2022 20:7:10.621
861, 2.22401, 359.865, 179.506, -0.000976562, 0, -0.000976562, 0.0537109, 0.384766, -9.70996, 1.19.2022 20:7:10.627
862, 2.22402, 359.865, 179.513, -0.000976562, -0.000976562, -0.000976562, -0.00390625, 0.390625, -9.72949, 1.19.2022 20:7:10.635
863, 2.22401, 359.865, 179.506, -0.000976562, 0, 0, 0.0703125, 0.37793, -9.71484, 1.19.2022 20:7:10.643
864, 2.22401, 359.865, 179.506, -0.000976562, -0.000976562, 0, 0.0263672, 0.388672, -9.73047, 1.19.2022 20:7:10.651
865, 2.22401, 359.865, 179.506, -0.000976562, -0.000976562, -0.000976562, -0.00488281, 0.37207, -9.74707, 1.19.2022 20:7:10.659
866, 2.231, 359.864, 179.506, -0.000976562, 0, -0.00195312, 0.0722656, 0.345703, -9.7373, 1.19.2022 20:7:10.667
867, 2.23098, 359.858, 179.513, -0.000976562, 0, -0.000976562, -0.0185547, 0.378906, -9.72559, 1.19.2022 20:7:10.675
868, 2.23098, 359.858, 179.513, -0.000976562, -0.000976562, -0.000976562, 0.0390625, 0.366211, -9.7002, 1.19.2022 20:7:10.683
869, 2.23098, 359.858, 179.513, -0.000976562, 0, -0.000976562, 0.0605469, 0.373047, -9.71973, 1.19.2022 20:7:10.691
870, 2.23098, 359.858, 179.513, -0.000976562, -0.000976562, -0.00195312, -0.0205078, 0.387695, -9.70801, 1.19.2022 20:7:10.699
871, 2.23098, 359.858, 179.513, -0.000976562, 0, -0.000976562, 0.0703125, 0.369141, -9.66992, 1.19.2022 20:7:10.707
872, 2.23098, 359.858, 179.513, -0.000976562, 0, -0.000976562, -0.0302734, 0.361328, -9.70898, 1.19.2022 20:7:10.715
873, 2.23098, 359.858, 179.513, -0.00195312, -0.000976562, -0.000976562, 0.0390625, 0.396484, -9.70215, 1.19.2022 20:7:10.723
874, 2.23098, 359.858, 179.513, -0.000976562, -0.000976562, -0.000976562, 0.0654297, 0.381836, -9.69336, 1.19.2022 20:7:10.731
875, 2.23098, 359.858, 179.513, 0, -0.000976562, 0, -0.0185547, 0.362305, -9.7373, 1.19.2022 20:7:10.739
876, 2.23098, 359.858, 179.513, -0.000976562, 0, -0.000976562, 0.09375, 0.37793, -9.71289, 1.19.2022 20:7:10.747
877, 2.23098, 359.858, 179.513, -0.000976562, -0.000976562, -0.000976562, 0.0458984, 0.376953, -9.74707, 1.19.2022 20:7:10.755
878, 2.23098, 359.858, 179.513, -0.000976562, -0.000976562, -0.000976562, 0.00488281, 0.393555, -9.75391, 1.19.2022 20:7:10.763
879, 2.23095, 359.851, 179.513, -0.00195312, -0.000976562, -0.000976562, 0.0751953, 0.368164, -9.70801, 1.19.2022 20:7:10.771
880, 2.23095, 359.851, 179.513, -0.00195312, 0, -0.000976562, -0.00878906, 0.378906, -9.73047, 1.19.2022 20:7:10.779
881, 2.23095, 359.851, 179.513, 0, -0.000976562, -0.000976562, 0.0351562, 0.370117, -9.68652, 1.19.2022 20:7:10.787
882, 2.23095, 359.851, 179.513, 0, -0.000976562, -0.000976562, 0.0527344, 0.367188, -9.73828, 1.19.2022 20:7:10.795
883, 2.23095, 359.851, 179.513, -0.000976562, -0.000976562, -0.000976562, -0.0253906, 0.393555, -9.72949, 1.19.2022 20:7:10.803
884, 2.23095, 359.851, 179.513, -0.00195312, -0.000976562, -0.000976562, 0.0722656, 0.382812, -9.70996, 1.19.2022 20:7:10.811
885, 2.23092, 359.844, 179.513, -0.000976562, -0.000976562, -0.000976562, 0.0292969, 0.364258, -9.73535, 1.19.2022 20:7:10.819
886, 2.23092, 359.844, 179.513, -0.000976562, 0, -0.000976562, 0.000976562, 0.411133, -9.70801, 1.19.2022 20:7:10.827
887, 2.23092, 359.844, 179.513, -0.00195312, -0.000976562, 0, 0.0722656, 0.362305, -9.74121, 1.19.2022 20:7:10.835
888, 2.23092, 359.844, 179.513, -0.000976562, -0.000976562, 0, -0.0234375, 0.387695, -9.71973, 1.19.2022 20:7:10.843
889, 2.23092, 359.844, 179.513, -0.000976562, 0, -0.000976562, 0.0439453, 0.381836, -9.68555, 1.19.2022 20:7:10.851
890, 2.23092, 359.844, 179.513, -0.000976562, 0, 0, 0.0341797, 0.34668, -9.69824, 1.19.2022 20:7:10.859
891, 2.23092, 359.844, 179.513, -0.000976562, -0.000976562, 0, -0.000976562, 0.375, -9.69238, 1.19.2022 20:7:10.867
892, 2.23089, 359.837, 179.514, -0.00195312, -0.000976562, -0.000976562, 0.0791016, 0.380859, -9.7168, 1.19.2022 20:7:10.875
893, 2.23089, 359.837, 179.514, -0.000976562, 0, -0.000976562, 0.00585938, 0.402344, -9.70605, 1.19.2022 20:7:10.883
894, 2.23089, 359.837, 179.514, -0.000976562, -0.000976562, -0.000976562, 0.0224609, 0.378906, -9.72852, 1.19.2022 20:7:10.891
895, 2.23089, 359.837, 179.514, -0.000976562, -0.000976562, -0.000976562, 0.0507812, 0.354492, -9.71484, 1.19.2022 20:7:10.899
896, 2.23089, 359.837, 179.514, 0, -0.000976562, -0.000976562, -0.0117188, 0.390625, -9.72949, 1.19.2022 20:7:10.907
897, 2.23089, 359.837, 179.514, -0.000976562, -0.000976562, -0.000976562, 0.0244141, 0.345703, -9.7334, 1.19.2022 20:7:10.915
898, 2.23089, 359.837, 179.514, -0.000976562, -0.000976562, -0.000976562, 0.0410156, 0.338867, -9.75586, 1.19.2022 20:7:10.923
899, 2.23089, 359.837, 179.514, -0.000976562, -0.000976562, -0.000976562, -0.0205078, 0.397461, -9.70996, 1.19.2022 20:7:10.931
900, 2.23089, 359.837, 179.514, -0.00195312, -0.000976562, -0.000976562, 0.0537109, 0.356445, -9.71484, 1.19.2022 20:7:10.939
901, 2.23089, 359.837, 179.514, -0.000976562, -0.000976562, -0.000976562, -0.015625, 0.373047, -9.71582, 1.19.2022 20:7:10.947
902, 2.23089, 359.837, 179.514, -0.000976562, -0.000976562, -0.000976562, 0.00585938, 0.389648, -9.68555, 1.19.2022 20:7:10.955
903, 2.23089, 359.837, 179.514, 0, -0.000976562, 0, 0.0488281, 0.375, -9.69824, 1.19.2022 20:7:10.963
904, 2.23089, 359.837, 179.514, -0.000976562, 0, -0.000976562, -0.00195312, 0.375977, -9.71094, 1.19.2022 20:7:10.971
905, 2.23089, 359.837, 179.514, -0.000976562, -0.000976562, -0.000976562, 0.0625, 0.34668, -9.70801, 1.19.2022 20:7:10.979
906, 2.23089, 359.837, 179.514, 0, -0.000976562, 0, 0.0195312, 0.371094, -9.72168, 1.19.2022 20:7:10.987
907, 2.22389, 359.837, 179.507, 0, 0, 0.000976562, -0.0107422, 0.355469, -9.67188, 1.19.2022 20:7:10.995
908, 2.22389, 359.837, 179.507, 0, 0, 0, 0.0566406, 0.34082, -9.66406, 1.19.2022 20:7:11.003
909, 2.22392, 359.844, 179.506, 0, -0.00195312, -0.000976562, -0.0556641, 0.384766, -9.68164, 1.19.2022 20:7:11.011
910, 2.22392, 359.844, 179.506, 0.00195312, -0.000976562, -0.000976562, 0.0371094, 0.37793, -9.7002, 1.19.2022 20:7:11.019
911, 2.21693, 359.844, 179.506, 0, 0, -0.00195312, 0.0175781, 0.373047, -9.69238, 1.19.2022 20:7:11.027
912, 2.21693, 359.844, 179.506, 0, -0.000976562, -0.000976562, -0.0322266, 0.418945, -9.70508, 1.19.2022 20:7:11.035
913, 2.21693, 359.844, 179.506, -0.000976562, -0.000976562, 0, 0.0595703, 0.390625, -9.74023, 1.19.2022 20:7:11.043
914, 2.21693, 359.844, 179.506, -0.000976562, -0.000976562, -0.000976562, 0.0195312, 0.371094, -9.72559, 1.19.2022 20:7:11.051
915, 2.21697, 359.851, 179.513, 0, -0.000976562, -0.00195312, -0.00585938, 0.397461, -9.70117, 1.19.2022 20:7:11.059
916, 2.21697, 359.851, 179.513, 0, -0.000976562, -0.00195312, 0.0742188, 0.352539, -9.74414, 1.19.2022 20:7:11.067
917, 2.21697, 359.851, 179.513, 0, -0.000976562, -0.000976562, -0.0136719, 0.361328, -9.72363, 1.19.2022 20:7:11.075
918, 2.21697, 359.851, 179.513, -0.000976562, -0.000976562, -0.000976562, 0.0488281, 0.387695, -9.70215, 1.19.2022 20:7:11.083
919, 2.21697, 359.851, 179.513, -0.000976562, 0, -0.000976562, 0.0507812, 0.375977, -9.72852, 1.19.2022 20:7:11.091
920, 2.21697, 359.851, 179.513, -0.000976562, 0.000976562, -0.000976562, -0.00683594, 0.387695, -9.7207, 1.19.2022 20:7:11.099
921, 2.21697, 359.851, 179.513, 0, 0, -0.000976562, 0.0820312, 0.359375, -9.71582, 1.19.2022 20:7:11.107
922, 2.21697, 359.851, 179.513, 0, 0, -0.000976562, 0.0195312, 0.380859, -9.73047, 1.19.2022 20:7:11.115
923, 2.21697, 359.851, 179.513, 0, 0, -0.00195312, 0.0195312, 0.405273, -9.74609, 1.19.2022 20:7:11.123
924, 2.21697, 359.851, 179.513, 0, 0, -0.00195312, 0.0390625, 0.385742, -9.7334, 1.19.2022 20:7:11.131
925, 2.21697, 359.851, 179.513, -0.000976562, 0, -0.000976562, -0.0117188, 0.379883, -9.75391, 1.19.2022 20:7:11.139
926, 2.21697, 359.851, 179.513, -0.00195312, -0.000976562, -0.000976562, 0.0576172, 0.362305, -9.74121, 1.19.2022 20:7:11.147
927, 2.21697, 359.851, 179.513, -0.000976562, -0.000976562, -0.000976562, 0.0390625, 0.40918, -9.7207, 1.19.2022 20:7:11.155
928, 2.21697, 359.851, 179.513, -0.000976562, 0, -0.000976562, -0.015625, 0.402344, -9.73145, 1.19.2022 20:7:11.163
929, 2.21697, 359.851, 179.513, -0.000976562, -0.000976562, -0.000976562, 0.0839844, 0.356445, -9.72754, 1.19.2022 20:7:11.171
930, 2.21697, 359.851, 179.513, 0, -0.000976562, -0.000976562, 0.0126953, 0.398438, -9.74121, 1.19.2022 20:7:11.179
931, 2.21697, 359.851, 179.513, -0.00195312, -0.000976562, -0.000976562, 0.0224609, 0.394531, -9.71387, 1.19.2022 20:7:11.187
932, 2.21697, 359.851, 179.513, 0, -0.000976562, 0, 0.0644531, 0.342773, -9.7373, 1.19.2022 20:7:11.195
933, 2.22396, 359.851, 179.513, -0.000976562, -0.000976562, -0.000976562, -0.0253906, 0.404297, -9.7168, 1.19.2022 20:7:11.203
934, 2.22396, 359.851, 179.513, -0.00195312, -0.000976562, -0.000976562, 0.0546875, 0.364258, -9.74609, 1.19.2022 20:7:11.211
935, 2.22396, 359.851, 179.513, -0.00195312, -0.000976562, -0.000976562, 0.0292969, 0.359375, -9.72656, 1.19.2022 20:7:11.219
936, 2.22396, 359.851, 179.513, -0.000976562, 0, -0.000976562, 0.0263672, 0.390625, -9.74219, 1.19.2022 20:7:11.227
937, 2.22396, 359.851, 179.513, -0.000976562, -0.000976562, 0, 0.0742188, 0.349609, -9.72949, 1.19.2022 20:7:11.235
938, 2.22393, 359.844, 179.513, -0.000976562, 0, 0.000976562, -0.00683594, 0.362305, -9.74707, 1.19.2022 20:7:11.243
939, 2.22393, 359.844, 179.513, -0.000976562, -0.000976562, 0, 0.03125, 0.375977, -9.72363, 1.19.2022 20:7:11.251
940, 2.22393, 359.844, 179.513, -0.00195312, 0, -0.000976562, 0.0439453, 0.373047, -9.71484, 1.19.2022 20:7:11.259
941, 2.22393, 359.844, 179.513, -0.000976562, 0, 0, -0.00683594, 0.374023, -9.73242, 1.19.2022 20:7:11.267
942, 2.22393, 359.844, 179.513, 0, -0.000976562, 0, 0.0439453, 0.364258, -9.72461, 1.19.2022 20:7:11.275
943, 2.22393, 359.844, 179.513, -0.000976562, -0.000976562, 0, 0.00976562, 0.390625, -9.73438, 1.19.2022 20:7:11.283
944, 2.22393, 359.844, 179.513, -0.00195312, -0.000976562, -0.000976562, -0.00390625, 0.380859, -9.72266, 1.19.2022 20:7:11.291
945, 2.22393, 359.844, 179.513, -0.00195312, -0.000976562, -0.000976562, 0.0576172, 0.359375, -9.73438, 1.19.2022 20:7:11.299
946, 2.22393, 359.844, 179.513, -0.000976562, -0.000976562, -0.000976562, -0.0517578, 0.385742, -9.71777, 1.19.2022 20:7:11.307
947, 2.22393, 359.844, 179.513, -0.000976562, -0.00195312, -0.000976562, 0.0439453, 0.386719, -9.68848, 1.19.2022 20:7:11.315
948, 2.22393, 359.844, 179.513, 0, 0, -0.000976562, 0.0507812, 0.373047, -9.69824, 1.19.2022 20:7:11.323
949, 2.22393, 359.844, 179.513, 0.000976562, 0, -0.000976562, -0.0292969, 0.384766, -9.69141, 1.19.2022 20:7:11.331
950, 2.22393, 359.844, 179.513, -0.000976562, -0.000976562, 0, 0.0683594, 0.34375, -9.69238, 1.19.2022 20:7:11.339
951, 2.22393, 359.844, 179.513, -0.000976562, -0.000976562, -0.000976562, 0.0107422, 0.382812, -9.69434, 1.19.2022 20:7:11.347
952, 2.22393, 359.844, 179.513, -0.000976562, 0, -0.000976562, 0.0361328, 0.382812, -9.71875, 1.19.2022 20:7:11.355
953, 2.22393, 359.844, 179.513, -0.000976562, 0, 0.000976562, 0.0488281, 0.361328, -9.7168, 1.19.2022 20:7:11.363
954, 2.22393, 359.844, 179.513, -0.00195312, 0, 0.000976562, -0.0185547, 0.366211, -9.71875, 1.19.2022 20:7:11.371
955, 2.22393, 359.844, 179.513, -0.000976562, 0, -0.000976562, 0.0322266, 0.333984, -9.69141, 1.19.2022 20:7:11.379
956, 2.22393, 359.844, 179.513, -0.000976562, -0.000976562, -0.000976562, 0.0175781, 0.378906, -9.73047, 1.19.2022 20:7:11.387
957, 2.22393, 359.844, 179.513, -0.000976562, -0.000976562, -0.000976562, 0, 0.383789, -9.74902, 1.19.2022 20:7:11.395
958, 2.22393, 359.844, 179.513, 0, -0.000976562, -0.000976562, 0.09375, 0.351562, -9.72559, 1.19.2022 20:7:11.403
959, 2.22393, 359.844, 179.513, 0, -0.000976562, -0.000976562, -0.00683594, 0.381836, -9.75391, 1.19.2022 20:7:11.411
960, 2.22393, 359.844, 179.513, 0, -0.000976562, -0.000976562, 0.0322266, 0.387695, -9.71582, 1.19.2022 20:7:11.419
961, 2.21694, 359.844, 179.513, 0, -0.000976562, -0.000976562, 0.0507812, 0.371094, -9.70312, 1.19.2022 20:7:11.427
962, 2.21697, 359.851, 179.513, -0.000976562, 0, -0.000976562, -0.0390625, 0.380859, -9.70312, 1.19.2022 20:7:11.435
963, 2.21697, 359.851, 179.513, -0.000976562, -0.000976562, -0.000976562, 0.0654297, 0.354492, -9.71973, 1.19.2022 20:7:11.443
964, 2.21697, 359.851, 179.513, 0, -0.000976562, 0, 0.0175781, 0.34668, -9.71289, 1.19.2022 20:7:11.451
965, 2.21697, 359.851, 179.513, -0.000976562, 0, -0.000976562, -0.0146484, 0.384766, -9.77441, 1.19.2022 20:7:11.459
966, 2.21697, 359.851, 179.513, -0.000976562, 0, -0.000976562, 0.0585938, 0.336914, -9.69238, 1.19.2022 20:7:11.467
967, 2.21697, 359.851, 179.513, -0.000976562, -0.000976562, -0.000976562, -0.0185547, 0.378906, -9.73438, 1.19.2022 20:7:11.475
968, 2.20998, 359.851, 179.513, -0.000976562, -0.000976562, -0.000976562, 0.0244141, 0.392578, -9.7041, 1.19.2022 20:7:11.483
969, 2.20997, 359.851, 179.506, 0, -0.000976562, 0, 0.0556641, 0.369141, -9.72656, 1.19.2022 20:7:11.491
970, 2.20997, 359.851, 179.506, -0.00195312, -0.000976562, 0, -0.0224609, 0.370117, -9.68555, 1.19.2022 20:7:11.499
971, 2.20997, 359.851, 179.506, -0.000976562, -0.000976562, 0, 0.0771484, 0.363281, -9.69629, 1.19.2022 20:7:11.507
972, 2.20997, 359.851, 179.506, 0, -0.000976562, -0.000976562, 0.0224609, 0.356445, -9.70996, 1.19.2022 20:7:11.515
973, 2.20997, 359.851, 179.506, 0, -0.000976562, 0, 0.0322266, 0.368164, -9.71484, 1.19.2022 20:7:11.523
974, 2.20997, 359.851, 179.506, 0, 0, -0.000976562, 0.0693359, 0.365234, -9.7627, 1.19.2022 20:7:11.531
975, 2.20298, 359.851, 179.506, -0.000976562, 0, -0.000976562, -0.0400391, 0.387695, -9.71973, 1.19.2022 20:7:11.539
976, 2.20298, 359.851, 179.506, -0.000976562, 0, -0.000976562, 0.0654297, 0.387695, -9.72852, 1.19.2022 20:7:11.547
977, 2.20298, 359.851, 179.506, 0, -0.000976562, -0.000976562, 0.0371094, 0.368164, -9.70508, 1.19.2022 20:7:11.555
978, 2.20298, 359.851, 179.506, -0.000976562, -0.000976562, -0.000976562, -0.0078125, 0.411133, -9.68945, 1.19.2022 20:7:11.563
979, 2.20298, 359.851, 179.506, 0, -0.00195312, -0.000976562, 0.0605469, 0.391602, -9.7002, 1.19.2022 20:7:11.571
980, 2.20298, 359.851, 179.506, 0, -0.00195312, -0.00195312, 0.0126953, 0.375977, -9.7041, 1.19.2022 20:7:11.579
981, 2.20298, 359.851, 179.506, -0.000976562, -0.00195312, -0.000976562, 0.0283203, 0.405273, -9.75586, 1.19.2022 20:7:11.587
982, 2.20298, 359.851, 179.506, 0, -0.000976562, -0.000976562, 0.0488281, 0.366211, -9.72168, 1.19.2022 20:7:11.595
983, 2.203, 359.851, 179.513, -0.000976562, -0.000976562, -0.000976562, -0.0205078, 0.392578, -9.72461, 1.19.2022 20:7:11.603
984, 2.20298, 359.851, 179.506, -0.000976562, -0.000976562, 0, 0.0556641, 0.365234, -9.69824, 1.19.2022 20:7:11.609
985, 2.20298, 359.851, 179.506, -0.000976562, 0, -0.000976562, 0.0371094, 0.356445, -9.70312, 1.19.2022 20:7:11.617
986, 2.20298, 359.851, 179.506, 0, -0.000976562, 0, -0.00390625, 0.375977, -9.72754, 1.19.2022 20:7:11.625
987, 2.20298, 359.851, 179.506, -0.000976562, -0.000976562, 0, 0.0869141, 0.371094, -9.70605, 1.19.2022 20:7:11.633
988, 2.20997, 359.851, 179.506, -0.000976562, -0.000976562, 0, 0.000976562, 0.384766, -9.70605, 1.19.2022 20:7:11.641
989, 2.20997, 359.851, 179.506, -0.000976562, -0.00195312, 0, 0.0322266, 0.382812, -9.7168, 1.19.2022 20:7:11.649
990, 2.20997, 359.851, 179.506, -0.000976562, -0.000976562, -0.000976562, 0.0507812, 0.356445, -9.71484, 1.19.2022 20:7:11.657
991, 2.20997, 359.851, 179.506, -0.000976562, 0, -0.000976562, -0.00390625, 0.397461, -9.70801, 1.19.2022 20:7:11.665
992, 2.20994, 359.844, 179.506, 0, -0.000976562, -0.000976562, 0.0625, 0.354492, -9.71094, 1.19.2022 20:7:11.673
993, 2.20994, 359.844, 179.506, -0.000976562, -0.00195312, -0.000976562, -0.00195312, 0.368164, -9.70898, 1.19.2022 20:7:11.681
994, 2.20994, 359.844, 179.506, 0, -0.00195312, -0.00195312, 0.0292969, 0.387695, -9.70215, 1.19.2022 20:7:11.689
995, 2.20994, 359.844, 179.506, -0.000976562, 0, -0.000976562, 0.0791016, 0.361328, -9.71289, 1.19.2022 20:7:11.697
996, 2.20994, 359.844, 179.506, 0, 0, -0.000976562, -0.00585938, 0.379883, -9.69922, 1.19.2022 20:7:11.705
997, 2.20995, 359.844, 179.513, 0, 0, -0.00195312, 0.0175781, 0.387695, -9.70215, 1.19.2022 20:7:11.713
998, 2.20995, 359.844, 179.513, -0.000976562, -0.000976562, 0, 0.0390625, 0.364258, -9.72168, 1.19.2022 20:7:11.721
999, 2.20995, 359.844, 179.513, -0.00195312, 0, -0.000976562, -0.00195312, 0.376953, -9.7373, 1.19.2022 20:7:11.729
1000, 2.20995, 359.844, 179.513, -0.000976562, -0.00195312, -0.000976562, 0.0742188, 0.365234, -9.75488, 1.19.2022 20:7:11.737
1001, 2.20995, 359.844, 179.513, -0.000976562, 0, -0.000976562, 0.0283203, 0.375, -9.78223, 1.19.2022 20:7:11.745
1002, 2.20992, 359.837, 179.513, -0.000976562, -0.000976562, -0.000976562, 0.00585938, 0.397461, -9.7207, 1.19.2022 20:7:11.753
1003, 2.21691, 359.837, 179.514, 0, -0.000976562, -0.000976562, 0.0625, 0.374023, -9.74512, 1.19.2022 20:7:11.761
1004, 2.21691, 359.837, 179.514, -0.000976562, -0.000976562, -0.00195312, -0.0488281, 0.402344, -9.70508, 1.19.2022 20:7:11.769
1005, 2.21691, 359.837, 179.514, -0.000976562, -0.000976562, -0.000976562, 0.0224609, 0.381836, -9.67871, 1.19.2022 20:7:11.777
1006, 2.21691, 359.837, 179.514, 0, -0.00195312, -0.000976562, 0.0478516, 0.374023, -9.72656, 1.19.2022 20:7:11.785
1007, 2.21691, 359.837, 179.514, -0.000976562, -0.000976562, -0.000976562, -0.00390625, 0.40332, -9.73926, 1.19.2022 20:7:11.793
1008, 2.21691, 359.837, 179.514, 0, -0.000976562, 0.000976562, 0.0820312, 0.352539, -9.72949, 1.19.2022 20:7:11.801
1009, 2.21691, 359.837, 179.514, 0.000976562, 0.000976562, -0.000976562, -0.015625, 0.386719, -9.68945, 1.19.2022 20:7:11.809
1010, 2.21691, 359.837, 179.514, -0.000976562, -0.00195312, -0.000976562, 0.0166016, 0.395508, -9.74219, 1.19.2022 20:7:11.817
1011, 2.21691, 359.837, 179.514, 0, -0.00195312, -0.000976562, 0.0683594, 0.363281, -9.7793, 1.19.2022 20:7:11.825
1012, 2.21691, 359.837, 179.514, 0, 0.000976562, -0.00195312, -0.0419922, 0.385742, -9.70996, 1.19.2022 20:7:11.833
1013, 2.21691, 359.837, 179.514, 0, -0.000976562, -0.000976562, 0.0537109, 0.387695, -9.7168, 1.19.2022 20:7:11.841
1014, 2.21691, 359.837, 179.514, -0.000976562, -0.000976562, -0.000976562, 0.0537109, 0.389648, -9.70508, 1.19.2022 20:7:11.849
1015, 2.21691, 359.837, 179.514, -0.000976562, -0.000976562, -0.000976562, -0.0224609, 0.37793, -9.69922, 1.19.2022 20:7:11.857
1016, 2.2239, 359.837, 179.514, 0, -0.000976562, 0.000976562, 0.0771484, 0.375, -9.70508, 1.19.2022 20:7:11.865
1017, 2.2239, 359.837, 179.514, 0, -0.000976562, -0.000976562, 0.00585938, 0.379883, -9.69238, 1.19.2022 20:7:11.873
1018, 2.22393, 359.844, 179.513, -0.000976562, -0.000976562, -0.000976562, 0.0292969, 0.374023, -9.72363, 1.19.2022 20:7:11.881
1019, 2.22393, 359.844, 179.513, -0.000976562, -0.000976562, -0.000976562, 0.0556641, 0.383789, -9.73535, 1.19.2022 20:7:11.889
1020, 2.22393, 359.844, 179.513, -0.000976562, 0.000976562, 0.000976562, -0.0283203, 0.390625, -9.73145, 1.19.2022 20:7:11.897
1021, 2.2239, 359.837, 179.514, 0, 0.000976562, -0.000976562, 0.0371094, 0.363281, -9.70996, 1.19.2022 20:7:11.905
1022, 2.2239, 359.837, 179.514, -0.000976562, -0.000976562, -0.000976562, 0.0195312, 0.362305, -9.74023, 1.19.2022 20:7:11.913
1023, 2.2239, 359.837, 179.514, -0.000976562, 0.000976562, -0.000976562, 0.0205078, 0.379883, -9.6875, 1.19.2022 20:7:11.921
1024, 2.2239, 359.837, 179.514, -0.000976562, 0.000976562, -0.000976562, 0.0673828, 0.351562, -9.69629, 1.19.2022 20:7:11.929
1025, 2.23089, 359.837, 179.514, -0.000976562, -0.000976562, -0.000976562, -0.0322266, 0.365234, -9.68555, 1.19.2022 20:7:11.937
1026, 2.23089, 359.837, 179.514, -0.000976562, -0.000976562, -0.000976562, 0.0439453, 0.368164, -9.68848, 1.19.2022 20:7:11.945
1027, 2.23092, 359.844, 179.513, 0, -0.00195312, -0.000976562, 0.0244141, 0.344727, -9.73145, 1.19.2022 20:7:11.953
1028, 2.22393, 359.844, 179.513, 0, -0.000976562, -0.000976562, -0.0136719, 0.380859, -9.71094, 1.19.2022 20:7:11.961
1029, 2.22393, 359.844, 179.513, -0.000976562, -0.000976562, -0.000976562, 0.0527344, 0.347656, -9.75098, 1.19.2022 20:7:11.969
1030, 2.22393, 359.844, 179.513, -0.000976562, -0.000976562, -0.000976562, -0.00878906, 0.362305, -9.73242, 1.19.2022 20:7:11.977
1031, 2.22393, 359.844, 179.513, -0.00195312, -0.000976562, -0.000976562, 0.0361328, 0.388672, -9.73047, 1.19.2022 20:7:11.985
1032, 2.22393, 359.844, 179.513, -0.000976562, -0.000976562, -0.000976562, 0.0957031, 0.331055, -9.73047, 1.19.2022 20:7:11.993
1033, 2.22393, 359.844, 179.513, -0.000976562, -0.000976562, 0.000976562, -0.00683594, 0.364258, -9.71875, 1.19.2022 20:7:12.001
1034, 2.22393, 359.844, 179.513, 0, -0.000976562, -0.000976562, 0.0644531, 0.388672, -9.75195, 1.19.2022 20:7:12.009
1035, 2.22393, 359.844, 179.513, 0, 0.000976562, -0.000976562, 0.0195312, 0.383789, -9.72559, 1.19.2022 20:7:12.017
1036, 2.21694, 359.844, 179.513, 0, 0.000976562, -0.000976562, -0.00195312, 0.37793, -9.71094, 1.19.2022 20:7:12.025
1037, 2.21694, 359.844, 179.513, 0, -0.000976562, -0.000976562, 0.0859375, 0.344727, -9.73438, 1.19.2022 20:7:12.033
1038, 2.21694, 359.844, 179.513, 0, -0.000976562, -0.000976562, -0.0292969, 0.384766, -9.67773, 1.19.2022 20:7:12.041
