Seq, Rot x, Rot y, Rot z, Vel x, Vel y, Vel z, Acc x, Acc y, Acc z, Time(m.d.y h:m:s.ms)
0, 1.83, 359.561, 195.302, -0.000976562, -0.000976562, 0, 0.046875, 0.351562, -9.69434, 1.25.2022 18:40:11.677
1, 1.83, 359.561, 195.302, -0.000976562, -0.00195312, 0, 0.12207, 0.28418, -9.70898, 1.25.2022 18:40:11.683
2, 1.83, 359.561, 195.302, -0.000976562, -0.00195312, -0.00195312, 0.0371094, 0.320312, -9.6875, 1.25.2022 18:40:11.691
3, 1.83693, 359.562, 195.302, -0.000976562, -0.000976562, -0.00195312, 0.100586, 0.301758, -9.71484, 1.25.2022 18:40:11.699
4, 1.83693, 359.562, 195.302, -0.000976562, -0.000976562, 0, 0.0820312, 0.280273, -9.71973, 1.25.2022 18:40:11.707
5, 1.83693, 359.562, 195.302, 0.000976562, -0.000976562, 0, 0.0292969, 0.328125, -9.73438, 1.25.2022 18:40:11.715
6, 1.83693, 359.562, 195.302, -0.000976562, -0.000976562, 0, 0.126953, 0.336914, -9.70312, 1.25.2022 18:40:11.723
7, 1.83693, 359.562, 195.302, -0.000976562, -0.000976562, 0, 0.0673828, 0.31543, -9.69531, 1.25.2022 18:40:11.731
8, 1.83693, 359.562, 195.302, 0, 0, -0.000976562, 0.0419922, 0.325195, -9.69727, 1.25.2022 18:40:11.739
9, 1.83693, 359.562, 195.302, -0.000976562, -0.000976562, 0, 0.131836, 0.3125, -9.69629, 1.25.2022 18:40:11.747
10, 1.83786, 359.555, 195.303, -0.000976562, 0, 0, 0.0322266, 0.329102, -9.68457, 1.25.2022 18:40:11.755
11, 1.83786, 359.555, 195.303, 0.000976562, -0.000976562, 0, 0.0507812, 0.317383, -9.69043, 1.25.2022 18:40:11.763
12, 1.83786, 359.555, 195.303, 0.000976562, -0.000976562, 0, 0.103516, 0.325195, -9.70996, 1.25.2022 18:40:11.771
13, 1.83786, 359.555, 195.303, -0.000976562, 0, 0, 0.0244141, 0.334961, -9.71973, 1.25.2022 18:40:11.779
14, 1.83786, 359.555, 195.303, -0.000976562, 0, 0, 0.138672, 0.285156, -9.7207, 1.25.2022 18:40:11.787
15, 1.83786, 359.555, 195.303, -0.000976562, -0.000976562, 0, 0.0673828, 0.294922, -9.72168, 1.25.2022 18:40:11.795
16, 1.83786, 359.555, 195.303, -0.000976562, -0.000976562, 0, 0.0576172, 0.306641, -9.72852, 1.25.2022 18:40:11.803
17, 1.83786, 359.555, 195.303, 0, 0, -0.000976562, 0.136719, 0.300781, -9.69922, 1.25.2022 18:40:11.811
18, 1.8382, 359.555, 195.302, 0, -0.000976562, -0.000976562, 0.0361328, 0.314453, -9.73242, 1.25.2022 18:40:11.819
19, 1.8382, 359.555, 195.302, -0.000976562, -0.000976562, 0, 0.0927734, 0.30957, -9.75684, 1.25.2022 18:40:11.827
20, 1.84512, 359.556, 195.302, -0.000976562, -0.000976562, 0, 0.0859375, 0.313477, -9.72656, 1.25.2022 18:40:11.835
21, 1.84479, 359.556, 195.303, 0, -0.00195312, 0.000976562, 0.0527344, 0.329102, -9.74219, 1.25.2022 18:40:11.843
22, 1.84479, 359.556, 195.303, -0.000976562, 0, 0, 0.107422, 0.285156, -9.72754, 1.25.2022 18:40:11.851
23, 1.84479, 359.556, 195.303, -0.000976562, -0.000976562, 0, 0.0615234, 0.3125, -9.76172, 1.25.2022 18:40:11.859
24, 1.84479, 359.556, 195.303, -0.000976562, -0.00195312, 0, 0.0292969, 0.318359, -9.69922, 1.25.2022 18:40:11.867
25, 1.84479, 359.556, 195.303, -0.000976562, -0.000976562, 0, 0.0957031, 0.292969, -9.75488, 1.25.2022 18:40:11.875
26, 1.84479, 359.556, 195.303, -0.000976562, -0.000976562, 0, 0.0214844, 0.322266, -9.75293, 1.25.2022 18:40:11.883
27, 1.84479, 359.556, 195.303, 0, -0.000976562, 0, 0.0654297, 0.308594, -9.70996, 1.25.2022 18:40:11.891
28, 1.83786, 359.555, 195.303, -0.000976562, 0, 0, 0.0957031, 0.292969, -9.75098, 1.25.2022 18:40:11.899
29, 1.83786, 359.555, 195.303, -0.000976562, 0, 0.000976562, 0.0410156, 0.31543, -9.7041, 1.25.2022 18:40:11.907
30, 1.83786, 359.555, 195.303, -0.000976562, -0.00195312, 0.000976562, 0.141602, 0.31543, -9.70312, 1.25.2022 18:40:11.915
31, 1.83786, 359.555, 195.303, -0.000976562, -0.000976562, 0, 0.0634766, 0.319336, -9.68066, 1.25.2022 18:40:11.923
32, 1.83786, 359.555, 195.303, 0, -0.000976562, 0, 0.0927734, 0.321289, -9.65723, 1.25.2022 18:40:11.931
33, 1.83786, 359.555, 195.303, 0, -0.000976562, -0.000976562, 0.125, 0.297852, -9.68945, 1.25.2022 18:40:11.939
34, 1.83786, 359.555, 195.303, -0.000976562, -0.000976562, -0.000976562, 0.0175781, 0.328125, -9.71777, 1.25.2022 18:40:11.947
35, 1.83786, 359.555, 195.303, -0.00195312, -0.000976562, 0, 0.0820312, 0.310547, -9.7002, 1.25.2022 18:40:11.955
36, 1.83786, 359.555, 195.303, -0.000976562, -0.000976562, 0, 0.0859375, 0.326172, -9.75391, 1.25.2022 18:40:11.963
37, 1.83786, 359.555, 195.303, -0.000976562, -0.00195312, 0.000976562, 0.0458984, 0.334961, -9.70898, 1.25.2022 18:40:11.971
38, 1.83786, 359.555, 195.303, -0.000976562, -0.000976562, 0, 0.134766, 0.308594, -9.70117, 1.25.2022 18:40:11.979
39, 1.83786, 359.555, 195.303, -0.000976562, -0.000976562, 0, 0.0507812, 0.303711, -9.69531, 1.25.2022 18:40:11.987
40, 1.83786, 359.555, 195.303, -0.000976562, -0.000976562, 0, 0.0605469, 0.322266, -9.6875, 1.25.2022 18:40:11.995
41, 1.83786, 359.555, 195.303, -0.000976562, -0.00195312, 0, 0.120117, 0.31543, -9.70996, 1.25.2022 18:40:12.003
42, 1.84479, 359.556, 195.303, -0.000976562, -0.000976562, 0, 0.0478516, 0.321289, -9.74707, 1.25.2022 18:40:12.011
43, 1.84479, 359.556, 195.303, -0.000976562, -0.000976562, 0, 0.105469, 0.318359, -9.72656, 1.25.2022 18:40:12.019
44, 1.84479, 359.556, 195.303, 0, 0, 0, 0.0820312, 0.294922, -9.71973, 1.25.2022 18:40:12.027
45, 1.8448, 359.556, 195.295, -0.000976562, -0.000976562, 0, 0.0410156, 0.313477, -9.7041, 1.25.2022 18:40:12.035
46, 1.8448, 359.556, 195.295, -0.000976562, -0.000976562, 0, 0.131836, 0.291016, -9.69238, 1.25.2022 18:40:12.043
47, 1.84479, 359.556, 195.303, -0.000976562, -0.000976562, -0.000976562, 0.0654297, 0.300781, -9.68164, 1.25.2022 18:40:12.051
48, 1.84479, 359.556, 195.303, -0.000976562, -0.000976562, -0.000976562, 0.0644531, 0.311523, -9.7334, 1.25.2022 18:40:12.059
49, 1.84479, 359.556, 195.303, -0.000976562, -0.00195312, 0.000976562, 0.110352, 0.277344, -9.69727, 1.25.2022 18:40:12.067
50, 1.8448, 359.556, 195.295, -0.000976562, 0, 0.000976562, 0.0361328, 0.296875, -9.71387, 1.25.2022 18:40:12.075
51, 1.8448, 359.556, 195.295, -0.000976562, -0.00195312, -0.000976562, 0.100586, 0.291992, -9.72266, 1.25.2022 18:40:12.083
52, 1.83881, 359.548, 195.296, -0.000976562, 0, 0, 0.0732422, 0.303711, -9.77344, 1.25.2022 18:40:12.091
53, 1.83881, 359.548, 195.296, -0.000976562, -0.00195312, -0.000976562, 0.03125, 0.302734, -9.74023, 1.25.2022 18:40:12.099
54, 1.83881, 359.548, 195.296, -0.000976562, 0, 0, 0.135742, 0.283203, -9.74902, 1.25.2022 18:40:12.107
55, 1.83881, 359.548, 195.296, -0.000976562, 0, 0.000976562, 0.0742188, 0.301758, -9.72656, 1.25.2022 18:40:12.115
56, 1.83881, 359.548, 195.296, -0.00195312, 0, 0, 0.0908203, 0.329102, -9.74512, 1.25.2022 18:40:12.123
57, 1.83881, 359.548, 195.296, -0.00195312, 0, 0, 0.12207, 0.280273, -9.73242, 1.25.2022 18:40:12.131
58, 1.83881, 359.548, 195.296, -0.000976562, 0, 0, 0.00488281, 0.329102, -9.74121, 1.25.2022 18:40:12.139
59, 1.83188, 359.547, 195.295, -0.000976562, 0, -0.00195312, 0.0820312, 0.325195, -9.71387, 1.25.2022 18:40:12.147
60, 1.83188, 359.547, 195.295, -0.000976562, 0, -0.00195312, 0.0791016, 0.308594, -9.70703, 1.25.2022 18:40:12.155
61, 1.83188, 359.547, 195.295, -0.000976562, 0, 0.000976562, 0.0488281, 0.327148, -9.6875, 1.25.2022 18:40:12.163
62, 1.83188, 359.547, 195.295, -0.000976562, 0, 0, 0.114258, 0.292969, -9.74902, 1.25.2022 18:40:12.171
63, 1.83188, 359.547, 195.295, -0.000976562, 0.000976562, 0, 0.0458984, 0.296875, -9.72656, 1.25.2022 18:40:12.179
64, 1.83188, 359.547, 195.295, -0.000976562, 0, 0, 0.0644531, 0.304688, -9.72363, 1.25.2022 18:40:12.187
65, 1.82495, 359.546, 195.295, -0.000976562, 0.000976562, 0, 0.120117, 0.295898, -9.69629, 1.25.2022 18:40:12.195
66, 1.82495, 359.546, 195.295, -0.000976562, 0, 0, 0.0439453, 0.291992, -9.70996, 1.25.2022 18:40:12.203
67, 1.82495, 359.546, 195.295, -0.000976562, 0, 0, 0.0703125, 0.31543, -9.70703, 1.25.2022 18:40:12.211
68, 1.82495, 359.546, 195.295, 0, 0, -0.000976562, 0.0820312, 0.325195, -9.69727, 1.25.2022 18:40:12.219
69, 1.82495, 359.546, 195.295, 0, -0.00195312, -0.000976562, 0.0273438, 0.327148, -9.68457, 1.25.2022 18:40:12.227
70, 1.82495, 359.546, 195.295, -0.000976562, 0, 0, 0.113281, 0.320312, -9.7002, 1.25.2022 18:40:12.235
71, 1.82495, 359.546, 195.295, 0, 0, -0.00195312, 0.0322266, 0.30957, -9.66406, 1.25.2022 18:40:12.243
72, 1.82494, 359.546, 195.303, -0.000976562, 0, -0.00195312, 0.0722656, 0.339844, -9.72559, 1.25.2022 18:40:12.251
73, 1.82494, 359.546, 195.303, -0.00195312, 0, 0, 0.0888672, 0.299805, -9.74121, 1.25.2022 18:40:12.259
74, 1.82494, 359.546, 195.303, -0.000976562, 0, 0, 0.0292969, 0.310547, -9.69727, 1.25.2022 18:40:12.265
75, 1.82494, 359.546, 195.303, -0.000976562, 0, 0, 0.0957031, 0.321289, -9.72363, 1.25.2022 18:40:12.273
76, 1.82401, 359.553, 195.303, -0.000976562, -0.00195312, -0.00195312, 0.0839844, 0.287109, -9.72266, 1.25.2022 18:40:12.281
77, 1.82401, 359.553, 195.303, -0.000976562, -0.00195312, -0.000976562, 0.0292969, 0.325195, -9.71582, 1.25.2022 18:40:12.289
78, 1.82401, 359.553, 195.303, -0.000976562, 0, 0, 0.131836, 0.308594, -9.71289, 1.25.2022 18:40:12.297
79, 1.82401, 359.553, 195.303, -0.000976562, 0, 0, 0.0722656, 0.316406, -9.7334, 1.25.2022 18:40:12.305
80, 1.82401, 359.553, 195.303, 0, -0.00195312, 0.000976562, 0.0810547, 0.326172, -9.7373, 1.25.2022 18:40:12.313
81, 1.82401, 359.553, 195.303, -0.000976562, -0.000976562, 0.000976562, 0.140625, 0.273438, -9.74707, 1.25.2022 18:40:12.321
82, 1.82401, 359.553, 195.303, -0.000976562, 0, 0, 0.0410156, 0.30957, -9.72559, 1.25.2022 18:40:12.329
83, 1.82401, 359.553, 195.303, 0.000976562, 0.000976562, 0, 0.09375, 0.28418, -9.70605, 1.25.2022 18:40:12.337
84, 1.82401, 359.553, 195.303, -0.000976562, 0, -0.00195312, 0.0908203, 0.290039, -9.72656, 1.25.2022 18:40:12.345
85, 1.82401, 359.553, 195.303, -0.000976562, 0, 0, 0.0664062, 0.304688, -9.75488, 1.25.2022 18:40:12.353
86, 1.82401, 359.553, 195.303, -0.000976562, -0.000976562, -0.000976562, 0.136719, 0.306641, -9.71777, 1.25.2022 18:40:12.361
87, 1.82401, 359.553, 195.303, -0.000976562, 0, 0, 0.0429688, 0.307617, -9.75391, 1.25.2022 18:40:12.369
88, 1.82401, 359.553, 195.303, -0.000976562, 0.000976562, 0, 0.0507812, 0.318359, -9.72754, 1.25.2022 18:40:12.377
89, 1.82401, 359.553, 195.303, -0.000976562, 0, 0, 0.115234, 0.301758, -9.71777, 1.25.2022 18:40:12.385
90, 1.82401, 359.553, 195.303, 0.000976562, 0.000976562, 0, 0.0292969, 0.311523, -9.73242, 1.25.2022 18:40:12.393
91, 1.81708, 359.552, 195.302, -0.000976562, 0.000976562, 0, 0.125, 0.306641, -9.71289, 1.25.2022 18:40:12.401
92, 1.81801, 359.546, 195.303, -0.000976562, 0.000976562, 0.000976562, 0.0966797, 0.289062, -9.70312, 1.25.2022 18:40:12.409
93, 1.81801, 359.546, 195.303, -0.000976562, 0, 0, 0.0341797, 0.344727, -9.70996, 1.25.2022 18:40:12.417
94, 1.81801, 359.546, 195.303, -0.000976562, -0.000976562, -0.000976562, 0.108398, 0.293945, -9.70312, 1.25.2022 18:40:12.425
95, 1.81801, 359.546, 195.303, -0.00195312, 0, 0, 0.0410156, 0.311523, -9.71387, 1.25.2022 18:40:12.433
96, 1.81801, 359.546, 195.303, -0.000976562, 0.000976562, 0, 0.0771484, 0.322266, -9.69727, 1.25.2022 18:40:12.441
97, 1.81803, 359.545, 195.295, -0.000976562, 0.000976562, 0, 0.115234, 0.28418, -9.70898, 1.25.2022 18:40:12.449
98, 1.81803, 359.545, 195.295, -0.00195312, 0.000976562, 0.000976562, 0.0166016, 0.324219, -9.75781, 1.25.2022 18:40:12.457
99, 1.81803, 359.545, 195.295, -0.000976562, 0, 0, 0.107422, 0.297852, -9.75293, 1.25.2022 18:40:12.465
100, 1.81803, 359.545, 195.295, -0.000976562, 0, 0, 0.0869141, 0.301758, -9.71484, 1.25.2022 18:40:12.473
101, 1.81803, 359.545, 195.295, -0.000976562, 0, 0, 0.0371094, 0.310547, -9.70215, 1.25.2022 18:40:12.481
102, 1.81803, 359.545, 195.295, -0.000976562, -0.000976562, -0.000976562, 0.110352, 0.289062, -9.70117, 1.25.2022 18:40:12.489
103, 1.81803, 359.545, 195.295, -0.000976562, -0.000976562, -0.000976562, 0.0488281, 0.308594, -9.70898, 1.25.2022 18:40:12.497
104, 1.81803, 359.545, 195.295, -0.000976562, 0, 0, 0.0458984, 0.308594, -9.70703, 1.25.2022 18:40:12.505
105, 1.81803, 359.545, 195.295, -0.000976562, 0, 0, 0.115234, 0.27832, -9.73047, 1.25.2022 18:40:12.513
106, 1.81803, 359.545, 195.295, -0.000976562, 0, -0.00195312, 0.00976562, 0.323242, -9.71973, 1.25.2022 18:40:12.521
107, 1.81108, 359.545, 195.303, 0.000976562, 0.000976562, -0.00195312, 0.112305, 0.30957, -9.75, 1.25.2022 18:40:12.529
108, 1.81108, 359.545, 195.303, 0.000976562, 0.000976562, -0.00195312, 0.0771484, 0.299805, -9.72168, 1.25.2022 18:40:12.537
109, 1.81108, 359.545, 195.303, 0.000976562, 0, -0.00195312, 0.0380859, 0.345703, -9.73633, 1.25.2022 18:40:12.545
110, 1.81108, 359.545, 195.303, 0.000976562, 0, -0.000976562, 0.121094, 0.288086, -9.75781, 1.25.2022 18:40:12.553
111, 1.81108, 359.545, 195.303, -0.000976562, 0, 0, 0.0527344, 0.316406, -9.71582, 1.25.2022 18:40:12.561
112, 1.81108, 359.545, 195.303, -0.000976562, 0, 0, 0.0771484, 0.318359, -9.70508, 1.25.2022 18:40:12.569
113, 1.81108, 359.545, 195.303, -0.000976562, -0.000976562, 0, 0.100586, 0.292969, -9.74316, 1.25.2022 18:40:12.577
114, 1.81108, 359.545, 195.303, -0.000976562, -0.000976562, 0, 0.0390625, 0.338867, -9.69629, 1.25.2022 18:40:12.585
115, 1.81108, 359.545, 195.303, -0.000976562, 0, 0, 0.117188, 0.313477, -9.71973, 1.25.2022 18:40:12.593
116, 1.81108, 359.545, 195.303, -0.000976562, -0.000976562, -0.000976562, 0.0859375, 0.314453, -9.76172, 1.25.2022 18:40:12.601
117, 1.81108, 359.545, 195.303, 0, 0, -0.00292969, 0.0458984, 0.306641, -9.71191, 1.25.2022 18:40:12.609
118, 1.81108, 359.545, 195.303, 0, -0.000976562, 0, 0.124023, 0.3125, -9.75488, 1.25.2022 18:40:12.617
119, 1.81015, 359.552, 195.302, -0.000976562, -0.00195312, 0, 0.0390625, 0.296875, -9.72363, 1.25.2022 18:40:12.625
120, 1.81015, 359.552, 195.302, -0.000976562, 0, 0, 0.0771484, 0.317383, -9.68359, 1.25.2022 18:40:12.633
121, 1.81015, 359.552, 195.302, -0.000976562, -0.000976562, 0, 0.09375, 0.308594, -9.70312, 1.25.2022 18:40:12.641
122, 1.81015, 359.552, 195.302, -0.000976562, -0.000976562, 0, 0.00585938, 0.330078, -9.69336, 1.25.2022 18:40:12.649
123, 1.81015, 359.552, 195.302, -0.00195312, -0.000976562, 0, 0.118164, 0.300781, -9.70312, 1.25.2022 18:40:12.657
124, 1.81708, 359.552, 195.302, -0.000976562, -0.000976562, 0, 0.0869141, 0.303711, -9.70801, 1.25.2022 18:40:12.665
125, 1.81708, 359.552, 195.302, 0, -0.000976562, 0, 0.0625, 0.326172, -9.73047, 1.25.2022 18:40:12.673
126, 1.81708, 359.552, 195.302, -0.000976562, -0.000976562, 0, 0.146484, 0.289062, -9.70898, 1.25.2022 18:40:12.681
127, 1.81708, 359.552, 195.302, -0.000976562, -0.000976562, 0, 0.0634766, 0.317383, -9.69043, 1.25.2022 18:40:12.689
128, 1.81708, 359.552, 195.302, -0.000976562, -0.000976562, 0, 0.0839844, 0.293945, -9.71289, 1.25.2022 18:40:12.697
129, 1.81708, 359.552, 195.302, -0.00195312, -0.000976562, 0, 0.105469, 0.269531, -9.70215, 1.25.2022 18:40:12.705
130, 1.81708, 359.552, 195.302, -0.00195312, -0.000976562, 0, 0.0361328, 0.308594, -9.71191, 1.25.2022 18:40:12.713
131, 1.81801, 359.546, 195.303, -0.000976562, -0.000976562, 0, 0.103516, 0.318359, -9.71973, 1.25.2022 18:40:12.721
132, 1.81801, 359.546, 195.303, 0, -0.000976562, -0.00195312, 0.0576172, 0.308594, -9.71387, 1.25.2022 18:40:12.729
133, 1.81801, 359.546, 195.303, -0.000976562, 0, -0.000976562, 0.0527344, 0.323242, -9.73242, 1.25.2022 18:40:12.737
134, 1.81801, 359.546, 195.303, -0.00195312, -0.000976562, 0, 0.129883, 0.265625, -9.70703, 1.25.2022 18:40:12.745
135, 1.81801, 359.546, 195.303, -0.000976562, -0.000976562, 0.000976562, 0.0537109, 0.318359, -9.70703, 1.25.2022 18:40:12.753
136, 1.81801, 359.546, 195.303, 0, -0.000976562, 0, 0.0742188, 0.339844, -9.73047, 1.25.2022 18:40:12.761
137, 1.81801, 359.546, 195.303, -0.000976562, -0.000976562, 0, 0.0869141, 0.308594, -9.71191, 1.25.2022 18:40:12.769
138, 1.81801, 359.546, 195.303, -0.000976562, -0.000976562, 0, 0.0195312, 0.344727, -9.70996, 1.25.2022 18:40:12.777
139, 1.81801, 359.546, 195.303, -0.000976562, -0.000976562, 0, 0.111328, 0.297852, -9.68652, 1.25.2022 18:40:12.785
140, 1.81801, 359.546, 195.303, -0.000976562, -0.000976562, 0.000976562, 0.0986328, 0.308594, -9.72461, 1.25.2022 18:40:12.793
141, 1.81801, 359.546, 195.303, -0.000976562, -0.000976562, 0.000976562, 0.0644531, 0.344727, -9.73438, 1.25.2022 18:40:12.801
142, 1.81801, 359.546, 195.303, -0.00195312, -0.000976562, 0, 0.120117, 0.304688, -9.72949, 1.25.2022 18:40:12.809
143, 1.81801, 359.546, 195.303, -0.000976562, -0.000976562, 0.000976562, 0.0693359, 0.311523, -9.73535, 1.25.2022 18:40:12.817
144, 1.81801, 359.546, 195.303, -0.000976562, 0, 0, 0.0888672, 0.324219, -9.74707, 1.25.2022 18:40:12.825
145, 1.81801, 359.546, 195.303, 0, -0.000976562, 0, 0.0615234, 0.292969, -9.75684, 1.25.2022 18:40:12.833
146, 1.81801, 359.546, 195.303, 0, -0.000976562, 0.000976562, 0.0458984, 0.349609, -9.71973, 1.25.2022 18:40:12.841
147, 1.82494, 359.546, 195.303, -0.00195312, 0, 0, 0.115234, 0.311523, -9.71973, 1.25.2022 18:40:12.849
148, 1.82587, 359.54, 195.303, -0.00195312, -0.000976562, 0, 0.0458984, 0.302734, -9.74707, 1.25.2022 18:40:12.857
149, 1.82588, 359.539, 195.296, 0, 0, 0, 0.0390625, 0.318359, -9.72559, 1.25.2022 18:40:12.865
150, 1.82588, 359.539, 195.296, 0, -0.000976562, 0, 0.121094, 0.286133, -9.75586, 1.25.2022 18:40:12.873
151, 1.82588, 359.539, 195.296, 0, -0.000976562, 0, 0.0527344, 0.293945, -9.71191, 1.25.2022 18:40:12.881
152, 1.82588, 359.539, 195.296, 0, -0.000976562, 0, 0.0888672, 0.308594, -9.70996, 1.25.2022 18:40:12.889
153, 1.82588, 359.539, 195.296, 0, -0.000976562, 0, 0.0917969, 0.293945, -9.70996, 1.25.2022 18:40:12.897
154, 1.82588, 359.539, 195.296, 0, 0, 0, 0.0292969, 0.318359, -9.72266, 1.25.2022 18:40:12.905
155, 1.82588, 359.539, 195.296, -0.00195312, -0.000976562, 0, 0.131836, 0.282227, -9.7207, 1.25.2022 18:40:12.913
156, 1.82588, 359.539, 195.296, 0, 0, 0, 0.09375, 0.313477, -9.72168, 1.25.2022 18:40:12.921
157, 1.82588, 359.539, 195.296, 0, -0.000976562, 0, 0.0390625, 0.336914, -9.70312, 1.25.2022 18:40:12.929
158, 1.82588, 359.539, 195.296, 0, -0.000976562, 0, 0.12207, 0.316406, -9.71973, 1.25.2022 18:40:12.937
159, 1.82588, 359.539, 195.296, 0, 0, 0, 0.03125, 0.316406, -9.72754, 1.25.2022 18:40:12.945
160, 1.82587, 359.54, 195.303, -0.000976562, -0.000976562, -0.00195312, 0.0820312, 0.308594, -9.70312, 1.25.2022 18:40:12.953
161, 1.82587, 359.54, 195.303, -0.000976562, -0.000976562, -0.00195312, 0.103516, 0.310547, -9.69824, 1.25.2022 18:40:12.961
162, 1.82587, 359.54, 195.303, 0, -0.000976562, 0, 0.0146484, 0.314453, -9.73438, 1.25.2022 18:40:12.969
163, 1.82587, 359.54, 195.303, 0.000976562, -0.000976562, 0, 0.0996094, 0.327148, -9.76172, 1.25.2022 18:40:12.977
164, 1.82587, 359.54, 195.303, 0.000976562, -0.000976562, 0, 0.0791016, 0.30957, -9.72852, 1.25.2022 18:40:12.985
165, 1.82587, 359.54, 195.303, 0, -0.000976562, 0.000976562, 0.0527344, 0.318359, -9.73047, 1.25.2022 18:40:12.993
166, 1.82587, 359.54, 195.303, -0.000976562, -0.000976562, 0, 0.125, 0.30957, -9.6748, 1.25.2022 18:40:13.001
167, 1.83186, 359.547, 195.303, -0.00195312, -0.000976562, 0, 0.0703125, 0.317383, -9.69727, 1.25.2022 18:40:13.009
168, 1.83186, 359.547, 195.303, 0, -0.000976562, 0, 0.0957031, 0.308594, -9.72656, 1.25.2022 18:40:13.017
169, 1.83186, 359.547, 195.303, 0, -0.000976562, 0, 0.0673828, 0.27832, -9.74121, 1.25.2022 18:40:13.025
170, 1.83186, 359.547, 195.303, 0, -0.000976562, 0, 0.0292969, 0.301758, -9.73535, 1.25.2022 18:40:13.033
171, 1.83186, 359.547, 195.303, -0.000976562, -0.000976562, 0, 0.103516, 0.295898, -9.69629, 1.25.2022 18:40:13.041
172, 1.83186, 359.547, 195.303, 0, -0.000976562, 0, 0.107422, 0.323242, -9.73535, 1.25.2022 18:40:13.049
173, 1.83186, 359.547, 195.303, 0, -0.000976562, 0, 0.0419922, 0.330078, -9.69434, 1.25.2022 18:40:13.057
174, 1.83188, 359.547, 195.295, 0, -0.000976562, 0.000976562, 0.125, 0.290039, -9.7207, 1.25.2022 18:40:13.065
175, 1.83188, 359.547, 195.295, -0.00195312, -0.000976562, 0, 0.0527344, 0.303711, -9.7168, 1.25.2022 18:40:13.073
176, 1.83188, 359.547, 195.295, 0, -0.000976562, 0.000976562, 0.0771484, 0.323242, -9.71875, 1.25.2022 18:40:13.081
177, 1.83188, 359.547, 195.295, 0, -0.000976562, 0, 0.0722656, 0.303711, -9.71191, 1.25.2022 18:40:13.089
178, 1.83188, 359.547, 195.295, 0, -0.000976562, -0.000976562, 0.0126953, 0.325195, -9.71777, 1.25.2022 18:40:13.097
179, 1.83188, 359.547, 195.295, 0.000976562, -0.00195312, -0.000976562, 0.107422, 0.288086, -9.73633, 1.25.2022 18:40:13.105
180, 1.82495, 359.546, 195.295, 0.000976562, -0.000976562, -0.000976562, 0.0654297, 0.297852, -9.68359, 1.25.2022 18:40:13.113
181, 1.82495, 359.546, 195.295, 0, -0.000976562, -0.000976562, 0.0478516, 0.331055, -9.73438, 1.25.2022 18:40:13.121
182, 1.82495, 359.546, 195.295, -0.000976562, -0.000976562, -0.000976562, 0.131836, 0.282227, -9.71387, 1.25.2022 18:40:13.129
183, 1.82495, 359.546, 195.295, 0.000976562, -0.000976562, -0.000976562, 0.0292969, 0.313477, -9.72266, 1.25.2022 18:40:13.137
184, 1.82495, 359.546, 195.295, 0.000976562, -0.00195312, -0.000976562, 0.0839844, 0.303711, -9.71191, 1.25.2022 18:40:13.145
185, 1.82495, 359.546, 195.295, 0.000976562, -0.00195312, -0.000976562, 0.125, 0.290039, -9.71777, 1.25.2022 18:40:13.153
186, 1.82402, 359.553, 195.295, 0, -0.000976562, -0.00195312, 0.0263672, 0.319336, -9.73438, 1.25.2022 18:40:13.161
187, 1.82402, 359.553, 195.295, 0, 0, -0.000976562, 0.12207, 0.291992, -9.72754, 1.25.2022 18:40:13.169
188, 1.82402, 359.553, 195.295, 0, -0.000976562, 0, 0.0576172, 0.285156, -9.7168, 1.25.2022 18:40:13.177
189, 1.82402, 359.553, 195.295, 0, -0.000976562, -0.000976562, 0.0742188, 0.311523, -9.74023, 1.25.2022 18:40:13.185
190, 1.82402, 359.553, 195.295, 0, -0.00195312, -0.00195312, 0.12793, 0.306641, -9.66113, 1.25.2022 18:40:13.193
191, 1.81708, 359.552, 195.302, 0.000976562, -0.000976562, -0.000976562, 0.0214844, 0.323242, -9.73242, 1.25.2022 18:40:13.201
192, 1.81708, 359.552, 195.302, 0, -0.000976562, -0.000976562, 0.0966797, 0.298828, -9.69629, 1.25.2022 18:40:13.209
193, 1.81708, 359.552, 195.302, 0, -0.000976562, -0.00195312, 0.0673828, 0.308594, -9.72656, 1.25.2022 18:40:13.217
194, 1.81708, 359.552, 195.302, 0.000976562, -0.000976562, -0.000976562, 0.0224609, 0.333008, -9.72461, 1.25.2022 18:40:13.225
195, 1.81708, 359.552, 195.302, 0, -0.000976562, -0.000976562, 0.131836, 0.305664, -9.70117, 1.25.2022 18:40:13.231
196, 1.81708, 359.552, 195.302, 0, -0.000976562, -0.000976562, 0.0888672, 0.321289, -9.72363, 1.25.2022 18:40:13.239
197, 1.81708, 359.552, 195.302, 0, -0.000976562, -0.000976562, 0.0673828, 0.308594, -9.7168, 1.25.2022 18:40:13.247
198, 1.81708, 359.552, 195.302, -0.000976562, -0.000976562, -0.000976562, 0.138672, 0.321289, -9.72949, 1.25.2022 18:40:13.255
199, 1.81708, 359.552, 195.302, 0, 0, -0.00195312, 0.03125, 0.321289, -9.7373, 1.25.2022 18:40:13.263
200, 1.81708, 359.552, 195.302, 0, -0.000976562, -0.00195312, 0.09375, 0.306641, -9.72656, 1.25.2022 18:40:13.271
201, 1.81708, 359.552, 195.302, -0.000976562, 0, -0.000976562, 0.103516, 0.275391, -9.71387, 1.25.2022 18:40:13.279
202, 1.81708, 359.552, 195.302, -0.00195312, -0.000976562, -0.00195312, 0.0458984, 0.316406, -9.7207, 1.25.2022 18:40:13.287
203, 1.81708, 359.552, 195.302, -0.000976562, -0.000976562, -0.000976562, 0.110352, 0.289062, -9.69629, 1.25.2022 18:40:13.295
204, 1.81801, 359.546, 195.303, 0, -0.000976562, -0.00195312, 0.0839844, 0.289062, -9.70117, 1.25.2022 18:40:13.303
205, 1.81801, 359.546, 195.303, 0, -0.000976562, -0.000976562, 0.105469, 0.308594, -9.70117, 1.25.2022 18:40:13.311
206, 1.81801, 359.546, 195.303, 0.000976562, -0.000976562, -0.000976562, 0.126953, 0.298828, -9.69434, 1.25.2022 18:40:13.319
207, 1.81801, 359.546, 195.303, 0, -0.000976562, 0, 0.03125, 0.324219, -9.7627, 1.25.2022 18:40:13.327
208, 1.81801, 359.546, 195.303, 0, -0.000976562, -0.000976562, 0.0722656, 0.320312, -9.70508, 1.25.2022 18:40:13.335
209, 1.81801, 359.546, 195.303, -0.000976562, -0.00195312, 0, 0.0869141, 0.296875, -9.70996, 1.25.2022 18:40:13.343
210, 1.81801, 359.546, 195.303, -0.00195312, 0, 0, 0.0146484, 0.321289, -9.71777, 1.25.2022 18:40:13.351
211, 1.81801, 359.546, 195.303, -0.00195312, 0.000976562, 0, 0.110352, 0.308594, -9.71484, 1.25.2022 18:40:13.359
212, 1.81894, 359.539, 195.303, -0.000976562, 0, 0, 0.0585938, 0.300781, -9.69043, 1.25.2022 18:40:13.367
213, 1.81894, 359.539, 195.303, -0.000976562, 0, 0, 0.0625, 0.325195, -9.7207, 1.25.2022 18:40:13.375
214, 1.81894, 359.539, 195.303, -0.000976562, -0.00195312, 0, 0.12207, 0.289062, -9.71094, 1.25.2022 18:40:13.383
215, 1.81894, 359.539, 195.303, -0.000976562, 0, 0, 0.0488281, 0.316406, -9.71875, 1.25.2022 18:40:13.391
216, 1.81894, 359.539, 195.303, -0.000976562, 0, 0.000976562, 0.0908203, 0.285156, -9.71777, 1.25.2022 18:40:13.399
217, 1.81894, 359.539, 195.303, -0.000976562, 0, 0.000976562, 0.0888672, 0.308594, -9.70508, 1.25.2022 18:40:13.407
218, 1.81201, 359.538, 195.303, -0.000976562, 0.000976562, 0, 0.0175781, 0.325195, -9.6875, 1.25.2022 18:40:13.415
219, 1.81201, 359.538, 195.303, -0.000976562, 0, 0, 0.110352, 0.296875, -9.71289, 1.25.2022 18:40:13.423
220, 1.81201, 359.538, 195.303, 0, -0.00195312, 0, 0.0556641, 0.285156, -9.72168, 1.25.2022 18:40:13.431
221, 1.81201, 359.538, 195.303, 0, 0, -0.000976562, 0.0556641, 0.303711, -9.7168, 1.25.2022 18:40:13.439
222, 1.81201, 359.538, 195.303, -0.000976562, 0, 0, 0.133789, 0.283203, -9.73242, 1.25.2022 18:40:13.447
223, 1.81201, 359.538, 195.303, -0.00195312, 0, -0.000976562, 0.0488281, 0.319336, -9.67383, 1.25.2022 18:40:13.455
224, 1.81201, 359.538, 195.303, -0.000976562, 0, 0, 0.103516, 0.323242, -9.72168, 1.25.2022 18:40:13.463
225, 1.81201, 359.538, 195.303, -0.00195312, 0, 0, 0.0839844, 0.316406, -9.71875, 1.25.2022 18:40:13.471
226, 1.81201, 359.538, 195.303, -0.000976562, 0, 0, 0.03125, 0.321289, -9.7373, 1.25.2022 18:40:13.479
227, 1.81201, 359.538, 195.303, -0.000976562, 0.000976562, 0, 0.133789, 0.304688, -9.72949, 1.25.2022 18:40:13.487
228, 1.81201, 359.538, 195.303, -0.000976562, 0.000976562, 0, 0.0625, 0.313477, -9.7207, 1.25.2022 18:40:13.495
229, 1.81201, 359.538, 195.303, -0.00195312, 0, 0, 0.0341797, 0.337891, -9.72461, 1.25.2022 18:40:13.503
230, 1.81201, 359.538, 195.303, -0.00195312, -0.00195312, 0, 0.12207, 0.28418, -9.70898, 1.25.2022 18:40:13.511
231, 1.81201, 359.538, 195.303, -0.000976562, 0, 0, 0.0107422, 0.332031, -9.67773, 1.25.2022 18:40:13.519
232, 1.81108, 359.545, 195.303, -0.000976562, -0.00195312, 0, 0.0673828, 0.280273, -9.70996, 1.25.2022 18:40:13.527
233, 1.81108, 359.545, 195.303, -0.000976562, 0, 0, 0.0751953, 0.295898, -9.7002, 1.25.2022 18:40:13.535
234, 1.81108, 359.545, 195.303, -0.000976562, 0, -0.000976562, 0.0126953, 0.332031, -9.69141, 1.25.2022 18:40:13.543
235, 1.81108, 359.545, 195.303, 0.000976562, 0, 0.000976562, 0.120117, 0.310547, -9.68945, 1.25.2022 18:40:13.551
236, 1.81108, 359.545, 195.303, -0.000976562, 0, 0.000976562, 0.0673828, 0.30957, -9.73047, 1.25.2022 18:40:13.559
237, 1.81801, 359.546, 195.303, -0.000976562, 0, 0, 0.0839844, 0.321289, -9.72852, 1.25.2022 18:40:13.567
238, 1.81801, 359.546, 195.303, -0.000976562, 0, 0, 0.101562, 0.310547, -9.7002, 1.25.2022 18:40:13.575
239, 1.81801, 359.546, 195.303, -0.000976562, -0.00195312, -0.000976562, 0.0175781, 0.330078, -9.71973, 1.25.2022 18:40:13.583
240, 1.81708, 359.552, 195.302, 0, 0, 0, 0.09375, 0.306641, -9.71973, 1.25.2022 18:40:13.591
241, 1.81708, 359.552, 195.302, 0, 0, 0, 0.09375, 0.298828, -9.69141, 1.25.2022 18:40:13.599
242, 1.81708, 359.552, 195.302, 0, 0, -0.00195312, 0.0556641, 0.325195, -9.69922, 1.25.2022 18:40:13.607
243, 1.81708, 359.552, 195.302, 0, -0.00195312, -0.000976562, 0.139648, 0.307617, -9.67285, 1.25.2022 18:40:13.615
244, 1.81708, 359.552, 195.302, 0, 0, 0, 0.0566406, 0.289062, -9.76172, 1.25.2022 18:40:13.623
245, 1.81708, 359.552, 195.302, 0, 0.000976562, -0.00195312, 0.0654297, 0.277344, -9.69824, 1.25.2022 18:40:13.631
246, 1.81708, 359.552, 195.302, 0, 0, -0.00195312, 0.0742188, 0.250977, -9.70898, 1.25.2022 18:40:13.639
247, 1.81708, 359.552, 195.302, 0, 0.000976562, -0.00195312, 0.0263672, 0.319336, -9.74121, 1.25.2022 18:40:13.647
248, 1.81708, 359.552, 195.302, 0, 0, -0.00195312, 0.0966797, 0.332031, -9.69043, 1.25.2022 18:40:13.655
249, 1.81708, 359.552, 195.302, 0.000976562, 0, -0.000976562, 0.0693359, 0.285156, -9.71484, 1.25.2022 18:40:13.663
250, 1.81708, 359.552, 195.302, 0.000976562, 0, 0.000976562, 0.0244141, 0.338867, -9.75098, 1.25.2022 18:40:13.671
251, 1.81708, 359.552, 195.302, 0.000976562, 0, -0.000976562, 0.12207, 0.288086, -9.73242, 1.25.2022 18:40:13.679
252, 1.81708, 359.552, 195.302, 0, 0.000976562, 0, 0.0517578, 0.300781, -9.77051, 1.25.2022 18:40:13.687
253, 1.81615, 359.559, 195.302, 0, 0, 0, 0.0527344, 0.330078, -9.72266, 1.25.2022 18:40:13.695
254, 1.81615, 359.559, 195.302, 0, -0.00195312, -0.000976562, 0.0986328, 0.306641, -9.72656, 1.25.2022 18:40:13.703
255, 1.81615, 359.559, 195.302, 0, 0, -0.000976562, 0.0390625, 0.339844, -9.70312, 1.25.2022 18:40:13.711
256, 1.81615, 359.559, 195.302, 0, 0.000976562, 0, 0.105469, 0.333008, -9.72168, 1.25.2022 18:40:13.719
257, 1.80922, 359.558, 195.302, 0.000976562, 0, -0.000976562, 0.0673828, 0.292969, -9.7334, 1.25.2022 18:40:13.727
258, 1.80922, 359.558, 195.302, 0, -0.00195312, -0.00195312, 0.0224609, 0.342773, -9.71973, 1.25.2022 18:40:13.735
259, 1.81615, 359.559, 195.302, 0.000976562, 0, -0.000976562, 0.128906, 0.3125, -9.75293, 1.25.2022 18:40:13.743
260, 1.81615, 359.559, 195.302, 0, 0.000976562, 0, 0.0693359, 0.290039, -9.73828, 1.25.2022 18:40:13.751
261, 1.81615, 359.559, 195.302, 0, 0.000976562, 0, 0.0488281, 0.301758, -9.70898, 1.25.2022 18:40:13.759
262, 1.81615, 359.559, 195.302, -0.000976562, 0.000976562, 0.000976562, 0.115234, 0.288086, -9.73438, 1.25.2022 18:40:13.767
263, 1.81615, 359.559, 195.302, 0, 0, -0.000976562, 0.00292969, 0.334961, -9.72168, 1.25.2022 18:40:13.775
264, 1.81522, 359.566, 195.302, 0.000976562, 0, -0.000976562, 0.110352, 0.316406, -9.73828, 1.25.2022 18:40:13.783
265, 1.81522, 359.566, 195.302, 0, 0.000976562, 0.000976562, 0.09375, 0.308594, -9.70801, 1.25.2022 18:40:13.791
266, 1.81522, 359.566, 195.302, 0, -0.00195312, -0.000976562, 0.0576172, 0.310547, -9.70898, 1.25.2022 18:40:13.799
267, 1.81522, 359.566, 195.302, 0.000976562, -0.00195312, -0.000976562, 0.126953, 0.292969, -9.74609, 1.25.2022 18:40:13.807
268, 1.81522, 359.566, 195.302, 0, 0, 0.000976562, 0.0361328, 0.316406, -9.72754, 1.25.2022 18:40:13.815
269, 1.81522, 359.566, 195.302, 0, 0, 0, 0.0527344, 0.308594, -9.71191, 1.25.2022 18:40:13.823
270, 1.81522, 359.566, 195.302, 0, 0.000976562, 0.000976562, 0.09375, 0.289062, -9.70801, 1.25.2022 18:40:13.831
271, 1.81522, 359.566, 195.302, -0.00195312, 0, 0, 0.0390625, 0.302734, -9.68555, 1.25.2022 18:40:13.839
272, 1.81522, 359.566, 195.302, 0, 0, 0, 0.108398, 0.320312, -9.71484, 1.25.2022 18:40:13.847
273, 1.81522, 359.566, 195.302, -0.00195312, -0.000976562, 0, 0.0888672, 0.294922, -9.72656, 1.25.2022 18:40:13.855
274, 1.81522, 359.566, 195.302, -0.000976562, -0.00195312, -0.000976562, 0.0498047, 0.326172, -9.74902, 1.25.2022 18:40:13.863
275, 1.81522, 359.566, 195.302, -0.000976562, -0.000976562, 0, 0.129883, 0.291016, -9.69434, 1.25.2022 18:40:13.871
276, 1.81522, 359.566, 195.302, -0.000976562, 0, 0, 0.0673828, 0.291992, -9.71191, 1.25.2022 18:40:13.879
277, 1.81522, 359.566, 195.302, 0, 0, 0, 0.0556641, 0.310547, -9.70508, 1.25.2022 18:40:13.887
278, 1.81522, 359.566, 195.302, 0, -0.000976562, 0, 0.118164, 0.303711, -9.69629, 1.25.2022 18:40:13.895
279, 1.81522, 359.566, 195.302, 0, -0.000976562, 0, 0.0146484, 0.316406, -9.71777, 1.25.2022 18:40:13.903
280, 1.81522, 359.566, 195.302, 0, -0.000976562, 0, 0.0908203, 0.30957, -9.73145, 1.25.2022 18:40:13.911
281, 1.81522, 359.566, 195.302, -0.000976562, -0.00195312, 0.000976562, 0.0986328, 0.294922, -9.71973, 1.25.2022 18:40:13.919
282, 1.81522, 359.566, 195.302, -0.000976562, -0.000976562, 0, 0.0322266, 0.325195, -9.71289, 1.25.2022 18:40:13.927
283, 1.81522, 359.566, 195.302, -0.000976562, -0.000976562, 0.000976562, 0.124023, 0.291016, -9.75391, 1.25.2022 18:40:13.935
284, 1.81524, 359.566, 195.295, -0.000976562, -0.000976562, 0.000976562, 0.0478516, 0.324219, -9.74707, 1.25.2022 18:40:13.943
285, 1.81524, 359.566, 195.295, -0.000976562, -0.000976562, 0, 0.0839844, 0.34082, -9.7373, 1.25.2022 18:40:13.951
286, 1.81524, 359.566, 195.295, -0.000976562, 0, 0, 0.113281, 0.308594, -9.70117, 1.25.2022 18:40:13.959
287, 1.81617, 359.559, 195.295, 0, 0, 0.000976562, 0.0576172, 0.349609, -9.72461, 1.25.2022 18:40:13.967
288, 1.81617, 359.559, 195.295, -0.000976562, 0, 0, 0.126953, 0.321289, -9.75, 1.25.2022 18:40:13.975
289, 1.81617, 359.559, 195.295, -0.000976562, -0.000976562, 0, 0.105469, 0.303711, -9.71777, 1.25.2022 18:40:13.983
290, 1.81617, 359.559, 195.295, -0.000976562, -0.000976562, 0, 0.0458984, 0.314453, -9.74023, 1.25.2022 18:40:13.991
291, 1.81617, 359.559, 195.295, -0.00195312, -0.000976562, 0, 0.133789, 0.311523, -9.72266, 1.25.2022 18:40:13.999
292, 1.81617, 359.559, 195.295, -0.000976562, -0.000976562, 0, 0.0820312, 0.320312, -9.69727, 1.25.2022 18:40:14.007
293, 1.8171, 359.552, 195.295, -0.000976562, -0.000976562, -0.00195312, 0.0439453, 0.31543, -9.70703, 1.25.2022 18:40:14.015
294, 1.8171, 359.552, 195.295, -0.000976562, -0.000976562, 0, 0.102539, 0.271484, -9.7373, 1.25.2022 18:40:14.023
295, 1.82402, 359.553, 195.295, 0, -0.000976562, 0, 0.0263672, 0.335938, -9.74121, 1.25.2022 18:40:14.031
296, 1.82402, 359.553, 195.295, -0.000976562, -0.000976562, 0, 0.0917969, 0.325195, -9.7168, 1.25.2022 18:40:14.039
297, 1.82402, 359.553, 195.295, 0, -0.000976562, 0, 0.0625, 0.318359, -9.70898, 1.25.2022 18:40:14.047
298, 1.82402, 359.553, 195.295, -0.000976562, -0.000976562, 0, 0.0488281, 0.334961, -9.7041, 1.25.2022 18:40:14.055
299, 1.82495, 359.546, 195.295, -0.000976562, -0.00195312, 0.000976562, 0.105469, 0.318359, -9.70996, 1.25.2022 18:40:14.063
300, 1.82495, 359.546, 195.295, -0.000976562, -0.000976562, 0, 0.0693359, 0.306641, -9.7168, 1.25.2022 18:40:14.071
301, 1.82495, 359.546, 195.295, -0.000976562, -0.000976562, 0, 0.0576172, 0.328125, -9.72754, 1.25.2022 18:40:14.079
302, 1.82495, 359.546, 195.295, -0.000976562, -0.00195312, 0.000976562, 0.0917969, 0.277344, -9.70801, 1.25.2022 18:40:14.087
303, 1.83188, 359.547, 195.295, -0.000976562, 0, 0, 0.0078125, 0.325195, -9.71094, 1.25.2022 18:40:14.095
304, 1.83188, 359.547, 195.295, -0.000976562, -0.000976562, -0.00195312, 0.0957031, 0.306641, -9.73145, 1.25.2022 18:40:14.103
305, 1.83188, 359.547, 195.295, -0.000976562, -0.000976562, -0.000976562, 0.0810547, 0.299805, -9.73633, 1.25.2022 18:40:14.111
306, 1.83188, 359.547, 195.295, -0.000976562, -0.000976562, -0.000976562, 0.0585938, 0.327148, -9.70215, 1.25.2022 18:40:14.119
307, 1.83188, 359.547, 195.295, -0.000976562, -0.000976562, -0.000976562, 0.118164, 0.291016, -9.70117, 1.25.2022 18:40:14.127
308, 1.83188, 359.547, 195.295, -0.000976562, -0.000976562, 0, 0.0507812, 0.305664, -9.70215, 1.25.2022 18:40:14.135
309, 1.83188, 359.547, 195.295, 0, -0.000976562, -0.000976562, 0.0585938, 0.31543, -9.69727, 1.25.2022 18:40:14.143
310, 1.83188, 359.547, 195.295, -0.000976562, -0.000976562, -0.000976562, 0.0791016, 0.306641, -9.72852, 1.25.2022 18:40:14.151
311, 1.83095, 359.554, 195.295, 0, 0.000976562, -0.000976562, 0.0341797, 0.339844, -9.71777, 1.25.2022 18:40:14.159
312, 1.83095, 359.554, 195.295, 0, -0.000976562, -0.000976562, 0.124023, 0.285156, -9.74609, 1.25.2022 18:40:14.167
313, 1.83095, 359.554, 195.295, 0, 0.000976562, -0.000976562, 0.100586, 0.316406, -9.7334, 1.25.2022 18:40:14.175
314, 1.83095, 359.554, 195.295, -0.000976562, -0.000976562, -0.000976562, 0.0644531, 0.342773, -9.74609, 1.25.2022 18:40:14.183
315, 1.83095, 359.554, 195.295, 0, -0.000976562, -0.00195312, 0.146484, 0.289062, -9.69043, 1.25.2022 18:40:14.191
316, 1.83095, 359.554, 195.295, 0, 0.000976562, -0.000976562, 0.0488281, 0.336914, -9.70605, 1.25.2022 18:40:14.197
317, 1.83095, 359.554, 195.295, -0.000976562, -0.000976562, -0.000976562, 0.0888672, 0.337891, -9.71582, 1.25.2022 18:40:14.205
318, 1.83188, 359.547, 195.295, -0.000976562, -0.000976562, 0, 0.0878906, 0.294922, -9.75, 1.25.2022 18:40:14.213
319, 1.83881, 359.548, 195.296, -0.000976562, 0.000976562, -0.000976562, 0.0234375, 0.34375, -9.7627, 1.25.2022 18:40:14.221
320, 1.83881, 359.548, 195.296, -0.000976562, 0.000976562, -0.00195312, 0.110352, 0.313477, -9.71289, 1.25.2022 18:40:14.229
321, 1.83881, 359.548, 195.296, -0.000976562, 0.000976562, -0.00195312, 0.0859375, 0.27832, -9.72754, 1.25.2022 18:40:14.237
322, 1.83879, 359.548, 195.303, -0.000976562, -0.000976562, -0.000976562, 0.0507812, 0.335938, -9.73438, 1.25.2022 18:40:14.245
323, 1.83879, 359.548, 195.303, -0.000976562, 0.000976562, -0.000976562, 0.124023, 0.331055, -9.75, 1.25.2022 18:40:14.253
324, 1.83879, 359.548, 195.303, 0, 0.000976562, -0.000976562, 0.0410156, 0.331055, -9.75293, 1.25.2022 18:40:14.261
325, 1.83879, 359.548, 195.303, -0.000976562, -0.000976562, -0.000976562, 0.0712891, 0.338867, -9.75879, 1.25.2022 18:40:14.269
326, 1.83879, 359.548, 195.303, -0.000976562, -0.00195312, -0.000976562, 0.103516, 0.287109, -9.71973, 1.25.2022 18:40:14.277
327, 1.83879, 359.548, 195.303, 0, -0.00195312, -0.00195312, 0.0146484, 0.316406, -9.72754, 1.25.2022 18:40:14.285
328, 1.83879, 359.548, 195.303, -0.000976562, -0.000976562, -0.000976562, 0.107422, 0.294922, -9.74414, 1.25.2022 18:40:14.293
329, 1.84572, 359.549, 195.303, -0.000976562, -0.000976562, -0.000976562, 0.0976562, 0.27832, -9.73926, 1.25.2022 18:40:14.301
330, 1.84572, 359.549, 195.303, -0.000976562, -0.000976562, -0.000976562, 0.0390625, 0.323242, -9.70117, 1.25.2022 18:40:14.309
331, 1.84572, 359.549, 195.303, -0.000976562, 0.000976562, -0.000976562, 0.136719, 0.287109, -9.72559, 1.25.2022 18:40:14.317
332, 1.84572, 359.549, 195.303, -0.000976562, -0.000976562, 0, 0.0722656, 0.325195, -9.71191, 1.25.2022 18:40:14.325
333, 1.84572, 359.549, 195.303, -0.000976562, -0.00195312, -0.000976562, 0.0458984, 0.325195, -9.70605, 1.25.2022 18:40:14.333
334, 1.84572, 359.549, 195.303, -0.000976562, -0.000976562, -0.000976562, 0.0820312, 0.296875, -9.71484, 1.25.2022 18:40:14.341
335, 1.84572, 359.549, 195.303, -0.000976562, -0.000976562, -0.000976562, 0.0273438, 0.308594, -9.71582, 1.25.2022 18:40:14.349
336, 1.84572, 359.549, 195.303, -0.000976562, -0.000976562, -0.000976562, 0.112305, 0.296875, -9.72949, 1.25.2022 18:40:14.357
337, 1.84572, 359.549, 195.303, 0, -0.000976562, 0.000976562, 0.101562, 0.293945, -9.68652, 1.25.2022 18:40:14.365
338, 1.84572, 359.549, 195.303, -0.000976562, -0.000976562, -0.000976562, 0.0400391, 0.324219, -9.66602, 1.25.2022 18:40:14.373
339, 1.84572, 359.549, 195.303, -0.000976562, -0.000976562, -0.000976562, 0.131836, 0.326172, -9.74316, 1.25.2022 18:40:14.381
340, 1.84572, 359.549, 195.303, -0.000976562, -0.000976562, -0.000976562, 0.0693359, 0.328125, -9.72754, 1.25.2022 18:40:14.389
341, 1.84572, 359.549, 195.303, -0.000976562, -0.000976562, -0.000976562, 0.0986328, 0.294922, -9.72266, 1.25.2022 18:40:14.397
342, 1.83879, 359.548, 195.303, 0, -0.000976562, -0.000976562, 0.112305, 0.301758, -9.73926, 1.25.2022 18:40:14.405
343, 1.83879, 359.548, 195.303, 0, -0.000976562, -0.000976562, 0.0322266, 0.323242, -9.71289, 1.25.2022 18:40:14.413
344, 1.83972, 359.541, 195.303, 0, -0.000976562, -0.000976562, 0.110352, 0.296875, -9.72461, 1.25.2022 18:40:14.421
345, 1.83972, 359.541, 195.303, -0.000976562, 0, 0, 0.0791016, 0.298828, -9.70996, 1.25.2022 18:40:14.429
346, 1.83972, 359.541, 195.303, -0.000976562, 0, 0, 0.0605469, 0.330078, -9.70605, 1.25.2022 18:40:14.437
347, 1.83972, 359.541, 195.303, -0.00195312, -0.000976562, -0.00195312, 0.112305, 0.298828, -9.71484, 1.25.2022 18:40:14.445
348, 1.83972, 359.541, 195.303, -0.000976562, -0.000976562, -0.000976562, 0.0292969, 0.301758, -9.73535, 1.25.2022 18:40:14.453
349, 1.83972, 359.541, 195.303, -0.000976562, -0.000976562, -0.000976562, 0.0888672, 0.306641, -9.71191, 1.25.2022 18:40:14.461
350, 1.83972, 359.541, 195.303, 0, -0.000976562, -0.000976562, 0.117188, 0.291992, -9.71777, 1.25.2022 18:40:14.469
351, 1.83972, 359.541, 195.303, -0.000976562, -0.000976562, -0.000976562, 0.0146484, 0.311523, -9.71387, 1.25.2022 18:40:14.477
352, 1.83972, 359.541, 195.303, -0.000976562, -0.000976562, -0.000976562, 0.107422, 0.292969, -9.73926, 1.25.2022 18:40:14.485
353, 1.83972, 359.541, 195.303, -0.000976562, -0.000976562, -0.000976562, 0.0722656, 0.303711, -9.71875, 1.25.2022 18:40:14.493
354, 1.83279, 359.54, 195.303, -0.000976562, 0, 0.000976562, 0.0537109, 0.324219, -9.67578, 1.25.2022 18:40:14.501
355, 1.83279, 359.54, 195.303, -0.00195312, 0, 0, 0.0976562, 0.30957, -9.73828, 1.25.2022 18:40:14.509
356, 1.83279, 359.54, 195.303, -0.000976562, -0.000976562, -0.000976562, 0.00292969, 0.319336, -9.73926, 1.25.2022 18:40:14.517
357, 1.83279, 359.54, 195.303, -0.000976562, 0, 0, 0.0888672, 0.330078, -9.70898, 1.25.2022 18:40:14.525
358, 1.83279, 359.54, 195.303, -0.000976562, 0, 0, 0.100586, 0.290039, -9.71973, 1.25.2022 18:40:14.533
359, 1.83279, 359.54, 195.303, -0.000976562, 0, 0, 0.0478516, 0.354492, -9.73633, 1.25.2022 18:40:14.541
360, 1.83279, 359.54, 195.303, 0, 0, 0, 0.0957031, 0.293945, -9.71484, 1.25.2022 18:40:14.549
361, 1.83279, 359.54, 195.303, 0, -0.000976562, -0.000976562, 0.0771484, 0.296875, -9.71973, 1.25.2022 18:40:14.557
362, 1.83279, 359.54, 195.303, -0.000976562, -0.000976562, -0.000976562, 0.0527344, 0.338867, -9.75098, 1.25.2022 18:40:14.565
363, 1.83279, 359.54, 195.303, 0, -0.000976562, -0.000976562, 0.132812, 0.31543, -9.68652, 1.25.2022 18:40:14.573
364, 1.83279, 359.54, 195.303, 0, -0.000976562, -0.000976562, 0.0576172, 0.339844, -9.72949, 1.25.2022 18:40:14.581
365, 1.83279, 359.54, 195.303, 0, -0.000976562, -0.000976562, 0.09375, 0.324219, -9.74023, 1.25.2022 18:40:14.589
366, 1.83279, 359.54, 195.303, -0.000976562, -0.000976562, -0.000976562, 0.0859375, 0.299805, -9.73828, 1.25.2022 18:40:14.597
367, 1.83279, 359.54, 195.303, -0.000976562, 0, -0.00195312, 0.0166016, 0.322266, -9.75098, 1.25.2022 18:40:14.605
368, 1.83279, 359.54, 195.303, 0, 0, 0, 0.117188, 0.306641, -9.72461, 1.25.2022 18:40:14.613
369, 1.83279, 359.54, 195.303, -0.000976562, -0.000976562, 0, 0.0839844, 0.301758, -9.73145, 1.25.2022 18:40:14.621
370, 1.83279, 359.54, 195.303, -0.000976562, -0.000976562, 0.000976562, 0.0605469, 0.310547, -9.68848, 1.25.2022 18:40:14.629
371, 1.83279, 359.54, 195.303, -0.000976562, -0.00195312, -0.00195312, 0.15332, 0.303711, -9.72559, 1.25.2022 18:40:14.637
372, 1.83279, 359.54, 195.303, 0, -0.000976562, 0, 0.0380859, 0.322266, -9.75879, 1.25.2022 18:40:14.645
373, 1.83279, 359.54, 195.303, -0.000976562, -0.000976562, 0, 0.0771484, 0.306641, -9.7334, 1.25.2022 18:40:14.653
374, 1.83279, 359.54, 195.303, -0.000976562, -0.000976562, 0, 0.0898438, 0.276367, -9.68262, 1.25.2022 18:40:14.661
375, 1.83279, 359.54, 195.303, -0.000976562, -0.00195312, -0.000976562, 0.0361328, 0.323242, -9.72754, 1.25.2022 18:40:14.669
376, 1.83186, 359.547, 195.303, -0.000976562, -0.00195312, 0.000976562, 0.102539, 0.302734, -9.74316, 1.25.2022 18:40:14.677
377, 1.83186, 359.547, 195.303, -0.000976562, -0.000976562, -0.00195312, 0.0839844, 0.303711, -9.7002, 1.25.2022 18:40:14.685
378, 1.83186, 359.547, 195.303, -0.000976562, 0, 0, 0.0458984, 0.334961, -9.69629, 1.25.2022 18:40:14.693
379, 1.83279, 359.54, 195.303, -0.000976562, -0.000976562, 0.000976562, 0.105469, 0.304688, -9.72656, 1.25.2022 18:40:14.701
380, 1.83186, 359.547, 195.303, -0.000976562, -0.000976562, 0, 0.00292969, 0.326172, -9.72461, 1.25.2022 18:40:14.709
381, 1.83879, 359.548, 195.303, -0.000976562, -0.000976562, 0.000976562, 0.103516, 0.307617, -9.68457, 1.25.2022 18:40:14.717
382, 1.83186, 359.547, 195.303, 0, -0.000976562, 0, 0.0839844, 0.313477, -9.72656, 1.25.2022 18:40:14.725
383, 1.83188, 359.547, 195.295, -0.000976562, 0, 0.000976562, 0.0576172, 0.299805, -9.73828, 1.25.2022 18:40:14.733
384, 1.83188, 359.547, 195.295, -0.000976562, -0.000976562, 0, 0.148438, 0.295898, -9.70605, 1.25.2022 18:40:14.741
385, 1.83188, 359.547, 195.295, -0.000976562, -0.000976562, 0, 0.0976562, 0.302734, -9.75977, 1.25.2022 18:40:14.749
386, 1.83188, 359.547, 195.295, -0.000976562, -0.00195312, -0.000976562, 0.0341797, 0.330078, -9.69922, 1.25.2022 18:40:14.757
387, 1.83188, 359.547, 195.295, 0, -0.000976562, 0, 0.110352, 0.301758, -9.73633, 1.25.2022 18:40:14.765
388, 1.83188, 359.547, 195.295, -0.000976562, 0, 0, 0.0371094, 0.317383, -9.68555, 1.25.2022 18:40:14.773
389, 1.83188, 359.547, 195.295, -0.000976562, -0.000976562, 0, 0.0751953, 0.325195, -9.7041, 1.25.2022 18:40:14.781
390, 1.83188, 359.547, 195.295, -0.000976562, -0.000976562, 0, 0.100586, 0.296875, -9.71777, 1.25.2022 18:40:14.789
391, 1.83188, 359.547, 195.295, 0, -0.000976562, 0, 0.0488281, 0.322266, -9.69043, 1.25.2022 18:40:14.797
392, 1.83188, 359.547, 195.295, -0.000976562, -0.000976562, 0.00195312, 0.12207, 0.300781, -9.70312, 1.25.2022 18:40:14.805
393, 1.83188, 359.547, 195.295, -0.000976562, -0.000976562, 0.000976562, 0.0488281, 0.308594, -9.69238, 1.25.2022 18:40:14.813
394, 1.83188, 359.547, 195.295, -0.000976562, -0.000976562, 0, 0.0322266, 0.323242, -9.71094, 1.25.2022 18:40:14.821
395, 1.83188, 359.547, 195.295, -0.000976562, -0.000976562, 0, 0.102539, 0.299805, -9.73145, 1.25.2022 18:40:14.829
396, 1.83188, 359.547, 195.295, -0.000976562, -0.000976562, 0, 0.00976562, 0.324219, -9.74414, 1.25.2022 18:40:14.837
397, 1.83188, 359.547, 195.295, -0.000976562, -0.00195312, -0.000976562, 0.0722656, 0.314453, -9.73535, 1.25.2022 18:40:14.845
398, 1.83188, 359.547, 195.295, -0.00195312, -0.000976562, 0, 0.0986328, 0.265625, -9.71582, 1.25.2022 18:40:14.853
399, 1.83188, 359.547, 195.295, -0.000976562, -0.000976562, 0, 0.0458984, 0.328125, -9.71777, 1.25.2022 18:40:14.861
400, 1.83188, 359.547, 195.295, 0, -0.000976562, 0, 0.100586, 0.296875, -9.72656, 1.25.2022 18:40:14.869
401, 1.83095, 359.554, 195.295, -0.00195312, 0, 0, 0.0654297, 0.323242, -9.71387, 1.25.2022 18:40:14.877
402, 1.83095, 359.554, 195.295, -0.00195312, 0, 0, 0.0507812, 0.313477, -9.7207, 1.25.2022 18:40:14.885
403, 1.83095, 359.554, 195.295, -0.00195312, 0.000976562, 0, 0.113281, 0.293945, -9.69434, 1.25.2022 18:40:14.893
404, 1.83095, 359.554, 195.295, 0, 0, -0.000976562, 0.00976562, 0.329102, -9.73926, 1.25.2022 18:40:14.901
405, 1.83095, 359.554, 195.295, 0, 0, -0.000976562, 0.101562, 0.327148, -9.68555, 1.25.2022 18:40:14.909
406, 1.83095, 359.554, 195.295, 0, 0, -0.000976562, 0.0947266, 0.324219, -9.68359, 1.25.2022 18:40:14.917
407, 1.83095, 359.554, 195.295, -0.000976562, 0, 0, 0.0292969, 0.333008, -9.71289, 1.25.2022 18:40:14.925
408, 1.83095, 359.554, 195.295, -0.000976562, 0, 0, 0.136719, 0.323242, -9.71289, 1.25.2022 18:40:14.933
409, 1.83095, 359.554, 195.295, -0.000976562, 0, -0.000976562, 0.0742188, 0.317383, -9.75, 1.25.2022 18:40:14.941
410, 1.83788, 359.555, 195.295, -0.00195312, 0, -0.000976562, 0.0537109, 0.345703, -9.67969, 1.25.2022 18:40:14.949
411, 1.83788, 359.555, 195.295, -0.000976562, 0, -0.000976562, 0.105469, 0.289062, -9.70605, 1.25.2022 18:40:14.957
412, 1.83695, 359.562, 195.295, -0.000976562, 0, -0.000976562, 0.0224609, 0.318359, -9.70898, 1.25.2022 18:40:14.965
413, 1.83695, 359.562, 195.295, -0.000976562, 0, -0.000976562, 0.0888672, 0.306641, -9.73633, 1.25.2022 18:40:14.973
414, 1.83695, 359.562, 195.295, -0.000976562, 0, -0.000976562, 0.0673828, 0.296875, -9.72363, 1.25.2022 18:40:14.981
415, 1.83695, 359.562, 195.295, 0, 0, -0.00195312, 0.0341797, 0.311523, -9.71094, 1.25.2022 18:40:14.989
416, 1.83695, 359.562, 195.295, -0.000976562, 0, -0.000976562, 0.115234, 0.299805, -9.73438, 1.25.2022 18:40:14.997
417, 1.83695, 359.562, 195.295, -0.000976562, 0, -0.000976562, 0.0625, 0.296875, -9.73145, 1.25.2022 18:40:15.005
418, 1.83695, 359.562, 195.295, -0.000976562, 0, -0.000976562, 0.0644531, 0.333008, -9.73438, 1.25.2022 18:40:15.013
419, 1.83695, 359.562, 195.295, -0.000976562, 0, -0.000976562, 0.12207, 0.280273, -9.73438, 1.25.2022 18:40:15.021
420, 1.83695, 359.562, 195.295, -0.000976562, 0, -0.00195312, 0.0244141, 0.323242, -9.72461, 1.25.2022 18:40:15.029
421, 1.83695, 359.562, 195.295, -0.000976562, -0.00195312, -0.000976562, 0.0751953, 0.325195, -9.70898, 1.25.2022 18:40:15.037
422, 1.83695, 359.562, 195.295, -0.000976562, 0, -0.00195312, 0.0908203, 0.308594, -9.71973, 1.25.2022 18:40:15.045
423, 1.83695, 359.562, 195.295, -0.000976562, 0, -0.00195312, 0.0410156, 0.316406, -9.71582, 1.25.2022 18:40:15.053
424, 1.83693, 359.562, 195.302, -0.000976562, 0, -0.000976562, 0.125, 0.297852, -9.67773, 1.25.2022 18:40:15.061
425, 1.84386, 359.563, 195.303, -0.000976562, 0, -0.000976562, 0.0625, 0.331055, -9.75098, 1.25.2022 18:40:15.069
426, 1.84386, 359.563, 195.303, -0.000976562, 0.000976562, -0.000976562, 0.0654297, 0.323242, -9.70703, 1.25.2022 18:40:15.077
427, 1.84386, 359.563, 195.303, -0.000976562, 0, -0.000976562, 0.100586, 0.291016, -9.75293, 1.25.2022 18:40:15.085
428, 1.84386, 359.563, 195.303, 0, 0, -0.000976562, 0.00195312, 0.327148, -9.7627, 1.25.2022 18:40:15.093
429, 1.83693, 359.562, 195.302, -0.000976562, 0.000976562, -0.00195312, 0.0791016, 0.313477, -9.7168, 1.25.2022 18:40:15.101
430, 1.84386, 359.563, 195.303, -0.000976562, 0.000976562, -0.00195312, 0.0742188, 0.298828, -9.71484, 1.25.2022 18:40:15.109
431, 1.84386, 359.563, 195.303, -0.000976562, 0, -0.000976562, 0.0380859, 0.314453, -9.74414, 1.25.2022 18:40:15.117
432, 1.84386, 359.563, 195.303, 0, -0.00195312, -0.000976562, 0.119141, 0.306641, -9.73926, 1.25.2022 18:40:15.125
433, 1.836, 359.569, 195.302, 0, -0.000976562, -0.00195312, 0.0458984, 0.292969, -9.74316, 1.25.2022 18:40:15.133
434, 1.836, 359.569, 195.302, 0, -0.000976562, 0, 0.0556641, 0.306641, -9.7168, 1.25.2022 18:40:15.141
435, 1.836, 359.569, 195.302, 0, -0.000976562, 0, 0.125, 0.325195, -9.71973, 1.25.2022 18:40:15.149
436, 1.836, 359.569, 195.302, -0.000976562, -0.000976562, 0, 0.0458984, 0.300781, -9.69336, 1.25.2022 18:40:15.157
437, 1.836, 359.569, 195.302, -0.000976562, -0.000976562, 0, 0.0957031, 0.318359, -9.7334, 1.25.2022 18:40:15.163
438, 1.836, 359.569, 195.302, -0.000976562, -0.000976562, 0, 0.0888672, 0.277344, -9.71777, 1.25.2022 18:40:15.171
439, 1.836, 359.569, 195.302, -0.000976562, -0.000976562, 0.000976562, 0.0244141, 0.329102, -9.74609, 1.25.2022 18:40:15.179
440, 1.836, 359.569, 195.302, -0.00195312, -0.000976562, 0, 0.133789, 0.323242, -9.72656, 1.25.2022 18:40:15.187
441, 1.836, 359.569, 195.302, -0.00195312, -0.000976562, 0, 0.0957031, 0.306641, -9.72168, 1.25.2022 18:40:15.195
442, 1.836, 359.569, 195.302, -0.000976562, -0.000976562, 0, 0.0410156, 0.350586, -9.74609, 1.25.2022 18:40:15.203
443, 1.836, 359.569, 195.302, -0.000976562, -0.000976562, 0, 0.115234, 0.294922, -9.72461, 1.25.2022 18:40:15.211
444, 1.836, 359.569, 195.302, -0.000976562, -0.000976562, 0, 0.0224609, 0.310547, -9.69434, 1.25.2022 18:40:15.219
445, 1.836, 359.569, 195.302, -0.000976562, -0.000976562, 0, 0.09375, 0.308594, -9.72656, 1.25.2022 18:40:15.227
446, 1.836, 359.569, 195.302, -0.000976562, 0.000976562, 0, 0.0888672, 0.298828, -9.70117, 1.25.2022 18:40:15.235
447, 1.836, 359.569, 195.302, -0.000976562, 0.000976562, 0, 0.0664062, 0.319336, -9.75879, 1.25.2022 18:40:15.243
448, 1.836, 359.569, 195.302, -0.000976562, -0.000976562, -0.000976562, 0.131836, 0.301758, -9.72266, 1.25.2022 18:40:15.251
449, 1.836, 359.569, 195.302, -0.00195312, -0.000976562, -0.000976562, 0.0546875, 0.304688, -9.75, 1.25.2022 18:40:15.259
450, 1.836, 359.569, 195.302, -0.000976562, -0.000976562, 0, 0.0791016, 0.302734, -9.75684, 1.25.2022 18:40:15.267
451, 1.83693, 359.562, 195.302, 0, -0.000976562, 0, 0.110352, 0.298828, -9.71484, 1.25.2022 18:40:15.275
452, 1.83693, 359.562, 195.302, -0.000976562, -0.000976562, -0.000976562, 0.0273438, 0.310547, -9.7041, 1.25.2022 18:40:15.283
453, 1.83693, 359.562, 195.302, -0.000976562, -0.000976562, 0, 0.110352, 0.305664, -9.70605, 1.25.2022 18:40:15.291
454, 1.83693, 359.562, 195.302, -0.000976562, -0.000976562, 0.000976562, 0.0888672, 0.288086, -9.73145, 1.25.2022 18:40:15.299
455, 1.83693, 359.562, 195.302, -0.000976562, -0.000976562, 0, 0.046875, 0.317383, -9.69043, 1.25.2022 18:40:15.307
456, 1.83, 359.561, 195.302, -0.000976562, -0.00195312, 0, 0.138672, 0.287109, -9.7207, 1.25.2022 18:40:15.315
457, 1.83, 359.561, 195.302, -0.000976562, -0.00195312, 0, 0.0751953, 0.289062, -9.70312, 1.25.2022 18:40:15.323
458, 1.83, 359.561, 195.302, -0.000976562, -0.00195312, 0, 0.0888672, 0.332031, -9.69727, 1.25.2022 18:40:15.331
459, 1.83, 359.561, 195.302, 0, -0.000976562, 0.000976562, 0.110352, 0.294922, -9.72266, 1.25.2022 18:40:15.339
460, 1.83093, 359.554, 195.303, -0.000976562, -0.000976562, 0, 0.0244141, 0.305664, -9.69922, 1.25.2022 18:40:15.347
461, 1.83093, 359.554, 195.303, -0.000976562, -0.000976562, 0, 0.0898438, 0.3125, -9.68848, 1.25.2022 18:40:15.355
462, 1.83093, 359.554, 195.303, -0.000976562, 0.000976562, 0, 0.0800781, 0.320312, -9.69727, 1.25.2022 18:40:15.363
463, 1.82401, 359.553, 195.303, 0, -0.000976562, 0, 0.0498047, 0.324219, -9.74707, 1.25.2022 18:40:15.371
464, 1.82401, 359.553, 195.303, -0.000976562, -0.000976562, 0.000976562, 0.102539, 0.283203, -9.72949, 1.25.2022 18:40:15.379
465, 1.82401, 359.553, 195.303, -0.000976562, -0.00195312, -0.000976562, 0.0410156, 0.291992, -9.72363, 1.25.2022 18:40:15.387
466, 1.82401, 359.553, 195.303, -0.000976562, 0, 0.000976562, 0.0878906, 0.297852, -9.75488, 1.25.2022 18:40:15.395
467, 1.82402, 359.553, 195.295, 0.000976562, 0.000976562, -0.000976562, 0.107422, 0.319336, -9.74512, 1.25.2022 18:40:15.403
468, 1.82495, 359.546, 195.295, -0.000976562, 0, -0.000976562, 0.0263672, 0.318359, -9.72266, 1.25.2022 18:40:15.411
469, 1.82495, 359.546, 195.295, -0.000976562, 0, 0.000976562, 0.0957031, 0.308594, -9.72461, 1.25.2022 18:40:15.419
470, 1.81803, 359.545, 195.295, 0.000976562, 0, 0.000976562, 0.0986328, 0.287109, -9.72949, 1.25.2022 18:40:15.427
471, 1.81803, 359.545, 195.295, 0.000976562, 0, -0.000976562, 0.0419922, 0.305664, -9.69727, 1.25.2022 18:40:15.435
472, 1.81803, 359.545, 195.295, 0.000976562, 0, -0.000976562, 0.136719, 0.280273, -9.72559, 1.25.2022 18:40:15.443
473, 1.81803, 359.545, 195.295, 0.000976562, 0, -0.000976562, 0.0576172, 0.289062, -9.70801, 1.25.2022 18:40:15.451
474, 1.81803, 359.545, 195.295, 0.000976562, 0, -0.000976562, 0.0693359, 0.306641, -9.7334, 1.25.2022 18:40:15.459
475, 1.8111, 359.544, 195.295, 0.000976562, -0.00195312, -0.000976562, 0.121094, 0.305664, -9.76758, 1.25.2022 18:40:15.467
476, 1.8111, 359.544, 195.295, -0.000976562, -0.00195312, -0.000976562, 0.0107422, 0.3125, -9.69238, 1.25.2022 18:40:15.475
477, 1.8111, 359.544, 195.295, -0.000976562, 0, -0.000976562, 0.103516, 0.303711, -9.69629, 1.25.2022 18:40:15.483
478, 1.8111, 359.544, 195.295, -0.000976562, -0.00195312, 0.000976562, 0.0839844, 0.294922, -9.72461, 1.25.2022 18:40:15.491
479, 1.8111, 359.544, 195.295, -0.000976562, 0.000976562, 0, 0.0576172, 0.350586, -9.75781, 1.25.2022 18:40:15.499
480, 1.8111, 359.544, 195.295, 0.000976562, 0, -0.000976562, 0.155273, 0.287109, -9.72559, 1.25.2022 18:40:15.507
481, 1.80417, 359.544, 195.295, 0.000976562, 0, -0.000976562, 0.0585938, 0.300781, -9.69531, 1.25.2022 18:40:15.515
482, 1.80417, 359.544, 195.295, -0.000976562, 0, -0.000976562, 0.0625, 0.334961, -9.72266, 1.25.2022 18:40:15.523
483, 1.80417, 359.544, 195.295, -0.000976562, 0, 0.000976562, 0.100586, 0.282227, -9.72266, 1.25.2022 18:40:15.531
484, 1.80417, 359.544, 195.295, -0.000976562, 0, -0.000976562, 0.0322266, 0.313477, -9.7041, 1.25.2022 18:40:15.539
485, 1.80417, 359.544, 195.295, -0.000976562, 0, -0.000976562, 0.125, 0.317383, -9.69629, 1.25.2022 18:40:15.547
486, 1.80417, 359.544, 195.295, -0.000976562, -0.00195312, -0.000976562, 0.0839844, 0.292969, -9.73438, 1.25.2022 18:40:15.555
487, 1.80417, 359.544, 195.295, 0.000976562, 0, -0.000976562, 0.0498047, 0.338867, -9.74902, 1.25.2022 18:40:15.563
488, 1.80417, 359.544, 195.295, 0.000976562, 0, -0.000976562, 0.148438, 0.279297, -9.69043, 1.25.2022 18:40:15.571
489, 1.8051, 359.537, 195.295, -0.000976562, 0, -0.000976562, 0.0507812, 0.318359, -9.71094, 1.25.2022 18:40:15.579
490, 1.8051, 359.537, 195.295, -0.000976562, 0, -0.000976562, 0.0576172, 0.328125, -9.72266, 1.25.2022 18:40:15.587
491, 1.8051, 359.537, 195.295, -0.000976562, 0.000976562, 0, 0.0869141, 0.282227, -9.71777, 1.25.2022 18:40:15.595
492, 1.8051, 359.537, 195.295, -0.00195312, 0, -0.000976562, 0.0390625, 0.332031, -9.69922, 1.25.2022 18:40:15.603
493, 1.8051, 359.537, 195.295, -0.00195312, 0, -0.000976562, 0.108398, 0.300781, -9.69824, 1.25.2022 18:40:15.611
494, 1.8051, 359.537, 195.295, -0.000976562, 0, 0.000976562, 0.0712891, 0.304688, -9.74512, 1.25.2022 18:40:15.619
495, 1.8051, 359.537, 195.295, -0.000976562, 0.000976562, 0, 0.0556641, 0.320312, -9.69922, 1.25.2022 18:40:15.627
496, 1.8051, 359.537, 195.295, 0.000976562, 0.000976562, -0.000976562, 0.117188, 0.305664, -9.70996, 1.25.2022 18:40:15.635
497, 1.8051, 359.537, 195.295, 0, -0.000976562, -0.000976562, 0.0439453, 0.311523, -9.71875, 1.25.2022 18:40:15.643
498, 1.8051, 359.537, 195.295, 0, -0.000976562, -0.000976562, 0.0615234, 0.297852, -9.67188, 1.25.2022 18:40:15.651
499, 1.8051, 359.537, 195.295, -0.000976562, -0.000976562, 0, 0.112305, 0.296875, -9.71973, 1.25.2022 18:40:15.659
500, 1.8051, 359.537, 195.295, -0.000976562, -0.000976562, -0.000976562, 0.0146484, 0.318359, -9.72266, 1.25.2022 18:40:15.667
501, 1.8051, 359.537, 195.295, -0.000976562, -0.000976562, -0.000976562, 0.124023, 0.304688, -9.75293, 1.25.2022 18:40:15.675
502, 1.8051, 359.537, 195.295, -0.000976562, -0.000976562, -0.000976562, 0.0673828, 0.310547, -9.69531, 1.25.2022 18:40:15.683
503, 1.8051, 359.537, 195.295, -0.00195312, -0.00195312, -0.000976562, 0.0527344, 0.318359, -9.71875, 1.25.2022 18:40:15.691
504, 1.8051, 359.537, 195.295, -0.000976562, -0.000976562, -0.000976562, 0.120117, 0.291992, -9.72754, 1.25.2022 18:40:15.699
505, 1.81203, 359.538, 195.295, -0.000976562, -0.000976562, -0.000976562, 0.0322266, 0.322266, -9.67578, 1.25.2022 18:40:15.707
506, 1.81203, 359.538, 195.295, -0.000976562, -0.000976562, -0.000976562, 0.0751953, 0.336914, -9.69238, 1.25.2022 18:40:15.715
507, 1.81203, 359.538, 195.295, -0.00195312, 0.000976562, -0.000976562, 0.117188, 0.294922, -9.72754, 1.25.2022 18:40:15.723
508, 1.81203, 359.538, 195.295, -0.000976562, 0.000976562, -0.000976562, 0.0390625, 0.316406, -9.71387, 1.25.2022 18:40:15.731
509, 1.81203, 359.538, 195.295, -0.000976562, -0.000976562, -0.000976562, 0.105469, 0.325195, -9.72168, 1.25.2022 18:40:15.739
510, 1.81203, 359.538, 195.295, -0.000976562, -0.000976562, -0.000976562, 0.105469, 0.325195, -9.71484, 1.25.2022 18:40:15.747
511, 1.81203, 359.538, 195.295, -0.000976562, -0.000976562, -0.000976562, 0.0322266, 0.332031, -9.69629, 1.25.2022 18:40:15.755
512, 1.81203, 359.538, 195.295, -0.000976562, -0.000976562, -0.000976562, 0.120117, 0.300781, -9.68262, 1.25.2022 18:40:15.763
513, 1.81896, 359.538, 195.296, -0.000976562, -0.000976562, -0.000976562, 0.0410156, 0.325195, -9.70117, 1.25.2022 18:40:15.771
514, 1.81896, 359.538, 195.296, -0.000976562, -0.000976562, -0.000976562, 0.0595703, 0.324219, -9.75879, 1.25.2022 18:40:15.779
515, 1.81896, 359.538, 195.296, -0.000976562, -0.000976562, -0.000976562, 0.0957031, 0.294922, -9.72656, 1.25.2022 18:40:15.787
516, 1.81896, 359.538, 195.296, -0.000976562, -0.000976562, -0.000976562, 0.0195312, 0.288086, -9.7373, 1.25.2022 18:40:15.795
517, 1.81896, 359.538, 195.296, -0.000976562, -0.000976562, -0.000976562, 0.112305, 0.318359, -9.71973, 1.25.2022 18:40:15.803
518, 1.82588, 359.539, 195.296, -0.000976562, -0.000976562, 0, 0.0791016, 0.314453, -9.73828, 1.25.2022 18:40:15.811
519, 1.82588, 359.539, 195.296, -0.000976562, -0.000976562, -0.000976562, 0.0722656, 0.318359, -9.70508, 1.25.2022 18:40:15.819
520, 1.82588, 359.539, 195.296, -0.000976562, -0.000976562, -0.000976562, 0.129883, 0.302734, -9.66602, 1.25.2022 18:40:15.827
521, 1.82588, 359.539, 195.296, -0.000976562, -0.000976562, -0.00195312, 0.0439453, 0.320312, -9.70605, 1.25.2022 18:40:15.835
522, 1.82588, 359.539, 195.296, -0.000976562, -0.000976562, -0.000976562, 0.0791016, 0.328125, -9.7373, 1.25.2022 18:40:15.843
523, 1.82588, 359.539, 195.296, 0, -0.000976562, -0.000976562, 0.102539, 0.290039, -9.73926, 1.25.2022 18:40:15.851
524, 1.82588, 359.539, 195.296, -0.000976562, 0.000976562, -0.000976562, 0.0126953, 0.333984, -9.74121, 1.25.2022 18:40:15.859
525, 1.82587, 359.54, 195.303, -0.000976562, 0.000976562, -0.000976562, 0.110352, 0.335938, -9.74219, 1.25.2022 18:40:15.867
526, 1.83279, 359.54, 195.303, -0.000976562, 0.000976562, -0.000976562, 0.0957031, 0.296875, -9.72461, 1.25.2022 18:40:15.875
527, 1.83281, 359.54, 195.296, -0.000976562, -0.000976562, 0, 0.0537109, 0.320312, -9.69531, 1.25.2022 18:40:15.883
528, 1.83281, 359.54, 195.296, 0, -0.000976562, -0.000976562, 0.131836, 0.293945, -9.69434, 1.25.2022 18:40:15.891
529, 1.83281, 359.54, 195.296, -0.00195312, -0.000976562, -0.000976562, 0.0576172, 0.311523, -9.7334, 1.25.2022 18:40:15.899
530, 1.83279, 359.54, 195.303, -0.000976562, -0.00195312, -0.00195312, 0.0869141, 0.305664, -9.69531, 1.25.2022 18:40:15.907
531, 1.83279, 359.54, 195.303, 0.000976562, -0.000976562, -0.00195312, 0.0986328, 0.305664, -9.68652, 1.25.2022 18:40:15.915
532, 1.83279, 359.54, 195.303, -0.000976562, -0.000976562, -0.000976562, 0.015625, 0.328125, -9.70312, 1.25.2022 18:40:15.923
533, 1.83279, 359.54, 195.303, -0.000976562, -0.000976562, -0.000976562, 0.117188, 0.285156, -9.7373, 1.25.2022 18:40:15.931
534, 1.83279, 359.54, 195.303, 0.000976562, -0.000976562, -0.000976562, 0.102539, 0.299805, -9.73438, 1.25.2022 18:40:15.939
535, 1.83279, 359.54, 195.303, -0.000976562, -0.000976562, -0.000976562, 0.0771484, 0.324219, -9.68555, 1.25.2022 18:40:15.947
536, 1.83279, 359.54, 195.303, -0.000976562, -0.00195312, -0.000976562, 0.131836, 0.296875, -9.71582, 1.25.2022 18:40:15.955
537, 1.83279, 359.54, 195.303, -0.000976562, -0.000976562, -0.00195312, 0.0693359, 0.301758, -9.71973, 1.25.2022 18:40:15.963
538, 1.83279, 359.54, 195.303, 0.000976562, -0.000976562, 0.000976562, 0.0556641, 0.299805, -9.71875, 1.25.2022 18:40:15.971
539, 1.83279, 359.54, 195.303, 0.000976562, -0.000976562, 0.000976562, 0.101562, 0.292969, -9.68457, 1.25.2022 18:40:15.979
540, 1.83279, 359.54, 195.303, 0, 0, -0.000976562, 0.03125, 0.314453, -9.74219, 1.25.2022 18:40:15.987
541, 1.83279, 359.54, 195.303, -0.000976562, -0.000976562, -0.000976562, 0.109375, 0.299805, -9.74609, 1.25.2022 18:40:15.995
542, 1.83279, 359.54, 195.303, -0.000976562, -0.000976562, -0.000976562, 0.0791016, 0.326172, -9.74023, 1.25.2022 18:40:16.003
543, 1.83372, 359.534, 195.303, -0.000976562, -0.000976562, -0.000976562, 0.0839844, 0.352539, -9.72754, 1.25.2022 18:40:16.011
544, 1.83372, 359.534, 195.303, -0.000976562, -0.000976562, -0.00195312, 0.135742, 0.292969, -9.73926, 1.25.2022 18:40:16.019
545, 1.83372, 359.534, 195.303, -0.00195312, 0, -0.000976562, 0.0556641, 0.316406, -9.73242, 1.25.2022 18:40:16.027
546, 1.83372, 359.534, 195.303, -0.00195312, -0.000976562, -0.000976562, 0.09375, 0.308594, -9.7168, 1.25.2022 18:40:16.035
547, 1.83372, 359.534, 195.303, -0.000976562, -0.000976562, -0.000976562, 0.103516, 0.275391, -9.71094, 1.25.2022 18:40:16.043
548, 1.8268, 359.533, 195.303, -0.000976562, -0.000976562, -0.000976562, 0.0488281, 0.287109, -9.69824, 1.25.2022 18:40:16.051
549, 1.8268, 359.533, 195.303, 0.000976562, -0.000976562, -0.000976562, 0.139648, 0.290039, -9.65918, 1.25.2022 18:40:16.059
550, 1.82773, 359.526, 195.303, -0.000976562, -0.000976562, -0.000976562, 0.0625, 0.298828, -9.7002, 1.25.2022 18:40:16.067
551, 1.82773, 359.526, 195.303, 0, -0.000976562, 0.000976562, 0.0761719, 0.297852, -9.73633, 1.25.2022 18:40:16.075
552, 1.82773, 359.526, 195.303, 0.000976562, -0.000976562, -0.000976562, 0.136719, 0.305664, -9.69629, 1.25.2022 18:40:16.083
553, 1.82773, 359.526, 195.303, 0.000976562, -0.000976562, -0.000976562, 0.0361328, 0.318359, -9.70898, 1.25.2022 18:40:16.091
554, 1.8208, 359.525, 195.303, 0.000976562, 0, -0.000976562, 0.0605469, 0.327148, -9.6875, 1.25.2022 18:40:16.099
555, 1.8208, 359.525, 195.303, -0.000976562, -0.000976562, -0.000976562, 0.0839844, 0.282227, -9.70801, 1.25.2022 18:40:16.107
556, 1.8208, 359.525, 195.303, -0.000976562, -0.000976562, -0.000976562, 0.03125, 0.285156, -9.71191, 1.25.2022 18:40:16.115
557, 1.8208, 359.525, 195.303, -0.000976562, -0.000976562, -0.000976562, 0.108398, 0.313477, -9.70312, 1.25.2022 18:40:16.123
558, 1.8208, 359.525, 195.303, -0.000976562, -0.000976562, -0.000976562, 0.0791016, 0.301758, -9.71191, 1.25.2022 18:40:16.131
559, 1.8208, 359.525, 195.303, -0.000976562, -0.00195312, -0.000976562, 0.0292969, 0.333008, -9.71973, 1.25.2022 18:40:16.139
560, 1.81387, 359.524, 195.303, -0.000976562, -0.000976562, -0.000976562, 0.112305, 0.296875, -9.72949, 1.25.2022 18:40:16.145
561, 1.81387, 359.524, 195.303, 0, -0.000976562, 0, 0.0371094, 0.349609, -9.70801, 1.25.2022 18:40:16.155
562, 1.81387, 359.524, 195.303, 0, -0.000976562, 0, 0.0761719, 0.345703, -9.74219, 1.25.2022 18:40:16.161
563, 1.81387, 359.524, 195.303, -0.000976562, 0, 0, 0.108398, 0.298828, -9.70801, 1.25.2022 18:40:16.169
564, 1.81387, 359.524, 195.303, -0.000976562, 0.000976562, 0, 0.046875, 0.327148, -9.67773, 1.25.2022 18:40:16.177
565, 1.81387, 359.524, 195.303, 0, -0.000976562, 0, 0.135742, 0.302734, -9.74609, 1.25.2022 18:40:16.185
566, 1.81387, 359.524, 195.303, 0, -0.00195312, -0.000976562, 0.0654297, 0.295898, -9.69336, 1.25.2022 18:40:16.193
567, 1.81387, 359.524, 195.303, -0.000976562, -0.00195312, -0.000976562, 0.0429688, 0.296875, -9.73047, 1.25.2022 18:40:16.201
568, 1.81387, 359.524, 195.303, -0.000976562, -0.000976562, 0.000976562, 0.126953, 0.285156, -9.7207, 1.25.2022 18:40:16.209
569, 1.81387, 359.524, 195.303, -0.000976562, 0, 0, 0.0341797, 0.313477, -9.70703, 1.25.2022 18:40:16.217
570, 1.81387, 359.524, 195.303, 0, -0.000976562, 0, 0.0751953, 0.303711, -9.70703, 1.25.2022 18:40:16.225
571, 1.81387, 359.524, 195.303, -0.000976562, 0.000976562, 0, 0.103516, 0.290039, -9.71777, 1.25.2022 18:40:16.233
572, 1.81387, 359.524, 195.303, -0.000976562, 0, 0, 0.0126953, 0.313477, -9.7041, 1.25.2022 18:40:16.241
573, 1.81294, 359.531, 195.303, -0.000976562, -0.00195312, -0.00195312, 0.120117, 0.31543, -9.70312, 1.25.2022 18:40:16.249
574, 1.81294, 359.531, 195.303, -0.000976562, -0.000976562, 0, 0.0693359, 0.296875, -9.7334, 1.25.2022 18:40:16.257
575, 1.81294, 359.531, 195.303, 0, -0.000976562, 0, 0.0693359, 0.314453, -9.73828, 1.25.2022 18:40:16.265
576, 1.81294, 359.531, 195.303, -0.000976562, -0.000976562, 0, 0.131836, 0.287109, -9.73242, 1.25.2022 18:40:16.273
577, 1.81294, 359.531, 195.303, 0, -0.000976562, 0, 0.0292969, 0.306641, -9.71875, 1.25.2022 18:40:16.281
578, 1.81294, 359.531, 195.303, -0.000976562, 0.000976562, -0.00195312, 0.0869141, 0.296875, -9.71484, 1.25.2022 18:40:16.289
579, 1.81294, 359.531, 195.303, -0.00195312, 0, 0, 0.120117, 0.293945, -9.69922, 1.25.2022 18:40:16.297
580, 1.81294, 359.531, 195.303, -0.000976562, 0, 0, 0.0078125, 0.323242, -9.72266, 1.25.2022 18:40:16.305
581, 1.81294, 359.531, 195.303, -0.000976562, -0.000976562, 0, 0.136719, 0.328125, -9.72656, 1.25.2022 18:40:16.313
582, 1.81294, 359.531, 195.303, 0, -0.000976562, 0, 0.0585938, 0.300781, -9.69531, 1.25.2022 18:40:16.321
583, 1.81294, 359.531, 195.303, 0, -0.000976562, 0, 0.0273438, 0.328125, -9.71582, 1.25.2022 18:40:16.329
584, 1.81294, 359.531, 195.303, -0.000976562, -0.000976562, 0.000976562, 0.112305, 0.306641, -9.72461, 1.25.2022 18:40:16.337
585, 1.81201, 359.538, 195.303, -0.000976562, -0.00195312, -0.000976562, 0.00292969, 0.336914, -9.70312, 1.25.2022 18:40:16.345
586, 1.81201, 359.538, 195.303, -0.000976562, 0, 0, 0.0556641, 0.31543, -9.70898, 1.25.2022 18:40:16.353
587, 1.81201, 359.538, 195.303, -0.000976562, 0, -0.00195312, 0.120117, 0.262695, -9.71191, 1.25.2022 18:40:16.361
588, 1.81201, 359.538, 195.303, -0.000976562, -0.000976562, 0.000976562, 0.0507812, 0.298828, -9.70215, 1.25.2022 18:40:16.369
589, 1.81201, 359.538, 195.303, -0.000976562, -0.00195312, -0.000976562, 0.120117, 0.303711, -9.70117, 1.25.2022 18:40:16.377
590, 1.81201, 359.538, 195.303, -0.00195312, 0.000976562, 0, 0.0673828, 0.288086, -9.72949, 1.25.2022 18:40:16.385
591, 1.81201, 359.538, 195.303, -0.000976562, -0.000976562, 0, 0.0625, 0.326172, -9.73535, 1.25.2022 18:40:16.393
592, 1.81108, 359.545, 195.303, 0, -0.000976562, 0, 0.119141, 0.275391, -9.7373, 1.25.2022 18:40:16.401
593, 1.81108, 359.545, 195.303, 0, 0, -0.000976562, 0.0361328, 0.325195, -9.70898, 1.25.2022 18:40:16.409
594, 1.81108, 359.545, 195.303, 0, 0, -0.000976562, 0.0654297, 0.342773, -9.71777, 1.25.2022 18:40:16.417
595, 1.81108, 359.545, 195.303, -0.000976562, 0, 0, 0.0888672, 0.303711, -9.70508, 1.25.2022 18:40:16.425
596, 1.81108, 359.545, 195.303, -0.000976562, 0, 0, 0.0371094, 0.323242, -9.70605, 1.25.2022 18:40:16.433
597, 1.81108, 359.545, 195.303, -0.000976562, 0, 0, 0.102539, 0.316406, -9.73828, 1.25.2022 18:40:16.441
598, 1.81108, 359.545, 195.303, -0.000976562, 0, -0.00195312, 0.0439453, 0.339844, -9.72461, 1.25.2022 18:40:16.449
599, 1.81108, 359.545, 195.303, -0.000976562, 0, 0, 0.0439453, 0.332031, -9.69629, 1.25.2022 18:40:16.457
600, 1.81015, 359.552, 195.302, -0.000976562, 0, 0, 0.126953, 0.293945, -9.71094, 1.25.2022 18:40:16.465
601, 1.81015, 359.552, 195.302, -0.000976562, 0.000976562, 0, 0.0126953, 0.318359, -9.71094, 1.25.2022 18:40:16.473
602, 1.81708, 359.552, 195.302, -0.00195312, 0, 0, 0.110352, 0.298828, -9.71777, 1.25.2022 18:40:16.481
603, 1.81708, 359.552, 195.302, 0, 0, -0.000976562, 0.113281, 0.310547, -9.70117, 1.25.2022 18:40:16.489
604, 1.81708, 359.552, 195.302, -0.000976562, 0, 0, 0.0205078, 0.332031, -9.67969, 1.25.2022 18:40:16.497
605, 1.81708, 359.552, 195.302, -0.000976562, 0, 0, 0.131836, 0.300781, -9.69629, 1.25.2022 18:40:16.505
606, 1.81708, 359.552, 195.302, -0.000976562, 0.000976562, 0, 0.0839844, 0.316406, -9.72168, 1.25.2022 18:40:16.513
607, 1.81708, 359.552, 195.302, -0.000976562, 0, 0, 0.0458984, 0.317383, -9.74902, 1.25.2022 18:40:16.521
608, 1.82401, 359.553, 195.303, -0.000976562, 0, 0, 0.109375, 0.297852, -9.75098, 1.25.2022 18:40:16.529
609, 1.82401, 359.553, 195.303, -0.00195312, 0, 0, 0.0361328, 0.311523, -9.72363, 1.25.2022 18:40:16.537
610, 1.82401, 359.553, 195.303, -0.000976562, 0, 0, 0.100586, 0.321289, -9.74707, 1.25.2022 18:40:16.545
611, 1.82401, 359.553, 195.303, -0.000976562, 0, 0, 0.0957031, 0.308594, -9.71973, 1.25.2022 18:40:16.553
612, 1.82401, 359.553, 195.303, 0, 0, -0.000976562, 0.0341797, 0.362305, -9.72852, 1.25.2022 18:40:16.561
613, 1.82401, 359.553, 195.303, -0.000976562, 0, 0, 0.117188, 0.328125, -9.72363, 1.25.2022 18:40:16.569
614, 1.82401, 359.553, 195.303, -0.000976562, -0.00195312, -0.000976562, 0.0576172, 0.331055, -9.73242, 1.25.2022 18:40:16.577
615, 1.83093, 359.554, 195.303, -0.000976562, 0, 0, 0.0888672, 0.356445, -9.72754, 1.25.2022 18:40:16.585
616, 1.83093, 359.554, 195.303, -0.000976562, 0.000976562, 0, 0.119141, 0.307617, -9.76465, 1.25.2022 18:40:16.593
617, 1.83093, 359.554, 195.303, -0.000976562, 0.000976562, 0, 0.0527344, 0.308594, -9.72363, 1.25.2022 18:40:16.601
618, 1.83093, 359.554, 195.303, -0.000976562, -0.00195312, -0.000976562, 0.0908203, 0.299805, -9.74805, 1.25.2022 18:40:16.609
619, 1.83786, 359.555, 195.303, -0.000976562, 0, 0, 0.0917969, 0.296875, -9.71289, 1.25.2022 18:40:16.617
620, 1.83786, 359.555, 195.303, -0.000976562, 0, 0, 0.0410156, 0.323242, -9.72266, 1.25.2022 18:40:16.625
621, 1.83879, 359.548, 195.303, -0.000976562, 0, -0.00195312, 0.128906, 0.307617, -9.75586, 1.25.2022 18:40:16.633
622, 1.83879, 359.548, 195.303, 0, -0.00195312, -0.00195312, 0.0673828, 0.296875, -9.72852, 1.25.2022 18:40:16.641
623, 1.83913, 359.548, 195.302, -0.000976562, 0, -0.00195312, 0.0605469, 0.330078, -9.69727, 1.25.2022 18:40:16.649
624, 1.83913, 359.548, 195.302, -0.000976562, 0, 0, 0.12207, 0.301758, -9.73633, 1.25.2022 18:40:16.657
625, 1.84606, 359.549, 195.302, -0.000976562, 0.000976562, 0, 0.0332031, 0.332031, -9.77441, 1.25.2022 18:40:16.665
626, 1.84606, 359.549, 195.302, -0.000976562, 0.000976562, -0.000976562, 0.107422, 0.3125, -9.75, 1.25.2022 18:40:16.673
627, 1.84606, 359.549, 195.302, 0.000976562, 0.000976562, 0, 0.0839844, 0.303711, -9.71973, 1.25.2022 18:40:16.681
628, 1.84698, 359.542, 195.302, -0.000976562, 0.000976562, 0, 0.0634766, 0.295898, -9.67188, 1.25.2022 18:40:16.689
629, 1.84698, 359.542, 195.302, -0.000976562, -0.000976562, 0, 0.102539, 0.283203, -9.72949, 1.25.2022 18:40:16.697
630, 1.84698, 359.542, 195.302, -0.000976562, -0.000976562, 0, 0.0693359, 0.323242, -9.72559, 1.25.2022 18:40:16.705
631, 1.84698, 359.542, 195.302, -0.000976562, -0.000976562, 0, 0.0458984, 0.325195, -9.71777, 1.25.2022 18:40:16.713
632, 1.84698, 359.542, 195.302, -0.000976562, -0.000976562, -0.000976562, 0.139648, 0.320312, -9.70117, 1.25.2022 18:40:16.721
633, 1.84698, 359.542, 195.302, 0.000976562, -0.000976562, 0, 0.0175781, 0.350586, -9.68164, 1.25.2022 18:40:16.729
634, 1.84698, 359.542, 195.302, 0.000976562, 0.000976562, -0.000976562, 0.0712891, 0.311523, -9.74512, 1.25.2022 18:40:16.737
635, 1.84698, 359.542, 195.302, -0.000976562, -0.000976562, 0, 0.0859375, 0.30957, -9.74316, 1.25.2022 18:40:16.745
636, 1.84698, 359.542, 195.302, -0.000976562, -0.000976562, -0.000976562, 0.0292969, 0.31543, -9.69434, 1.25.2022 18:40:16.753
637, 1.84698, 359.542, 195.302, -0.000976562, -0.00195312, -0.00195312, 0.108398, 0.293945, -9.71289, 1.25.2022 18:40:16.761
638, 1.84698, 359.542, 195.302, -0.000976562, -0.000976562, 0, 0.0869141, 0.310547, -9.68359, 1.25.2022 18:40:16.769
639, 1.84698, 359.542, 195.302, -0.000976562, -0.000976562, 0, 0.0771484, 0.291016, -9.69336, 1.25.2022 18:40:16.777
640, 1.84698, 359.542, 195.302, 0.000976562, 0.000976562, 0, 0.113281, 0.265625, -9.70898, 1.25.2022 18:40:16.785
641, 1.84698, 359.542, 195.302, -0.000976562, -0.000976562, 0, 0.0341797, 0.306641, -9.72754, 1.25.2022 18:40:16.793
642, 1.84698, 359.542, 195.302, -0.000976562, -0.00195312, 0, 0.0917969, 0.313477, -9.70508, 1.25.2022 18:40:16.801
643, 1.84698, 359.542, 195.302, -0.000976562, -0.000976562, 0, 0.0917969, 0.305664, -9.70312, 1.25.2022 18:40:16.809
644, 1.84698, 359.542, 195.302, -0.000976562, -0.000976562, 0, 0.0576172, 0.330078, -9.7207, 1.25.2022 18:40:16.817
645, 1.84006, 359.541, 195.302, 0.000976562, -0.000976562, 0, 0.133789, 0.299805, -9.74121, 1.25.2022 18:40:16.825
646, 1.84006, 359.541, 195.302, 0.000976562, 0.000976562, 0, 0.0576172, 0.308594, -9.71191, 1.25.2022 18:40:16.833
647, 1.84006, 359.541, 195.302, -0.000976562, 0.000976562, 0, 0.0869141, 0.333008, -9.71875, 1.25.2022 18:40:16.841
648, 1.84006, 359.541, 195.302, -0.000976562, -0.000976562, 0, 0.119141, 0.288086, -9.73438, 1.25.2022 18:40:16.849
649, 1.84006, 359.541, 195.302, -0.000976562, 0.000976562, -0.000976562, 0.0273438, 0.330078, -9.71973, 1.25.2022 18:40:16.857
650, 1.84099, 359.534, 195.302, -0.000976562, 0.000976562, 0, 0.0966797, 0.289062, -9.70605, 1.25.2022 18:40:16.865
651, 1.84099, 359.534, 195.302, -0.000976562, -0.000976562, 0, 0.0869141, 0.275391, -9.71582, 1.25.2022 18:40:16.873
652, 1.84099, 359.534, 195.302, -0.000976562, -0.000976562, 0, 0.0205078, 0.322266, -9.6709, 1.25.2022 18:40:16.881
653, 1.83406, 359.534, 195.302, -0.000976562, -0.000976562, 0, 0.102539, 0.304688, -9.74805, 1.25.2022 18:40:16.889
654, 1.83406, 359.534, 195.302, -0.000976562, 0.000976562, 0, 0.0458984, 0.298828, -9.7002, 1.25.2022 18:40:16.897
655, 1.83406, 359.534, 195.302, -0.00195312, -0.000976562, 0.000976562, 0.0507812, 0.320312, -9.69238, 1.25.2022 18:40:16.905
656, 1.83406, 359.534, 195.302, -0.000976562, 0.000976562, 0, 0.0986328, 0.285156, -9.72461, 1.25.2022 18:40:16.913
657, 1.83406, 359.534, 195.302, -0.00195312, 0, -0.000976562, 0.0146484, 0.318359, -9.71094, 1.25.2022 18:40:16.921
658, 1.83313, 359.54, 195.302, -0.000976562, -0.000976562, 0, 0.0957031, 0.317383, -9.75195, 1.25.2022 18:40:16.929
659, 1.83313, 359.54, 195.302, 0, 0, 0.000976562, 0.0722656, 0.287109, -9.70312, 1.25.2022 18:40:16.937
660, 1.83279, 359.54, 195.303, 0, -0.000976562, 0, 0.0625, 0.344727, -9.71582, 1.25.2022 18:40:16.945
661, 1.83279, 359.54, 195.303, -0.00195312, -0.00195312, 0, 0.144531, 0.302734, -9.68945, 1.25.2022 18:40:16.953
662, 1.83279, 359.54, 195.303, -0.000976562, -0.000976562, -0.000976562, 0.0771484, 0.295898, -9.69141, 1.25.2022 18:40:16.961
663, 1.82587, 359.54, 195.303, -0.000976562, -0.000976562, 0, 0.046875, 0.291016, -9.67188, 1.25.2022 18:40:16.969
664, 1.82587, 359.54, 195.303, -0.000976562, -0.00195312, 0, 0.126953, 0.297852, -9.74902, 1.25.2022 18:40:16.977
665, 1.82494, 359.546, 195.303, -0.000976562, -0.000976562, 0.000976562, 0.0166016, 0.329102, -9.73633, 1.25.2022 18:40:16.985
666, 1.82494, 359.546, 195.303, -0.000976562, -0.00195312, 0, 0.0742188, 0.321289, -9.7334, 1.25.2022 18:40:16.993
667, 1.82494, 359.546, 195.303, -0.000976562, -0.000976562, 0, 0.078125, 0.300781, -9.7666, 1.25.2022 18:40:17.001
668, 1.82494, 359.546, 195.303, -0.000976562, -0.000976562, 0, 0.0361328, 0.330078, -9.71582, 1.25.2022 18:40:17.009
669, 1.82494, 359.546, 195.303, 0, -0.00195312, 0, 0.138672, 0.318359, -9.72949, 1.25.2022 18:40:17.017
670, 1.82494, 359.546, 195.303, 0, -0.000976562, 0, 0.0439453, 0.325195, -9.70117, 1.25.2022 18:40:17.025
671, 1.82494, 359.546, 195.303, 0, 0, 0.000976562, 0.0537109, 0.327148, -9.67578, 1.25.2022 18:40:17.033
672, 1.82494, 359.546, 195.303, 0, -0.000976562, 0.000976562, 0.126953, 0.280273, -9.7373, 1.25.2022 18:40:17.041
673, 1.82494, 359.546, 195.303, -0.000976562, 0, 0, 0.0488281, 0.323242, -9.71094, 1.25.2022 18:40:17.049
674, 1.82494, 359.546, 195.303, -0.000976562, -0.000976562, 0, 0.117188, 0.328125, -9.72363, 1.25.2022 18:40:17.057
675, 1.82494, 359.546, 195.303, 0, 0, 0, 0.108398, 0.313477, -9.70312, 1.25.2022 18:40:17.065
676, 1.82494, 359.546, 195.303, 0, -0.000976562, 0, 0.0605469, 0.323242, -9.71094, 1.25.2022 18:40:17.073
677, 1.82494, 359.546, 195.303, -0.000976562, -0.000976562, 0, 0.110352, 0.275391, -9.71387, 1.25.2022 18:40:17.081
678, 1.82494, 359.546, 195.303, -0.000976562, -0.00195312, 0, 0.0458984, 0.325195, -9.7041, 1.25.2022 18:40:17.089
679, 1.82494, 359.546, 195.303, -0.000976562, -0.000976562, 0, 0.0869141, 0.303711, -9.69629, 1.25.2022 18:40:17.097
680, 1.82494, 359.546, 195.303, 0, -0.000976562, 0, 0.131836, 0.290039, -9.71777, 1.25.2022 18:40:17.105
681, 1.82494, 359.546, 195.303, 0, -0.000976562, 0, 0.0341797, 0.326172, -9.72754, 1.25.2022 18:40:17.113
682, 1.82494, 359.546, 195.303, 0, 0, 0, 0.103516, 0.320312, -9.71484, 1.25.2022 18:40:17.119
683, 1.82494, 359.546, 195.303, 0, -0.000976562, -0.000976562, 0.0869141, 0.305664, -9.70508, 1.25.2022 18:40:17.127
684, 1.82494, 359.546, 195.303, -0.000976562, -0.00195312, 0, 0.0556641, 0.351562, -9.69434, 1.25.2022 18:40:17.135
685, 1.82494, 359.546, 195.303, -0.000976562, -0.000976562, 0, 0.150391, 0.313477, -9.7207, 1.25.2022 18:40:17.143
686, 1.82494, 359.546, 195.303, 0, -0.000976562, 0, 0.0791016, 0.313477, -9.71875, 1.25.2022 18:40:17.151
687, 1.82494, 359.546, 195.303, 0, -0.000976562, 0, 0.0683594, 0.293945, -9.68359, 1.25.2022 18:40:17.159
688, 1.82494, 359.546, 195.303, -0.000976562, -0.000976562, 0, 0.0986328, 0.286133, -9.68457, 1.25.2022 18:40:17.167
689, 1.82587, 359.54, 195.303, -0.000976562, 0, -0.000976562, 0.0341797, 0.337891, -9.71777, 1.25.2022 18:40:17.175
690, 1.82587, 359.54, 195.303, -0.000976562, 0, -0.00195312, 0.100586, 0.339844, -9.72559, 1.25.2022 18:40:17.183
691, 1.82587, 359.54, 195.303, -0.000976562, 0, -0.00195312, 0.0869141, 0.289062, -9.70605, 1.25.2022 18:40:17.191
692, 1.82587, 359.54, 195.303, -0.000976562, 0, -0.000976562, 0.0419922, 0.341797, -9.70117, 1.25.2022 18:40:17.199
693, 1.83279, 359.54, 195.303, -0.000976562, -0.00195312, -0.000976562, 0.117188, 0.28418, -9.71094, 1.25.2022 18:40:17.207
694, 1.83279, 359.54, 195.303, -0.00195312, 0, -0.000976562, 0.0478516, 0.321289, -9.72559, 1.25.2022 18:40:17.215
695, 1.83279, 359.54, 195.303, -0.000976562, 0, -0.00195312, 0.0527344, 0.294922, -9.72656, 1.25.2022 18:40:17.223
696, 1.83372, 359.534, 195.303, 0, 0.000976562, -0.000976562, 0.0771484, 0.287109, -9.71973, 1.25.2022 18:40:17.231
697, 1.83372, 359.534, 195.303, -0.000976562, 0, -0.000976562, 0.000976562, 0.305664, -9.70117, 1.25.2022 18:40:17.239
698, 1.83372, 359.534, 195.303, -0.000976562, -0.00195312, -0.000976562, 0.113281, 0.291016, -9.67969, 1.25.2022 18:40:17.247
699, 1.83372, 359.534, 195.303, 0, 0, -0.00195312, 0.0888672, 0.296875, -9.70996, 1.25.2022 18:40:17.255
700, 1.83279, 359.54, 195.303, -0.00195312, 0.000976562, -0.000976562, 0.0546875, 0.311523, -9.7373, 1.25.2022 18:40:17.263
701, 1.83279, 359.54, 195.303, -0.000976562, 0, -0.00195312, 0.128906, 0.286133, -9.74902, 1.25.2022 18:40:17.271
702, 1.83279, 359.54, 195.303, -0.000976562, 0, -0.000976562, 0.0722656, 0.311523, -9.7334, 1.25.2022 18:40:17.279
703, 1.83279, 359.54, 195.303, -0.000976562, 0, -0.000976562, 0.0761719, 0.326172, -9.74219, 1.25.2022 18:40:17.287
704, 1.83279, 359.54, 195.303, 0, 0, 0.000976562, 0.109375, 0.28125, -9.77051, 1.25.2022 18:40:17.295
705, 1.83279, 359.54, 195.303, 0, 0, -0.000976562, 0.0458984, 0.316406, -9.72754, 1.25.2022 18:40:17.303
706, 1.82587, 359.54, 195.303, 0, 0, -0.000976562, 0.112305, 0.301758, -9.73438, 1.25.2022 18:40:17.311
707, 1.82587, 359.54, 195.303, 0, 0.000976562, -0.000976562, 0.09375, 0.290039, -9.73145, 1.25.2022 18:40:17.319
708, 1.82587, 359.54, 195.303, -0.000976562, 0, -0.000976562, 0.0488281, 0.31543, -9.69531, 1.25.2022 18:40:17.327
709, 1.82587, 359.54, 195.303, -0.000976562, 0.000976562, -0.000976562, 0.125, 0.28125, -9.69043, 1.25.2022 18:40:17.335
710, 1.82587, 359.54, 195.303, -0.000976562, 0, -0.000976562, 0.0507812, 0.299805, -9.73047, 1.25.2022 18:40:17.343
711, 1.8268, 359.533, 195.303, -0.000976562, 0, -0.00195312, 0.0703125, 0.325195, -9.71191, 1.25.2022 18:40:17.351
712, 1.8268, 359.533, 195.303, -0.000976562, 0, -0.00195312, 0.112305, 0.314453, -9.73633, 1.25.2022 18:40:17.359
713, 1.81987, 359.532, 195.303, -0.000976562, 0, -0.00195312, 0.0195312, 0.326172, -9.72266, 1.25.2022 18:40:17.367
714, 1.8202, 359.532, 195.302, 0, 0, -0.00195312, 0.123047, 0.327148, -9.68848, 1.25.2022 18:40:17.375
715, 1.8202, 359.532, 195.302, 0, 0, -0.000976562, 0.0751953, 0.322266, -9.69043, 1.25.2022 18:40:17.383
716, 1.8202, 359.532, 195.302, -0.000976562, 0, -0.00195312, 0.0361328, 0.324219, -9.73926, 1.25.2022 18:40:17.391
717, 1.8202, 359.532, 195.302, -0.000976562, 0, -0.000976562, 0.102539, 0.285156, -9.73438, 1.25.2022 18:40:17.399
718, 1.8202, 359.532, 195.302, -0.000976562, 0, -0.000976562, 0.0361328, 0.328125, -9.71094, 1.25.2022 18:40:17.407
719, 1.8202, 359.532, 195.302, 0, 0, -0.000976562, 0.0742188, 0.331055, -9.74219, 1.25.2022 18:40:17.415
720, 1.81927, 359.539, 195.302, -0.000976562, -0.00195312, -0.00195312, 0.0859375, 0.291016, -9.77441, 1.25.2022 18:40:17.423
721, 1.81927, 359.539, 195.302, 0, -0.000976562, 0, 0.0390625, 0.323242, -9.72266, 1.25.2022 18:40:17.431
722, 1.81927, 359.539, 195.302, -0.000976562, -0.000976562, 0, 0.100586, 0.304688, -9.73828, 1.25.2022 18:40:17.439
723, 1.81927, 359.539, 195.302, -0.000976562, -0.000976562, 0, 0.0800781, 0.303711, -9.69531, 1.25.2022 18:40:17.447
724, 1.81927, 359.539, 195.302, 0, -0.000976562, 0, 0.0507812, 0.330078, -9.7041, 1.25.2022 18:40:17.455
725, 1.81927, 359.539, 195.302, 0, -0.000976562, 0, 0.110352, 0.294922, -9.72266, 1.25.2022 18:40:17.463
726, 1.81927, 359.539, 195.302, -0.000976562, -0.000976562, 0.000976562, 0.0458984, 0.328125, -9.72949, 1.25.2022 18:40:17.471
727, 1.81927, 359.539, 195.302, -0.000976562, -0.000976562, 0, 0.0693359, 0.323242, -9.72852, 1.25.2022 18:40:17.479
728, 1.82587, 359.54, 195.303, -0.000976562, -0.000976562, 0.000976562, 0.0927734, 0.292969, -9.74316, 1.25.2022 18:40:17.487
729, 1.82587, 359.54, 195.303, 0, 0.000976562, 0.000976562, 0.0390625, 0.334961, -9.72461, 1.25.2022 18:40:17.495
730, 1.82587, 359.54, 195.303, 0, -0.000976562, 0.000976562, 0.107422, 0.30957, -9.74121, 1.25.2022 18:40:17.503
731, 1.82494, 359.546, 195.303, 0, -0.000976562, 0.000976562, 0.0625, 0.303711, -9.70996, 1.25.2022 18:40:17.511
732, 1.82494, 359.546, 195.303, 0, -0.000976562, 0, 0.0439453, 0.333008, -9.72461, 1.25.2022 18:40:17.519
733, 1.82494, 359.546, 195.303, -0.000976562, -0.000976562, 0, 0.133789, 0.275391, -9.71875, 1.25.2022 18:40:17.527
734, 1.82494, 359.546, 195.303, -0.000976562, -0.000976562, 0.000976562, 0.0292969, 0.298828, -9.70898, 1.25.2022 18:40:17.535
735, 1.82494, 359.546, 195.303, -0.000976562, 0.000976562, 0, 0.0703125, 0.318359, -9.71191, 1.25.2022 18:40:17.543
736, 1.82494, 359.546, 195.303, -0.00195312, -0.000976562, -0.000976562, 0.09375, 0.294922, -9.72266, 1.25.2022 18:40:17.551
737, 1.82494, 359.546, 195.303, -0.00195312, -0.000976562, 0, 0.0322266, 0.305664, -9.6875, 1.25.2022 18:40:17.559
738, 1.82494, 359.546, 195.303, 0, -0.000976562, 0, 0.125, 0.313477, -9.71973, 1.25.2022 18:40:17.567
739, 1.82494, 359.546, 195.303, -0.000976562, -0.000976562, 0, 0.0791016, 0.304688, -9.73633, 1.25.2022 18:40:17.575
740, 1.82494, 359.546, 195.303, -0.000976562, -0.000976562, 0, 0.0419922, 0.336914, -9.68945, 1.25.2022 18:40:17.583
741, 1.82494, 359.546, 195.303, -0.000976562, 0.000976562, 0, 0.138672, 0.290039, -9.74707, 1.25.2022 18:40:17.591
742, 1.82494, 359.546, 195.303, -0.000976562, -0.000976562, 0, 0.0605469, 0.323242, -9.71387, 1.25.2022 18:40:17.599
743, 1.82401, 359.553, 195.303, 0, -0.000976562, 0, 0.0673828, 0.318359, -9.70703, 1.25.2022 18:40:17.607
744, 1.82401, 359.553, 195.303, 0, 0.000976562, 0.000976562, 0.0869141, 0.291992, -9.70605, 1.25.2022 18:40:17.615
745, 1.82402, 359.553, 195.295, 0, -0.000976562, 0, 0.0507812, 0.359375, -9.72168, 1.25.2022 18:40:17.623
746, 1.82402, 359.553, 195.295, -0.000976562, -0.000976562, 0, 0.120117, 0.285156, -9.72266, 1.25.2022 18:40:17.631
747, 1.82402, 359.553, 195.295, -0.000976562, -0.000976562, 0, 0.108398, 0.311523, -9.7168, 1.25.2022 18:40:17.639
748, 1.82402, 359.553, 195.295, 0, -0.000976562, 0, 0.0439453, 0.333008, -9.72461, 1.25.2022 18:40:17.647
749, 1.82495, 359.546, 195.295, 0, -0.000976562, 0, 0.138672, 0.283203, -9.7373, 1.25.2022 18:40:17.655
750, 1.82495, 359.546, 195.295, 0, -0.000976562, 0, 0.0488281, 0.303711, -9.70898, 1.25.2022 18:40:17.663
751, 1.82495, 359.546, 195.295, -0.000976562, -0.000976562, 0.000976562, 0.0722656, 0.313477, -9.70703, 1.25.2022 18:40:17.671
752, 1.82495, 359.546, 195.295, 0, -0.000976562, 0, 0.0908203, 0.292969, -9.74805, 1.25.2022 18:40:17.679
753, 1.82495, 359.546, 195.295, 0, 0, -0.000976562, 0.0332031, 0.319336, -9.75098, 1.25.2022 18:40:17.687
754, 1.82495, 359.546, 195.295, 0, -0.000976562, -0.000976562, 0.0976562, 0.304688, -9.73633, 1.25.2022 18:40:17.695
755, 1.82495, 359.546, 195.295, -0.000976562, -0.000976562, -0.000976562, 0.0957031, 0.287109, -9.71094, 1.25.2022 18:40:17.703
756, 1.82495, 359.546, 195.295, -0.000976562, -0.000976562, -0.000976562, 0.0507812, 0.320312, -9.71387, 1.25.2022 18:40:17.711
757, 1.82495, 359.546, 195.295, -0.000976562, 0, -0.000976562, 0.148438, 0.280273, -9.71387, 1.25.2022 18:40:17.719
758, 1.82495, 359.546, 195.295, -0.000976562, -0.000976562, 0, 0.0273438, 0.296875, -9.71191, 1.25.2022 18:40:17.727
759, 1.82495, 359.546, 195.295, -0.000976562, 0, 0, 0.0908203, 0.318359, -9.7334, 1.25.2022 18:40:17.735
760, 1.82495, 359.546, 195.295, -0.000976562, -0.000976562, 0, 0.110352, 0.304688, -9.73633, 1.25.2022 18:40:17.743
761, 1.82495, 359.546, 195.295, 0, -0.000976562, -0.000976562, 0.0458984, 0.324219, -9.74707, 1.25.2022 18:40:17.751
762, 1.82588, 359.539, 195.296, -0.000976562, -0.000976562, -0.00195312, 0.136719, 0.300781, -9.7041, 1.25.2022 18:40:17.759
763, 1.82588, 359.539, 195.296, -0.000976562, -0.000976562, -0.000976562, 0.0332031, 0.3125, -9.74414, 1.25.2022 18:40:17.767
764, 1.82588, 359.539, 195.296, -0.000976562, -0.000976562, -0.000976562, 0.0488281, 0.318359, -9.71875, 1.25.2022 18:40:17.775
765, 1.82588, 359.539, 195.296, -0.000976562, -0.000976562, -0.00195312, 0.117188, 0.287109, -9.70898, 1.25.2022 18:40:17.783
766, 1.81896, 359.538, 195.296, 0, -0.000976562, -0.000976562, 0.0341797, 0.314453, -9.73438, 1.25.2022 18:40:17.791
767, 1.81896, 359.538, 195.296, -0.000976562, -0.000976562, -0.000976562, 0.09375, 0.325195, -9.72168, 1.25.2022 18:40:17.799
768, 1.81896, 359.538, 195.296, 0, -0.000976562, -0.00195312, 0.0986328, 0.286133, -9.69141, 1.25.2022 18:40:17.807
769, 1.81896, 359.538, 195.296, -0.000976562, 0, -0.000976562, 0.0322266, 0.310547, -9.69727, 1.25.2022 18:40:17.815
770, 1.81896, 359.538, 195.296, -0.000976562, 0, -0.000976562, 0.113281, 0.306641, -9.71289, 1.25.2022 18:40:17.823
771, 1.81896, 359.538, 195.296, -0.000976562, 0, -0.000976562, 0.0791016, 0.328125, -9.71387, 1.25.2022 18:40:17.831
772, 1.81896, 359.538, 195.296, -0.000976562, 0, 0, 0.0527344, 0.330078, -9.7207, 1.25.2022 18:40:17.839
773, 1.81896, 359.538, 195.296, -0.000976562, 0, -0.00195312, 0.128906, 0.299805, -9.72754, 1.25.2022 18:40:17.847
774, 1.81894, 359.539, 195.303, -0.00195312, -0.000976562, -0.00195312, 0.0664062, 0.307617, -9.75488, 1.25.2022 18:40:17.855
775, 1.81894, 359.539, 195.303, -0.000976562, -0.000976562, -0.000976562, 0.0957031, 0.30957, -9.75293, 1.25.2022 18:40:17.863
776, 1.81894, 359.539, 195.303, -0.000976562, -0.000976562, -0.000976562, 0.0927734, 0.283203, -9.74414, 1.25.2022 18:40:17.871
777, 1.81894, 359.539, 195.303, -0.00195312, -0.00195312, -0.000976562, 0.0371094, 0.300781, -9.67871, 1.25.2022 18:40:17.879
778, 1.81894, 359.539, 195.303, -0.000976562, -0.00195312, -0.000976562, 0.139648, 0.295898, -9.69727, 1.25.2022 18:40:17.887
779, 1.81894, 359.539, 195.303, -0.00195312, 0, 0, 0.0439453, 0.299805, -9.71875, 1.25.2022 18:40:17.895
780, 1.81894, 359.539, 195.303, -0.000976562, 0, -0.000976562, 0.0654297, 0.324219, -9.67871, 1.25.2022 18:40:17.903
781, 1.81987, 359.532, 195.303, -0.000976562, 0, -0.000976562, 0.133789, 0.301758, -9.72266, 1.25.2022 18:40:17.911
782, 1.81987, 359.532, 195.303, 0, 0, -0.000976562, 0.0507812, 0.323242, -9.71875, 1.25.2022 18:40:17.919
783, 1.81987, 359.532, 195.303, -0.00195312, 0, -0.000976562, 0.0859375, 0.30957, -9.74316, 1.25.2022 18:40:17.927
784, 1.81987, 359.532, 195.303, -0.000976562, 0, -0.000976562, 0.110352, 0.289062, -9.71582, 1.25.2022 18:40:17.935
785, 1.81987, 359.532, 195.303, 0.000976562, -0.000976562, -0.000976562, 0.0166016, 0.329102, -9.74121, 1.25.2022 18:40:17.943
786, 1.81987, 359.532, 195.303, -0.000976562, -0.000976562, -0.000976562, 0.103516, 0.31543, -9.68652, 1.25.2022 18:40:17.951
787, 1.81987, 359.532, 195.303, -0.000976562, 0, 0, 0.0654297, 0.31543, -9.70508, 1.25.2022 18:40:17.959
788, 1.81987, 359.532, 195.303, -0.00195312, -0.000976562, 0, 0.0439453, 0.313477, -9.70703, 1.25.2022 18:40:17.967
789, 1.81987, 359.532, 195.303, -0.000976562, -0.000976562, -0.000976562, 0.136719, 0.311523, -9.71973, 1.25.2022 18:40:17.975
790, 1.81987, 359.532, 195.303, -0.000976562, -0.000976562, -0.00195312, 0.0546875, 0.3125, -9.75195, 1.25.2022 18:40:17.983
791, 1.81987, 359.532, 195.303, 0.000976562, -0.000976562, -0.000976562, 0.0556641, 0.306641, -9.7168, 1.25.2022 18:40:17.991
792, 1.81987, 359.532, 195.303, -0.000976562, -0.000976562, -0.000976562, 0.128906, 0.283203, -9.73535, 1.25.2022 18:40:17.999
793, 1.81987, 359.532, 195.303, -0.00195312, -0.000976562, 0, 0.0361328, 0.337891, -9.73438, 1.25.2022 18:40:18.007
794, 1.81987, 359.532, 195.303, -0.00195312, -0.000976562, 0, 0.131836, 0.31543, -9.70801, 1.25.2022 18:40:18.015
795, 1.81987, 359.532, 195.303, -0.000976562, -0.000976562, -0.000976562, 0.0917969, 0.289062, -9.70801, 1.25.2022 18:40:18.023
796, 1.81987, 359.532, 195.303, -0.00195312, -0.000976562, 0, 0.0673828, 0.323242, -9.7207, 1.25.2022 18:40:18.031
797, 1.81987, 359.532, 195.303, -0.000976562, -0.000976562, -0.000976562, 0.138672, 0.294922, -9.74902, 1.25.2022 18:40:18.039
798, 1.81987, 359.532, 195.303, -0.00195312, -0.000976562, 0.000976562, 0.0332031, 0.331055, -9.74121, 1.25.2022 18:40:18.047
799, 1.81987, 359.532, 195.303, -0.00195312, -0.000976562, 0, 0.0898438, 0.305664, -9.68848, 1.25.2022 18:40:18.055
800, 1.81987, 359.532, 195.303, -0.000976562, -0.000976562, -0.000976562, 0.110352, 0.301758, -9.71289, 1.25.2022 18:40:18.063
801, 1.8268, 359.533, 195.303, -0.00195312, -0.000976562, 0, 0.0224609, 0.324219, -9.68262, 1.25.2022 18:40:18.071
802, 1.8268, 359.533, 195.303, -0.000976562, -0.000976562, 0.000976562, 0.117188, 0.291992, -9.71289, 1.25.2022 18:40:18.077
803, 1.82773, 359.526, 195.303, -0.000976562, -0.000976562, -0.000976562, 0.0839844, 0.285156, -9.72461, 1.25.2022 18:40:18.085
804, 1.82773, 359.526, 195.303, 0, 0, -0.00195312, 0.0605469, 0.310547, -9.69531, 1.25.2022 18:40:18.093
805, 1.8208, 359.525, 195.303, -0.000976562, -0.000976562, -0.000976562, 0.105469, 0.293945, -9.71484, 1.25.2022 18:40:18.101
806, 1.8208, 359.525, 195.303, -0.000976562, -0.000976562, -0.00195312, 0.0078125, 0.313477, -9.71094, 1.25.2022 18:40:18.109
807, 1.8208, 359.525, 195.303, -0.000976562, -0.000976562, -0.00195312, 0.0859375, 0.331055, -9.73535, 1.25.2022 18:40:18.117
808, 1.8208, 359.525, 195.303, 0.000976562, -0.000976562, 0.000976562, 0.0927734, 0.286133, -9.75977, 1.25.2022 18:40:18.125
809, 1.8208, 359.525, 195.303, -0.000976562, -0.000976562, 0.000976562, 0.015625, 0.341797, -9.69629, 1.25.2022 18:40:18.133
810, 1.8208, 359.525, 195.303, -0.000976562, 0, 0, 0.148438, 0.286133, -9.69238, 1.25.2022 18:40:18.141
811, 1.8208, 359.525, 195.303, -0.000976562, -0.000976562, -0.000976562, 0.0527344, 0.290039, -9.73535, 1.25.2022 18:40:18.149
812, 1.81987, 359.532, 195.303, 0.000976562, -0.000976562, -0.000976562, 0.0292969, 0.310547, -9.7041, 1.25.2022 18:40:18.157
813, 1.81987, 359.532, 195.303, -0.000976562, -0.000976562, -0.000976562, 0.117188, 0.293945, -9.70801, 1.25.2022 18:40:18.165
814, 1.81987, 359.532, 195.303, -0.000976562, 0, 0, 0.0195312, 0.319336, -9.73438, 1.25.2022 18:40:18.173
815, 1.81987, 359.532, 195.303, -0.000976562, 0, 0, 0.0595703, 0.280273, -9.72949, 1.25.2022 18:40:18.181
816, 1.81987, 359.532, 195.303, -0.000976562, -0.000976562, -0.000976562, 0.101562, 0.279297, -9.6875, 1.25.2022 18:40:18.189
817, 1.81987, 359.532, 195.303, 0, -0.000976562, -0.000976562, 0.0195312, 0.318359, -9.70898, 1.25.2022 18:40:18.197
818, 1.81987, 359.532, 195.303, 0.000976562, -0.000976562, 0.000976562, 0.12207, 0.313477, -9.72949, 1.25.2022 18:40:18.205
819, 1.81894, 359.539, 195.303, 0, -0.000976562, -0.000976562, 0.0869141, 0.317383, -9.68555, 1.25.2022 18:40:18.213
820, 1.81201, 359.538, 195.303, 0, -0.000976562, -0.000976562, 0.0634766, 0.332031, -9.69043, 1.25.2022 18:40:18.221
821, 1.81201, 359.538, 195.303, 0.000976562, 0, 0, 0.129883, 0.301758, -9.71777, 1.25.2022 18:40:18.229
822, 1.81201, 359.538, 195.303, 0.000976562, -0.000976562, -0.000976562, 0.0507812, 0.323242, -9.73535, 1.25.2022 18:40:18.237
823, 1.81201, 359.538, 195.303, 0, -0.00195312, -0.000976562, 0.0771484, 0.330078, -9.70898, 1.25.2022 18:40:18.245
824, 1.81201, 359.538, 195.303, 0, -0.00195312, 0.000976562, 0.0644531, 0.280273, -9.72461, 1.25.2022 18:40:18.253
825, 1.81108, 359.545, 195.303, 0, -0.000976562, -0.000976562, 0.0214844, 0.321289, -9.7373, 1.25.2022 18:40:18.261
826, 1.81108, 359.545, 195.303, 0.000976562, -0.000976562, -0.000976562, 0.115234, 0.290039, -9.71777, 1.25.2022 18:40:18.269
827, 1.81108, 359.545, 195.303, 0, -0.000976562, -0.000976562, 0.0742188, 0.299805, -9.72656, 1.25.2022 18:40:18.277
828, 1.81108, 359.545, 195.303, 0.000976562, 0, 0, 0.0585938, 0.31543, -9.68359, 1.25.2022 18:40:18.285
829, 1.81108, 359.545, 195.303, 0.000976562, -0.000976562, 0.000976562, 0.108398, 0.291992, -9.70605, 1.25.2022 18:40:18.293
830, 1.8111, 359.544, 195.295, 0.000976562, -0.000976562, 0.000976562, 0.0507812, 0.313477, -9.71191, 1.25.2022 18:40:18.301
831, 1.8111, 359.544, 195.295, 0, -0.000976562, -0.000976562, 0.110352, 0.304688, -9.73438, 1.25.2022 18:40:18.309
832, 1.8111, 359.544, 195.295, 0, -0.000976562, -0.000976562, 0.119141, 0.319336, -9.74512, 1.25.2022 18:40:18.317
833, 1.8111, 359.544, 195.295, 0, -0.000976562, -0.00195312, 0.046875, 0.329102, -9.66602, 1.25.2022 18:40:18.325
834, 1.81108, 359.545, 195.303, 0.000976562, -0.000976562, -0.000976562, 0.112305, 0.311523, -9.72168, 1.25.2022 18:40:18.333
835, 1.81108, 359.545, 195.303, 0, 0, 0, 0.0722656, 0.316406, -9.72363, 1.25.2022 18:40:18.341
836, 1.81108, 359.545, 195.303, 0, -0.000976562, -0.000976562, 0.0703125, 0.34375, -9.68066, 1.25.2022 18:40:18.349
837, 1.81108, 359.545, 195.303, 0, -0.000976562, -0.000976562, 0.155273, 0.313477, -9.72949, 1.25.2022 18:40:18.357
838, 1.81108, 359.545, 195.303, 0, -0.000976562, -0.000976562, 0.0458984, 0.303711, -9.70703, 1.25.2022 18:40:18.365
839, 1.81108, 359.545, 195.303, 0, 0, 0, 0.0791016, 0.311523, -9.71875, 1.25.2022 18:40:18.373
840, 1.81108, 359.545, 195.303, 0.000976562, -0.000976562, -0.000976562, 0.105469, 0.289062, -9.71582, 1.25.2022 18:40:18.381
841, 1.8111, 359.544, 195.295, 0, -0.00195312, 0.000976562, 0.0605469, 0.332031, -9.69922, 1.25.2022 18:40:18.389
842, 1.8111, 359.544, 195.295, 0, -0.00195312, 0.000976562, 0.158203, 0.298828, -9.69434, 1.25.2022 18:40:18.397
843, 1.8111, 359.544, 195.295, 0, -0.000976562, -0.000976562, 0.0703125, 0.308594, -9.70508, 1.25.2022 18:40:18.405
844, 1.81203, 359.538, 195.295, 0, -0.000976562, 0.000976562, 0.0654297, 0.31543, -9.69531, 1.25.2022 18:40:18.413
845, 1.81203, 359.538, 195.295, 0, -0.000976562, -0.000976562, 0.110352, 0.303711, -9.71484, 1.25.2022 18:40:18.421
846, 1.81203, 359.538, 195.295, 0.000976562, -0.000976562, -0.000976562, -0.000976562, 0.327148, -9.69629, 1.25.2022 18:40:18.429
847, 1.81896, 359.538, 195.296, 0, -0.000976562, -0.000976562, 0.0771484, 0.319336, -9.73535, 1.25.2022 18:40:18.437
848, 1.81896, 359.538, 195.296, 0, -0.000976562, -0.000976562, 0.110352, 0.290039, -9.72754, 1.25.2022 18:40:18.445
849, 1.81896, 359.538, 195.296, -0.000976562, 0, -0.00195312, 0.0527344, 0.326172, -9.74902, 1.25.2022 18:40:18.453
850, 1.81989, 359.532, 195.296, 0, 0.000976562, -0.000976562, 0.138672, 0.276367, -9.74707, 1.25.2022 18:40:18.461
851, 1.81989, 359.532, 195.296, -0.000976562, 0, -0.000976562, 0.0498047, 0.302734, -9.75195, 1.25.2022 18:40:18.469
852, 1.81989, 359.532, 195.296, 0, 0, -0.000976562, 0.0761719, 0.332031, -9.76367, 1.25.2022 18:40:18.477
853, 1.81989, 359.532, 195.296, 0, 0, -0.000976562, 0.141602, 0.305664, -9.69238, 1.25.2022 18:40:18.485
854, 1.81989, 359.532, 195.296, 0, 0.000976562, -0.000976562, 0.0195312, 0.339844, -9.72656, 1.25.2022 18:40:18.493
855, 1.81989, 359.532, 195.296, -0.000976562, 0.000976562, -0.000976562, 0.0917969, 0.308594, -9.71484, 1.25.2022 18:40:18.501
856, 1.82082, 359.525, 195.296, -0.000976562, 0.000976562, -0.000976562, 0.0722656, 0.300781, -9.69336, 1.25.2022 18:40:18.509
857, 1.82082, 359.525, 195.296, -0.000976562, 0, -0.000976562, 0.0341797, 0.306641, -9.71582, 1.25.2022 18:40:18.517
858, 1.82082, 359.525, 195.296, -0.000976562, 0, -0.000976562, 0.143555, 0.265625, -9.73047, 1.25.2022 18:40:18.525
859, 1.82082, 359.525, 195.296, -0.000976562, 0, -0.000976562, 0.0791016, 0.303711, -9.70801, 1.25.2022 18:40:18.533
860, 1.82082, 359.525, 195.296, -0.000976562, -0.00195312, -0.000976562, 0.0625, 0.318359, -9.72559, 1.25.2022 18:40:18.541
861, 1.82082, 359.525, 195.296, 0, 0, -0.000976562, 0.09375, 0.294922, -9.71973, 1.25.2022 18:40:18.549
862, 1.8208, 359.525, 195.303, 0, 0, -0.000976562, 0.0625, 0.31543, -9.70898, 1.25.2022 18:40:18.557
863, 1.82082, 359.525, 195.296, -0.000976562, -0.000976562, 0, 0.0908203, 0.328125, -9.71875, 1.25.2022 18:40:18.565
864, 1.82082, 359.525, 195.296, -0.00195312, 0, -0.000976562, 0.0888672, 0.303711, -9.71289, 1.25.2022 18:40:18.573
865, 1.82082, 359.525, 195.296, -0.00195312, 0, -0.000976562, 0.0410156, 0.334961, -9.70605, 1.25.2022 18:40:18.581
866, 1.82082, 359.525, 195.296, -0.000976562, 0, -0.000976562, 0.112305, 0.292969, -9.75293, 1.25.2022 18:40:18.589
867, 1.82082, 359.525, 195.296, -0.000976562, 0.000976562, -0.000976562, 0.0595703, 0.307617, -9.75195, 1.25.2022 18:40:18.597
868, 1.82082, 359.525, 195.296, 0, -0.00195312, -0.000976562, 0.0478516, 0.333008, -9.72754, 1.25.2022 18:40:18.605
869, 1.8208, 359.525, 195.303, 0, 0.000976562, -0.000976562, 0.107422, 0.274414, -9.75586, 1.25.2022 18:40:18.613
870, 1.8208, 359.525, 195.303, -0.000976562, 0, -0.000976562, 0.0527344, 0.317383, -9.74902, 1.25.2022 18:40:18.621
871, 1.8208, 359.525, 195.303, -0.000976562, 0, -0.000976562, 0.105469, 0.313477, -9.70508, 1.25.2022 18:40:18.629
872, 1.8208, 359.525, 195.303, -0.00195312, 0.000976562, -0.000976562, 0.104492, 0.307617, -9.75977, 1.25.2022 18:40:18.637
873, 1.8208, 359.525, 195.303, -0.000976562, 0.000976562, 0, 0.0429688, 0.302734, -9.76367, 1.25.2022 18:40:18.645
874, 1.82082, 359.525, 195.296, -0.000976562, -0.000976562, 0, 0.146484, 0.301758, -9.71387, 1.25.2022 18:40:18.653
875, 1.82082, 359.525, 195.296, -0.000976562, 0.000976562, -0.000976562, 0.0722656, 0.320312, -9.7002, 1.25.2022 18:40:18.661
876, 1.82082, 359.525, 195.296, -0.000976562, 0, -0.000976562, 0.0488281, 0.323242, -9.71875, 1.25.2022 18:40:18.669
877, 1.82082, 359.525, 195.296, -0.000976562, 0, -0.000976562, 0.117188, 0.292969, -9.74609, 1.25.2022 18:40:18.677
878, 1.82082, 359.525, 195.296, -0.000976562, 0, -0.000976562, 0.0439453, 0.326172, -9.72266, 1.25.2022 18:40:18.685
879, 1.82082, 359.525, 195.296, -0.000976562, 0, -0.000976562, 0.0791016, 0.300781, -9.70508, 1.25.2022 18:40:18.693
880, 1.82082, 359.525, 195.296, -0.000976562, 0, -0.000976562, 0.0830078, 0.294922, -9.66504, 1.25.2022 18:40:18.701
881, 1.82082, 359.525, 195.296, -0.000976562, -0.00195312, -0.000976562, 0.0244141, 0.350586, -9.74121, 1.25.2022 18:40:18.709
882, 1.82082, 359.525, 195.296, 0, -0.000976562, -0.000976562, 0.148438, 0.289062, -9.71094, 1.25.2022 18:40:18.717
883, 1.8208, 359.525, 195.303, 0, -0.000976562, -0.000976562, 0.0556641, 0.305664, -9.70703, 1.25.2022 18:40:18.725
884, 1.8208, 359.525, 195.303, 0, -0.000976562, -0.000976562, 0.09375, 0.308594, -9.71973, 1.25.2022 18:40:18.733
885, 1.8208, 359.525, 195.303, -0.000976562, -0.000976562, -0.000976562, 0.135742, 0.30957, -9.73926, 1.25.2022 18:40:18.741
886, 1.8208, 359.525, 195.303, -0.000976562, -0.000976562, -0.000976562, 0.0205078, 0.34668, -9.70312, 1.25.2022 18:40:18.749
887, 1.8208, 359.525, 195.303, -0.000976562, -0.000976562, -0.00195312, 0.0986328, 0.308594, -9.70508, 1.25.2022 18:40:18.757
888, 1.8208, 359.525, 195.303, -0.000976562, -0.000976562, -0.000976562, 0.0605469, 0.300781, -9.68164, 1.25.2022 18:40:18.765
889, 1.8208, 359.525, 195.303, -0.000976562, -0.000976562, -0.000976562, 0.0527344, 0.326172, -9.72559, 1.25.2022 18:40:18.773
890, 1.8208, 359.525, 195.303, -0.000976562, -0.000976562, -0.000976562, 0.136719, 0.276367, -9.69238, 1.25.2022 18:40:18.781
891, 1.8208, 359.525, 195.303, -0.000976562, -0.000976562, -0.000976562, 0.0576172, 0.280273, -9.71289, 1.25.2022 18:40:18.789
892, 1.8208, 359.525, 195.303, -0.000976562, -0.000976562, -0.000976562, 0.0585938, 0.310547, -9.70508, 1.25.2022 18:40:18.797
893, 1.8208, 359.525, 195.303, -0.000976562, -0.000976562, -0.000976562, 0.103516, 0.296875, -9.70605, 1.25.2022 18:40:18.805
894, 1.8208, 359.525, 195.303, 0, -0.000976562, 0, 0.0361328, 0.339844, -9.71777, 1.25.2022 18:40:18.813
895, 1.8208, 359.525, 195.303, 0, -0.000976562, -0.000976562, 0.0976562, 0.317383, -9.75488, 1.25.2022 18:40:18.821
896, 1.8208, 359.525, 195.303, -0.000976562, -0.000976562, -0.000976562, 0.0771484, 0.310547, -9.70703, 1.25.2022 18:40:18.829
897, 1.8208, 359.525, 195.303, -0.000976562, 0, -0.000976562, 0.0458984, 0.30957, -9.74023, 1.25.2022 18:40:18.837
898, 1.8208, 359.525, 195.303, 0, 0, -0.000976562, 0.12207, 0.316406, -9.74316, 1.25.2022 18:40:18.845
899, 1.8208, 359.525, 195.303, -0.000976562, 0, 0.000976562, 0.0556641, 0.275391, -9.71484, 1.25.2022 18:40:18.853
900, 1.8208, 359.525, 195.303, -0.000976562, 0, -0.000976562, 0.0859375, 0.313477, -9.72852, 1.25.2022 18:40:18.861
901, 1.8208, 359.525, 195.303, -0.000976562, -0.000976562, 0, 0.119141, 0.291992, -9.73242, 1.25.2022 18:40:18.869
902, 1.8208, 359.525, 195.303, -0.000976562, -0.000976562, -0.000976562, 0.0205078, 0.332031, -9.69434, 1.25.2022 18:40:18.877
903, 1.81987, 359.532, 195.303, -0.000976562, -0.000976562, -0.000976562, 0.108398, 0.307617, -9.69141, 1.25.2022 18:40:18.885
904, 1.81987, 359.532, 195.303, -0.00195312, 0, -0.00195312, 0.0986328, 0.31543, -9.70508, 1.25.2022 18:40:18.893
905, 1.81987, 359.532, 195.303, -0.000976562, 0, -0.00195312, 0.0507812, 0.319336, -9.74219, 1.25.2022 18:40:18.901
906, 1.81987, 359.532, 195.303, -0.000976562, -0.000976562, -0.000976562, 0.120117, 0.265625, -9.72559, 1.25.2022 18:40:18.909
907, 1.8208, 359.525, 195.303, -0.00195312, 0, -0.000976562, 0.0595703, 0.326172, -9.74414, 1.25.2022 18:40:18.917
908, 1.8208, 359.525, 195.303, 0, -0.000976562, -0.000976562, 0.0683594, 0.319336, -9.67383, 1.25.2022 18:40:18.925
909, 1.81987, 359.532, 195.303, 0, -0.00195312, -0.000976562, 0.0966797, 0.307617, -9.69336, 1.25.2022 18:40:18.933
910, 1.81987, 359.532, 195.303, -0.000976562, -0.000976562, -0.000976562, 0.00878906, 0.293945, -9.68262, 1.25.2022 18:40:18.941
911, 1.81987, 359.532, 195.303, -0.000976562, -0.000976562, 0, 0.113281, 0.334961, -9.70703, 1.25.2022 18:40:18.949
912, 1.81987, 359.532, 195.303, -0.000976562, -0.000976562, -0.000976562, 0.0820312, 0.289062, -9.71289, 1.25.2022 18:40:18.957
913, 1.81987, 359.532, 195.303, -0.000976562, 0, -0.000976562, 0.0273438, 0.3125, -9.66602, 1.25.2022 18:40:18.965
914, 1.81987, 359.532, 195.303, -0.000976562, -0.000976562, -0.000976562, 0.138672, 0.290039, -9.72559, 1.25.2022 18:40:18.971
915, 1.81987, 359.532, 195.303, -0.000976562, -0.000976562, 0.000976562, 0.0361328, 0.323242, -9.72754, 1.25.2022 18:40:18.981
916, 1.81987, 359.532, 195.303, -0.000976562, -0.000976562, -0.000976562, 0.0654297, 0.307617, -9.68359, 1.25.2022 18:40:18.989
917, 1.81987, 359.532, 195.303, 0, -0.000976562, -0.000976562, 0.101562, 0.300781, -9.69629, 1.25.2022 18:40:18.997
918, 1.81987, 359.532, 195.303, 0, -0.000976562, -0.000976562, 0.0361328, 0.304688, -9.72852, 1.25.2022 18:40:19.005
919, 1.81987, 359.532, 195.303, 0, 0, -0.000976562, 0.0986328, 0.316406, -9.7334, 1.25.2022 18:40:19.013
920, 1.81987, 359.532, 195.303, -0.000976562, -0.000976562, -0.000976562, 0.0986328, 0.293945, -9.71094, 1.25.2022 18:40:19.021
921, 1.81894, 359.539, 195.303, -0.000976562, -0.000976562, -0.000976562, 0.0537109, 0.341797, -9.70801, 1.25.2022 18:40:19.029
922, 1.81894, 359.539, 195.303, -0.000976562, -0.00195312, -0.000976562, 0.144531, 0.293945, -9.69434, 1.25.2022 18:40:19.037
923, 1.81894, 359.539, 195.303, 0, -0.00195312, 0, 0.03125, 0.321289, -9.72266, 1.25.2022 18:40:19.045
924, 1.81894, 359.539, 195.303, -0.000976562, -0.000976562, -0.000976562, 0.0800781, 0.332031, -9.68555, 1.25.2022 18:40:19.051
925, 1.81894, 359.539, 195.303, -0.000976562, -0.000976562, -0.000976562, 0.110352, 0.291992, -9.70801, 1.25.2022 18:40:19.059
926, 1.81894, 359.539, 195.303, -0.000976562, -0.000976562, -0.000976562, 0.0292969, 0.347656, -9.7334, 1.25.2022 18:40:19.067
927, 1.81894, 359.539, 195.303, 0, -0.000976562, -0.000976562, 0.108398, 0.323242, -9.70996, 1.25.2022 18:40:19.075
928, 1.81894, 359.539, 195.303, 0, -0.000976562, -0.000976562, 0.0839844, 0.299805, -9.72656, 1.25.2022 18:40:19.083
929, 1.81894, 359.539, 195.303, -0.000976562, -0.00195312, -0.000976562, 0.0458984, 0.323242, -9.72754, 1.25.2022 18:40:19.091
930, 1.81894, 359.539, 195.303, -0.000976562, -0.000976562, 0.000976562, 0.15332, 0.296875, -9.73926, 1.25.2022 18:40:19.099
931, 1.81894, 359.539, 195.303, -0.000976562, 0, 0, 0.0673828, 0.321289, -9.73047, 1.25.2022 18:40:19.107
932, 1.82588, 359.539, 195.296, -0.00195312, -0.000976562, 0.000976562, 0.0673828, 0.325195, -9.69531, 1.25.2022 18:40:19.115
933, 1.82588, 359.539, 195.296, -0.000976562, -0.000976562, -0.000976562, 0.125, 0.296875, -9.7207, 1.25.2022 18:40:19.123
934, 1.82588, 359.539, 195.296, -0.000976562, 0, 0.000976562, 0.0244141, 0.318359, -9.71777, 1.25.2022 18:40:19.131
935, 1.82588, 359.539, 195.296, -0.000976562, -0.00195312, 0.000976562, 0.113281, 0.28125, -9.67578, 1.25.2022 18:40:19.139
936, 1.82588, 359.539, 195.296, 0, -0.000976562, -0.000976562, 0.0761719, 0.271484, -9.73438, 1.25.2022 18:40:19.147
937, 1.82588, 359.539, 195.296, 0, -0.000976562, -0.000976562, 0.0390625, 0.332031, -9.67969, 1.25.2022 18:40:19.155
938, 1.82588, 359.539, 195.296, -0.000976562, -0.000976562, -0.000976562, 0.128906, 0.282227, -9.71875, 1.25.2022 18:40:19.163
939, 1.82588, 359.539, 195.296, -0.000976562, -0.000976562, -0.000976562, 0.0527344, 0.327148, -9.75879, 1.25.2022 18:40:19.171
940, 1.82588, 359.539, 195.296, 0, 0, -0.000976562, 0.0498047, 0.325195, -9.79395, 1.25.2022 18:40:19.179
941, 1.82588, 359.539, 195.296, -0.000976562, -0.000976562, -0.000976562, 0.0927734, 0.291016, -9.75098, 1.25.2022 18:40:19.187
942, 1.82588, 359.539, 195.296, -0.000976562, -0.000976562, -0.000976562, 0.0429688, 0.304688, -9.72559, 1.25.2022 18:40:19.195
943, 1.82588, 359.539, 195.296, -0.000976562, 0, 0, 0.116211, 0.319336, -9.67676, 1.25.2022 18:40:19.203
944, 1.82588, 359.539, 195.296, -0.000976562, 0, -0.00195312, 0.0693359, 0.294922, -9.74805, 1.25.2022 18:40:19.211
945, 1.82588, 359.539, 195.296, -0.000976562, -0.000976562, -0.000976562, 0.0605469, 0.320312, -9.69922, 1.25.2022 18:40:19.219
946, 1.82588, 359.539, 195.296, -0.000976562, -0.000976562, -0.000976562, 0.113281, 0.289062, -9.70117, 1.25.2022 18:40:19.227
947, 1.82588, 359.539, 195.296, -0.000976562, -0.000976562, -0.00195312, 0.0605469, 0.310547, -9.70215, 1.25.2022 18:40:19.235
948, 1.82587, 359.54, 195.303, -0.000976562, -0.000976562, -0.000976562, 0.0957031, 0.30957, -9.73145, 1.25.2022 18:40:19.243
949, 1.82587, 359.54, 195.303, -0.000976562, -0.000976562, -0.000976562, 0.100586, 0.311523, -9.7334, 1.25.2022 18:40:19.251
950, 1.82587, 359.54, 195.303, 0, -0.000976562, -0.000976562, 0.0205078, 0.330078, -9.70117, 1.25.2022 18:40:19.259
951, 1.82587, 359.54, 195.303, 0, 0.000976562, -0.000976562, 0.100586, 0.314453, -9.73828, 1.25.2022 18:40:19.267
952, 1.81894, 359.539, 195.303, -0.000976562, 0.000976562, -0.000976562, 0.110352, 0.298828, -9.69824, 1.25.2022 18:40:19.275
953, 1.81894, 359.539, 195.303, -0.000976562, -0.000976562, -0.000976562, 0.0576172, 0.326172, -9.74414, 1.25.2022 18:40:19.283
954, 1.81987, 359.532, 195.303, -0.000976562, -0.000976562, -0.000976562, 0.134766, 0.289062, -9.7041, 1.25.2022 18:40:19.291
955, 1.81987, 359.532, 195.303, -0.000976562, -0.000976562, -0.000976562, 0.0537109, 0.328125, -9.71094, 1.25.2022 18:40:19.299
956, 1.8268, 359.533, 195.303, -0.000976562, -0.000976562, -0.000976562, 0.0791016, 0.347656, -9.72949, 1.25.2022 18:40:19.307
957, 1.8268, 359.533, 195.303, 0, 0.000976562, -0.000976562, 0.103516, 0.308594, -9.71289, 1.25.2022 18:40:19.315
958, 1.8268, 359.533, 195.303, 0, -0.000976562, -0.00195312, 0.03125, 0.30957, -9.73242, 1.25.2022 18:40:19.323
959, 1.8268, 359.533, 195.303, -0.00195312, -0.000976562, -0.00195312, 0.0947266, 0.288086, -9.66113, 1.25.2022 18:40:19.331
960, 1.8268, 359.533, 195.303, -0.000976562, -0.000976562, -0.000976562, 0.0478516, 0.268555, -9.71777, 1.25.2022 18:40:19.339
961, 1.8268, 359.533, 195.303, 0, -0.000976562, -0.000976562, 0.0458984, 0.313477, -9.7041, 1.25.2022 18:40:19.347
962, 1.8268, 359.533, 195.303, -0.000976562, -0.000976562, -0.000976562, 0.125, 0.277344, -9.69922, 1.25.2022 18:40:19.355
963, 1.8268, 359.533, 195.303, -0.000976562, -0.000976562, -0.000976562, 0.0322266, 0.327148, -9.69434, 1.25.2022 18:40:19.363
964, 1.8268, 359.533, 195.303, -0.00195312, -0.000976562, -0.000976562, 0.0654297, 0.322266, -9.69238, 1.25.2022 18:40:19.371
965, 1.8268, 359.533, 195.303, -0.000976562, 0.000976562, -0.000976562, 0.123047, 0.28418, -9.68945, 1.25.2022 18:40:19.379
966, 1.8268, 359.533, 195.303, -0.000976562, -0.000976562, -0.000976562, 0.03125, 0.311523, -9.7373, 1.25.2022 18:40:19.387
967, 1.8268, 359.533, 195.303, -0.000976562, -0.000976562, -0.000976562, 0.0966797, 0.3125, -9.69531, 1.25.2022 18:40:19.395
968, 1.8268, 359.533, 195.303, -0.000976562, -0.000976562, -0.000976562, 0.0869141, 0.289062, -9.71289, 1.25.2022 18:40:19.403
969, 1.82587, 359.54, 195.303, -0.000976562, -0.000976562, -0.000976562, 0.0419922, 0.318359, -9.69922, 1.25.2022 18:40:19.411
970, 1.81894, 359.539, 195.303, -0.000976562, -0.000976562, -0.000976562, 0.126953, 0.268555, -9.72852, 1.25.2022 18:40:19.419
971, 1.81894, 359.539, 195.303, -0.000976562, -0.000976562, -0.00195312, 0.0527344, 0.311523, -9.71875, 1.25.2022 18:40:19.427
972, 1.81894, 359.539, 195.303, -0.000976562, -0.00195312, -0.00195312, 0.0869141, 0.317383, -9.69336, 1.25.2022 18:40:19.435
973, 1.81894, 359.539, 195.303, -0.000976562, 0.000976562, -0.000976562, 0.113281, 0.291016, -9.6875, 1.25.2022 18:40:19.443
974, 1.81894, 359.539, 195.303, 0, 0.000976562, -0.000976562, 0.0341797, 0.342773, -9.73145, 1.25.2022 18:40:19.451
975, 1.81894, 359.539, 195.303, -0.00195312, -0.000976562, -0.000976562, 0.131836, 0.330078, -9.72852, 1.25.2022 18:40:19.459
976, 1.81894, 359.539, 195.303, -0.00195312, -0.000976562, -0.000976562, 0.0654297, 0.305664, -9.70703, 1.25.2022 18:40:19.467
977, 1.81894, 359.539, 195.303, -0.000976562, -0.000976562, 0.000976562, 0.0390625, 0.322266, -9.68066, 1.25.2022 18:40:19.475
978, 1.81894, 359.539, 195.303, -0.000976562, -0.000976562, 0, 0.138672, 0.298828, -9.71094, 1.25.2022 18:40:19.483
979, 1.81894, 359.539, 195.303, -0.000976562, -0.000976562, 0.000976562, 0.0517578, 0.3125, -9.68359, 1.25.2022 18:40:19.491
980, 1.81894, 359.539, 195.303, -0.000976562, -0.000976562, 0, 0.0693359, 0.304688, -9.74023, 1.25.2022 18:40:19.499
981, 1.81894, 359.539, 195.303, -0.000976562, -0.000976562, 0, 0.125, 0.320312, -9.70508, 1.25.2022 18:40:19.507
982, 1.81894, 359.539, 195.303, -0.000976562, -0.000976562, 0, 0.0371094, 0.325195, -9.69922, 1.25.2022 18:40:19.515
983, 1.81894, 359.539, 195.303, -0.000976562, -0.000976562, 0, 0.113281, 0.305664, -9.68164, 1.25.2022 18:40:19.523
984, 1.81894, 359.539, 195.303, -0.000976562, 0, 0, 0.0810547, 0.304688, -9.72852, 1.25.2022 18:40:19.531
985, 1.81894, 359.539, 195.303, 0.000976562, -0.000976562, 0, 0.0556641, 0.337891, -9.72559, 1.25.2022 18:40:19.539
986, 1.81894, 359.539, 195.303, -0.000976562, -0.00195312, 0, 0.114258, 0.329102, -9.75977, 1.25.2022 18:40:19.547
987, 1.81894, 359.539, 195.303, -0.000976562, -0.000976562, 0, 0.0546875, 0.333984, -9.74902, 1.25.2022 18:40:19.555
988, 1.81894, 359.539, 195.303, -0.000976562, -0.000976562, 0.000976562, 0.0859375, 0.317383, -9.75488, 1.25.2022 18:40:19.563
989, 1.82587, 359.54, 195.303, -0.000976562, 0, 0.000976562, 0.116211, 0.3125, -9.77637, 1.25.2022 18:40:19.571
990, 1.8268, 359.533, 195.303, -0.000976562, -0.000976562, 0, 0.0332031, 0.311523, -9.73926, 1.25.2022 18:40:19.579
991, 1.8268, 359.533, 195.303, 0, -0.000976562, -0.000976562, 0.128906, 0.288086, -9.74902, 1.25.2022 18:40:19.587
992, 1.8268, 359.533, 195.303, 0.000976562, -0.000976562, -0.000976562, 0.0810547, 0.300781, -9.75977, 1.25.2022 18:40:19.595
993, 1.8268, 359.533, 195.303, -0.000976562, -0.000976562, 0, 0.0478516, 0.328125, -9.7207, 1.25.2022 18:40:19.603
994, 1.8268, 359.533, 195.303, 0.000976562, -0.000976562, 0, 0.124023, 0.306641, -9.74121, 1.25.2022 18:40:19.611
995, 1.8268, 359.533, 195.303, -0.000976562, -0.000976562, 0, 0.0458984, 0.328125, -9.73438, 1.25.2022 18:40:19.619
996, 1.8268, 359.533, 195.303, -0.000976562, -0.000976562, 0, 0.0625, 0.318359, -9.7207, 1.25.2022 18:40:19.627
997, 1.8268, 359.533, 195.303, -0.000976562, -0.000976562, 0.000976562, 0.0986328, 0.293945, -9.69629, 1.25.2022 18:40:19.635
998, 1.8268, 359.533, 195.303, -0.00195312, -0.000976562, 0.000976562, 0.0244141, 0.320312, -9.71094, 1.25.2022 18:40:19.643
999, 1.8268, 359.533, 195.303, -0.000976562, -0.000976562, 0.000976562, 0.136719, 0.31543, -9.70312, 1.25.2022 18:40:19.651
1000, 1.83372, 359.534, 195.303, -0.000976562, 0, 0, 0.0878906, 0.302734, -9.75488, 1.25.2022 18:40:19.659
1001, 1.83372, 359.534, 195.303, 0, -0.000976562, -0.000976562, 0.0556641, 0.314453, -9.73535, 1.25.2022 18:40:19.667
1002, 1.83372, 359.534, 195.303, -0.000976562, -0.000976562, 0, 0.108398, 0.291992, -9.71582, 1.25.2022 18:40:19.675
1003, 1.83372, 359.534, 195.303, -0.000976562, -0.000976562, 0, 0.0380859, 0.321289, -9.74609, 1.25.2022 18:40:19.683
1004, 1.83372, 359.534, 195.303, 0.000976562, -0.000976562, 0, 0.0820312, 0.306641, -9.7168, 1.25.2022 18:40:19.691
1005, 1.83372, 359.534, 195.303, 0.000976562, 0, 0, 0.100586, 0.303711, -9.71484, 1.25.2022 18:40:19.699
1006, 1.83372, 359.534, 195.303, 0.000976562, -0.000976562, 0, 0.0410156, 0.328125, -9.71582, 1.25.2022 18:40:19.707
1007, 1.83372, 359.534, 195.303, -0.00195312, -0.000976562, 0, 0.117188, 0.298828, -9.71777, 1.25.2022 18:40:19.715
1008, 1.83372, 359.534, 195.303, -0.000976562, -0.000976562, 0, 0.0566406, 0.295898, -9.76367, 1.25.2022 18:40:19.723
1009, 1.83372, 359.534, 195.303, -0.000976562, -0.000976562, -0.000976562, 0.0537109, 0.31543, -9.7041, 1.25.2022 18:40:19.731
1010, 1.83372, 359.534, 195.303, -0.000976562, 0, -0.000976562, 0.126953, 0.282227, -9.7207, 1.25.2022 18:40:19.739
1011, 1.83372, 359.534, 195.303, -0.000976562, -0.000976562, -0.000976562, 0.0361328, 0.306641, -9.7373, 1.25.2022 18:40:19.747
1012, 1.83372, 359.534, 195.303, -0.000976562, 0, -0.000976562, 0.0917969, 0.320312, -9.70215, 1.25.2022 18:40:19.755
1013, 1.83372, 359.534, 195.303, -0.000976562, 0, -0.000976562, 0.0820312, 0.28418, -9.70801, 1.25.2022 18:40:19.763
1014, 1.83372, 359.534, 195.303, -0.000976562, -0.000976562, -0.000976562, 0.0224609, 0.327148, -9.69141, 1.25.2022 18:40:19.771
1015, 1.83372, 359.534, 195.303, -0.000976562, 0, -0.000976562, 0.0986328, 0.313477, -9.7168, 1.25.2022 18:40:19.779
1016, 1.8268, 359.533, 195.303, -0.000976562, -0.000976562, -0.000976562, 0.0683594, 0.289062, -9.68164, 1.25.2022 18:40:19.787
1017, 1.8268, 359.533, 195.303, -0.000976562, -0.000976562, -0.000976562, 0.0576172, 0.333984, -9.74609, 1.25.2022 18:40:19.795
1018, 1.8268, 359.533, 195.303, -0.000976562, -0.000976562, 0, 0.126953, 0.290039, -9.74219, 1.25.2022 18:40:19.803
1019, 1.8268, 359.533, 195.303, -0.000976562, -0.000976562, -0.000976562, 0.03125, 0.314453, -9.7373, 1.25.2022 18:40:19.811
1020, 1.8268, 359.533, 195.303, -0.000976562, -0.000976562, -0.000976562, 0.0888672, 0.306641, -9.7334, 1.25.2022 18:40:19.819
1021, 1.8268, 359.533, 195.303, 0, -0.000976562, -0.000976562, 0.0986328, 0.28125, -9.67969, 1.25.2022 18:40:19.827
1022, 1.8268, 359.533, 195.303, -0.000976562, -0.000976562, -0.000976562, 0.0439453, 0.318359, -9.7207, 1.25.2022 18:40:19.835
1023, 1.82587, 359.54, 195.303, -0.000976562, -0.000976562, -0.000976562, 0.129883, 0.322266, -9.70117, 1.25.2022 18:40:19.843
1024, 1.82587, 359.54, 195.303, -0.000976562, -0.000976562, 0, 0.0634766, 0.302734, -9.67188, 1.25.2022 18:40:19.851
1025, 1.82587, 359.54, 195.303, -0.000976562, -0.000976562, -0.000976562, 0.0703125, 0.325195, -9.70215, 1.25.2022 18:40:19.859
1026, 1.82587, 359.54, 195.303, -0.000976562, -0.000976562, -0.000976562, 0.110352, 0.291016, -9.69922, 1.25.2022 18:40:19.867
1027, 1.82587, 359.54, 195.303, -0.000976562, -0.000976562, -0.000976562, 0.0341797, 0.334961, -9.70117, 1.25.2022 18:40:19.875
1028, 1.82587, 359.54, 195.303, -0.000976562, 0.000976562, -0.00195312, 0.0742188, 0.318359, -9.72363, 1.25.2022 18:40:19.883
1029, 1.82587, 359.54, 195.303, -0.000976562, -0.000976562, -0.00195312, 0.101562, 0.292969, -9.68262, 1.25.2022 18:40:19.891
1030, 1.82587, 359.54, 195.303, -0.000976562, -0.000976562, -0.00195312, 0.0458984, 0.330078, -9.70605, 1.25.2022 18:40:19.899
