Seq, Rot x, Rot y, Rot z, Vel x, Vel y, Vel z, Acc x, Acc y, Acc z, Time(m.d.y h:m:s.ms)
0, 1.85369, 359.916, 88.1735, -0.00292969, 0.00195312, 0, 0.0126953, 0.313477, -9.71289, 1.19.2022 19:52:18.741
1, 1.85369, 359.916, 88.1735, -0.00292969, 0.00195312, 0, 0.0556641, 0.291992, -9.72363, 1.19.2022 19:52:18.749
2, 1.85369, 359.916, 88.1735, -0.00292969, 0.000976562, 0, -0.0078125, 0.332031, -9.77832, 1.19.2022 19:52:18.757
3, 1.85369, 359.916, 88.1735, -0.00292969, 0.000976562, 0.000976562, 0.0810547, 0.329102, -9.76074, 1.19.2022 19:52:18.765
4, 1.85855, 359.911, 88.1735, -0.00292969, 0, 0.000976562, 0.0576172, 0.311523, -9.71191, 1.19.2022 19:52:18.773
5, 1.85855, 359.911, 88.1735, -0.00292969, 0.000976562, 0.000976562, 0.0332031, 0.324219, -9.74121, 1.19.2022 19:52:18.781
6, 1.85878, 359.911, 88.1734, -0.00390625, 0.00195312, 0.000976562, 0.0908203, 0.283203, -9.73438, 1.19.2022 19:52:18.789
7, 1.85878, 359.911, 88.1734, -0.00292969, 0.00195312, 0, -0.00292969, 0.305664, -9.7793, 1.19.2022 19:52:18.797
8, 1.85878, 359.911, 88.1734, -0.00292969, 0.000976562, 0.000976562, 0.0439453, 0.308594, -9.71875, 1.19.2022 19:52:18.805
9, 1.86365, 359.906, 88.1734, -0.00292969, 0.00195312, 0.000976562, 0.0478516, 0.316406, -9.73926, 1.19.2022 19:52:18.813
10, 1.86365, 359.906, 88.1734, -0.00390625, 0.000976562, 0.000976562, 0.00292969, 0.333008, -9.72168, 1.19.2022 19:52:18.821
11, 1.86365, 359.906, 88.1734, -0.00390625, 0.000976562, 0, 0.09375, 0.301758, -9.71484, 1.19.2022 19:52:18.829
12, 1.86365, 359.906, 88.1734, -0.00292969, 0.000976562, 0, 0.0117188, 0.300781, -9.76562, 1.19.2022 19:52:18.837
13, 1.87353, 359.906, 88.1732, -0.00292969, 0.000976562, 0.000976562, 0.0263672, 0.331055, -9.72266, 1.19.2022 19:52:18.845
14, 1.87353, 359.906, 88.1732, -0.00390625, 0, 0.000976562, 0.0917969, 0.308594, -9.7002, 1.19.2022 19:52:18.853
15, 1.87353, 359.906, 88.1732, -0.00292969, 0, 0.000976562, 0.0341797, 0.328125, -9.7207, 1.19.2022 19:52:18.861
16, 1.87353, 359.906, 88.1732, -0.00292969, 0.00195312, 0, 0.107422, 0.301758, -9.73633, 1.19.2022 19:52:18.869
17, 1.87353, 359.906, 88.1732, -0.00390625, 0.000976562, 0.000976562, 0.0507812, 0.310547, -9.70898, 1.19.2022 19:52:18.877
18, 1.8784, 359.901, 88.1732, -0.00292969, 0, 0, 0.0146484, 0.333008, -9.71777, 1.19.2022 19:52:18.885
19, 1.87814, 359.901, 88.1633, -0.00292969, 0.000976562, 0.000976562, 0.0839844, 0.311523, -9.71484, 1.19.2022 19:52:18.893
20, 1.87814, 359.901, 88.1633, -0.00390625, 0.00195312, 0, 0.0224609, 0.321289, -9.71777, 1.19.2022 19:52:18.901
21, 1.87814, 359.901, 88.1633, -0.00390625, 0.000976562, 0.000976562, 0.0742188, 0.323242, -9.71387, 1.19.2022 19:52:18.909
22, 1.88301, 359.896, 88.1633, -0.00390625, 0.000976562, 0.000976562, 0.0351562, 0.289062, -9.76855, 1.19.2022 19:52:18.917
23, 1.88301, 359.896, 88.1633, -0.00292969, 0.000976562, 0, -0.00390625, 0.330078, -9.71484, 1.19.2022 19:52:18.925
24, 1.88301, 359.896, 88.1633, -0.00390625, 0.00195312, 0.000976562, 0.0800781, 0.305664, -9.69336, 1.19.2022 19:52:18.933
25, 1.88301, 359.896, 88.1633, -0.00390625, 0.000976562, 0, 0.0595703, 0.314453, -9.73535, 1.19.2022 19:52:18.941
26, 1.88787, 359.891, 88.1633, -0.00292969, 0.000976562, 0.000976562, 0.0410156, 0.350586, -9.75098, 1.19.2022 19:52:18.949
27, 1.88787, 359.891, 88.1633, -0.00292969, 0.000976562, 0, 0.0458984, 0.314453, -9.73535, 1.19.2022 19:52:18.957
28, 1.8881, 359.89, 88.1632, -0.00292969, 0.000976562, 0, 0.00585938, 0.308594, -9.71582, 1.19.2022 19:52:18.965
29, 1.8881, 359.89, 88.1632, -0.00390625, 0.000976562, 0.00195312, 0.0693359, 0.297852, -9.74316, 1.19.2022 19:52:18.973
30, 1.89313, 359.895, 88.163, -0.00292969, 0.00195312, 0.00195312, 0.0380859, 0.307617, -9.74902, 1.19.2022 19:52:18.981
31, 1.8614, 359.767, 88.1654, 0, -0.000976562, 0, 0.0166016, 0.329102, -9.74121, 1.19.2022 19:52:18.989
32, 1.8559, 359.733, 88.166, 0, -0.000976562, 0, 0.117188, 0.296875, -9.72949, 1.19.2022 19:52:18.997
33, 1.8559, 359.733, 88.166, 0, -0.000976562, 0, 0.0078125, 0.355469, -9.74023, 1.19.2022 19:52:19.005
34, 1.8559, 359.733, 88.166, 0, -0.00195312, -0.000976562, 0.0263672, 0.30957, -9.75391, 1.19.2022 19:52:19.013
35, 1.8559, 359.733, 88.166, 0.000976562, -0.00195312, -0.000976562, 0.0556641, 0.318359, -9.71191, 1.19.2022 19:52:19.021
36, 1.8559, 359.733, 88.166, -0.000976562, -0.00195312, 0, -0.00390625, 0.330078, -9.70508, 1.19.2022 19:52:19.029
37, 1.8559, 359.733, 88.166, 0, -0.000976562, -0.000976562, 0.0791016, 0.313477, -9.72168, 1.19.2022 19:52:19.037
38, 1.8559, 359.733, 88.166, -0.000976562, -0.000976562, 0, 0.0214844, 0.324219, -9.75098, 1.19.2022 19:52:19.045
39, 1.8559, 359.733, 88.166, 0, -0.000976562, -0.000976562, 0.0166016, 0.321289, -9.74121, 1.19.2022 19:52:19.053
40, 1.8559, 359.733, 88.166, -0.000976562, 0, -0.000976562, 0.0908203, 0.297852, -9.73828, 1.19.2022 19:52:19.061
41, 1.8559, 359.733, 88.166, 0, -0.000976562, 0, -0.00878906, 0.310547, -9.6875, 1.19.2022 19:52:19.069
42, 1.8559, 359.733, 88.166, 0, -0.000976562, 0, 0.0771484, 0.313477, -9.72656, 1.19.2022 19:52:19.077
43, 1.8559, 359.733, 88.166, 0, -0.000976562, -0.000976562, 0.0595703, 0.313477, -9.78027, 1.19.2022 19:52:19.085
44, 1.8559, 359.733, 88.166, -0.000976562, -0.000976562, -0.000976562, 0.0458984, 0.333008, -9.7207, 1.19.2022 19:52:19.093
45, 1.8559, 359.733, 88.166, 0, -0.000976562, -0.000976562, 0.0722656, 0.285156, -9.73438, 1.19.2022 19:52:19.101
46, 1.8559, 359.733, 88.166, 0, -0.000976562, 0, 0.00488281, 0.328125, -9.73145, 1.19.2022 19:52:19.109
47, 1.8559, 359.733, 88.166, -0.000976562, -0.000976562, -0.000976562, 0.0292969, 0.334961, -9.69434, 1.19.2022 19:52:19.117
48, 1.8559, 359.733, 88.166, 0, -0.000976562, -0.000976562, 0.0439453, 0.320312, -9.69922, 1.19.2022 19:52:19.125
49, 1.86092, 359.738, 88.1658, -0.000976562, 0, 0, -0.0136719, 0.319336, -9.74609, 1.19.2022 19:52:19.133
50, 1.86092, 359.738, 88.1658, 0, 0, -0.000976562, 0.0742188, 0.306641, -9.72656, 1.19.2022 19:52:19.141
51, 1.86092, 359.738, 88.1658, -0.000976562, -0.000976562, 0, 0.0625, 0.324219, -9.75195, 1.19.2022 19:52:19.149
52, 1.86092, 359.738, 88.1658, -0.000976562, -0.000976562, 0, 0.0244141, 0.321289, -9.73438, 1.19.2022 19:52:19.157
53, 1.86092, 359.738, 88.1658, -0.000976562, 0, -0.000976562, 0.0917969, 0.298828, -9.68945, 1.19.2022 19:52:19.165
54, 1.86092, 359.738, 88.1658, 0, 0, -0.000976562, 0.000976562, 0.31543, -9.70117, 1.19.2022 19:52:19.173
55, 1.86092, 359.738, 88.1658, -0.000976562, 0, 0, 0.0751953, 0.314453, -9.67871, 1.19.2022 19:52:19.181
56, 1.86092, 359.738, 88.1658, 0, -0.000976562, 0, 0.0576172, 0.306641, -9.71191, 1.19.2022 19:52:19.189
57, 1.86092, 359.738, 88.1658, 0, -0.000976562, -0.000976562, -0.00878906, 0.306641, -9.71094, 1.19.2022 19:52:19.197
58, 1.86092, 359.738, 88.1658, 0, -0.000976562, -0.000976562, 0.0742188, 0.299805, -9.7334, 1.19.2022 19:52:19.205
59, 1.86092, 359.738, 88.1658, -0.000976562, -0.000976562, -0.000976562, 0.0361328, 0.311523, -9.74219, 1.19.2022 19:52:19.213
60, 1.86092, 359.738, 88.1658, 0, -0.000976562, -0.000976562, 0.03125, 0.31543, -9.7627, 1.19.2022 19:52:19.219
61, 1.86092, 359.738, 88.1658, 0, -0.000976562, 0, 0.0820312, 0.321289, -9.72852, 1.19.2022 19:52:19.227
62, 1.86092, 359.738, 88.1658, 0, -0.000976562, 0, 0.000976562, 0.333008, -9.70996, 1.19.2022 19:52:19.235
63, 1.86092, 359.738, 88.1658, 0, -0.000976562, 0, 0.0507812, 0.328125, -9.71582, 1.19.2022 19:52:19.245
64, 1.86092, 359.738, 88.1658, 0, -0.000976562, 0, 0.0244141, 0.311523, -9.72266, 1.19.2022 19:52:19.251
65, 1.86092, 359.738, 88.1658, 0, 0, -0.000976562, 0.0195312, 0.311523, -9.7373, 1.19.2022 19:52:19.259
66, 1.86092, 359.738, 88.1658, -0.000976562, -0.000976562, 0, 0.0839844, 0.292969, -9.75, 1.19.2022 19:52:19.267
67, 1.86092, 359.738, 88.1658, 0, -0.00195312, -0.000976562, 0.00976562, 0.314453, -9.73438, 1.19.2022 19:52:19.275
68, 1.86092, 359.738, 88.1658, -0.000976562, -0.000976562, -0.000976562, 0.0410156, 0.34668, -9.71777, 1.19.2022 19:52:19.283
69, 1.86092, 359.738, 88.1658, 0, -0.000976562, -0.000976562, 0.0585938, 0.329102, -9.66211, 1.19.2022 19:52:19.291
70, 1.86092, 359.738, 88.1658, 0, 0, 0, -0.00195312, 0.337891, -9.72852, 1.19.2022 19:52:19.299
71, 1.86092, 359.738, 88.1658, 0, -0.00195312, 0, 0.0742188, 0.301758, -9.7334, 1.19.2022 19:52:19.307
72, 1.86595, 359.742, 88.1657, -0.000976562, -0.000976562, 0, 0.0488281, 0.333008, -9.71582, 1.19.2022 19:52:19.315
73, 1.86595, 359.742, 88.1657, 0, -0.000976562, 0, 0.0361328, 0.342773, -9.72949, 1.19.2022 19:52:19.323
74, 1.86595, 359.742, 88.1657, 0, -0.000976562, -0.000976562, 0.0644531, 0.285156, -9.74121, 1.19.2022 19:52:19.331
75, 1.86595, 359.742, 88.1657, -0.000976562, -0.000976562, -0.000976562, 0, 0.319336, -9.74121, 1.19.2022 19:52:19.339
76, 1.86595, 359.742, 88.1657, -0.000976562, -0.000976562, -0.000976562, 0.0478516, 0.318359, -9.72754, 1.19.2022 19:52:19.347
77, 1.86595, 359.742, 88.1657, 0.000976562, -0.000976562, 0, 0.0449219, 0.3125, -9.75879, 1.19.2022 19:52:19.355
78, 1.86595, 359.742, 88.1657, 0.000976562, -0.000976562, -0.000976562, 0.0390625, 0.322266, -9.68945, 1.19.2022 19:52:19.363
79, 1.86595, 359.742, 88.1657, 0, -0.000976562, 0, 0.0888672, 0.316406, -9.72168, 1.19.2022 19:52:19.371
80, 1.86595, 359.742, 88.1657, -0.000976562, -0.000976562, 0, 0.0322266, 0.320312, -9.7041, 1.19.2022 19:52:19.379
81, 1.86595, 359.742, 88.1657, -0.000976562, -0.000976562, 0, 0.0498047, 0.317383, -9.74902, 1.19.2022 19:52:19.387
82, 1.86595, 359.742, 88.1657, -0.000976562, -0.000976562, 0, 0.0664062, 0.302734, -9.75195, 1.19.2022 19:52:19.395
83, 1.86595, 359.742, 88.1657, 0, 0, 0, 0.0078125, 0.321289, -9.72949, 1.19.2022 19:52:19.403
84, 1.86595, 359.742, 88.1657, 0, 0, -0.000976562, 0.0820312, 0.287109, -9.70996, 1.19.2022 19:52:19.411
85, 1.86595, 359.742, 88.1657, -0.000976562, -0.000976562, -0.00195312, 0.0380859, 0.292969, -9.75488, 1.19.2022 19:52:19.419
86, 1.86595, 359.742, 88.1657, 0, -0.00195312, -0.000976562, 0.0273438, 0.334961, -9.71973, 1.19.2022 19:52:19.427
87, 1.86595, 359.742, 88.1657, -0.000976562, -0.00195312, -0.000976562, 0.078125, 0.302734, -9.67188, 1.19.2022 19:52:19.435
88, 1.86595, 359.742, 88.1657, -0.000976562, -0.00195312, -0.000976562, 0.00878906, 0.325195, -9.68945, 1.19.2022 19:52:19.443
89, 1.86595, 359.742, 88.1657, 0, -0.000976562, 0.000976562, 0.0839844, 0.321289, -9.73535, 1.19.2022 19:52:19.451
90, 1.86595, 359.742, 88.1657, 0, -0.000976562, 0, 0.0605469, 0.295898, -9.69531, 1.19.2022 19:52:19.459
91, 1.86595, 359.742, 88.1657, 0, -0.000976562, 0, -0.00195312, 0.325195, -9.70605, 1.19.2022 19:52:19.467
92, 1.86595, 359.742, 88.1657, -0.000976562, 0, 0, 0.0869141, 0.301758, -9.71484, 1.19.2022 19:52:19.475
93, 1.86595, 359.742, 88.1657, 0, -0.00195312, 0, -0.00195312, 0.290039, -9.7373, 1.19.2022 19:52:19.483
94, 1.86595, 359.742, 88.1657, 0, -0.00195312, 0, 0.0244141, 0.316406, -9.72754, 1.19.2022 19:52:19.491
95, 1.86595, 359.742, 88.1657, 0, -0.000976562, -0.000976562, 0.0673828, 0.280273, -9.72461, 1.19.2022 19:52:19.499
96, 1.86595, 359.742, 88.1657, 0.000976562, -0.000976562, 0, -0.0273438, 0.310547, -9.69336, 1.19.2022 19:52:19.507
97, 1.86595, 359.742, 88.1657, 0.000976562, -0.000976562, -0.000976562, 0.0615234, 0.317383, -9.77539, 1.19.2022 19:52:19.515
98, 1.86595, 359.742, 88.1657, 0, -0.000976562, 0, 0.0527344, 0.317383, -9.76855, 1.19.2022 19:52:19.523
99, 1.86595, 359.742, 88.1657, -0.000976562, -0.000976562, 0, 0.0078125, 0.335938, -9.73145, 1.19.2022 19:52:19.531
100, 1.86595, 359.742, 88.1657, -0.000976562, 0, 0, 0.0712891, 0.329102, -9.76562, 1.19.2022 19:52:19.539
101, 1.86595, 359.742, 88.1657, -0.000976562, -0.000976562, 0, 0.03125, 0.321289, -9.7207, 1.19.2022 19:52:19.547
102, 1.86595, 359.742, 88.1657, -0.000976562, -0.000976562, 0, 0.0078125, 0.34082, -9.7334, 1.19.2022 19:52:19.555
103, 1.87097, 359.747, 88.1656, -0.000976562, -0.000976562, 0, 0.0673828, 0.291992, -9.70801, 1.19.2022 19:52:19.563
104, 1.87097, 359.747, 88.1656, -0.000976562, -0.00195312, 0, -0.0302734, 0.326172, -9.7168, 1.19.2022 19:52:19.571
105, 1.87097, 359.747, 88.1656, -0.000976562, -0.00195312, 0, 0.0908203, 0.299805, -9.73828, 1.19.2022 19:52:19.579
106, 1.87097, 359.747, 88.1656, 0, -0.00195312, 0, 0.046875, 0.293945, -9.69043, 1.19.2022 19:52:19.587
107, 1.87097, 359.747, 88.1656, 0, -0.000976562, -0.000976562, 0.0195312, 0.333008, -9.70801, 1.19.2022 19:52:19.595
108, 1.87097, 359.747, 88.1656, 0, -0.000976562, -0.000976562, 0.0869141, 0.318359, -9.72168, 1.19.2022 19:52:19.603
109, 1.8512, 359.748, 88.1658, -0.000976562, 0, 0, 0.00585938, 0.31543, -9.68262, 1.19.2022 19:52:19.611
110, 1.8512, 359.748, 88.1658, -0.000976562, 0, -0.000976562, 0.0458984, 0.326172, -9.73438, 1.19.2022 19:52:19.619
111, 1.8512, 359.748, 88.1658, -0.000976562, 0, -0.000976562, 0.0146484, 0.306641, -9.72559, 1.19.2022 19:52:19.627
112, 1.8512, 359.748, 88.1658, 0, 0, 0, -0.0253906, 0.342773, -9.72168, 1.19.2022 19:52:19.635
113, 1.8512, 359.748, 88.1658, -0.000976562, 0, -0.000976562, 0.0751953, 0.289062, -9.70801, 1.19.2022 19:52:19.643
114, 1.8512, 359.748, 88.1658, 0, 0, -0.000976562, 0.0195312, 0.316406, -9.72754, 1.19.2022 19:52:19.651
115, 1.85136, 359.758, 88.1657, 0, -0.000976562, 0, 0.0322266, 0.333008, -9.70801, 1.19.2022 19:52:19.659
116, 1.85136, 359.758, 88.1657, -0.000976562, 0, 0, 0.0839844, 0.298828, -9.71973, 1.19.2022 19:52:19.667
117, 1.85136, 359.758, 88.1657, -0.000976562, 0.000976562, 0, -0.00195312, 0.316406, -9.73633, 1.19.2022 19:52:19.675
118, 1.85136, 359.758, 88.1657, 0, 0, 0, 0.0576172, 0.304688, -9.7334, 1.19.2022 19:52:19.683
119, 1.85136, 359.758, 88.1657, -0.000976562, -0.000976562, 0, 0.0488281, 0.264648, -9.69141, 1.19.2022 19:52:19.691
120, 1.85136, 359.758, 88.1657, 0, 0, 0, 0.0195312, 0.313477, -9.7041, 1.19.2022 19:52:19.699
121, 1.85136, 359.758, 88.1657, 0, 0, -0.000976562, 0.0908203, 0.308594, -9.72168, 1.19.2022 19:52:19.707
122, 1.85136, 359.758, 88.1657, -0.000976562, 0, 0, 0.0117188, 0.355469, -9.75488, 1.19.2022 19:52:19.715
123, 1.85136, 359.758, 88.1657, -0.00195312, 0, 0, 0.0429688, 0.323242, -9.73242, 1.19.2022 19:52:19.723
124, 1.85136, 359.758, 88.1657, 0, -0.000976562, -0.000976562, 0.0820312, 0.308594, -9.71191, 1.19.2022 19:52:19.731
125, 1.85136, 359.758, 88.1657, -0.000976562, 0, 0, 0.0146484, 0.331055, -9.72656, 1.19.2022 19:52:19.739
126, 1.85136, 359.758, 88.1657, -0.000976562, 0, -0.000976562, 0.0859375, 0.291016, -9.75977, 1.19.2022 19:52:19.747
127, 1.85136, 359.758, 88.1657, -0.000976562, 0.000976562, 0, 0.0126953, 0.299805, -9.71875, 1.19.2022 19:52:19.755
128, 1.85136, 359.758, 88.1657, 0, 0.000976562, 0, 0.0146484, 0.316406, -9.7207, 1.19.2022 19:52:19.763
129, 1.84634, 359.753, 88.1658, 0, 0, -0.000976562, 0.0742188, 0.302734, -9.75195, 1.19.2022 19:52:19.771
130, 1.84634, 359.753, 88.1658, 0, 0, -0.000976562, 0.0175781, 0.341797, -9.69629, 1.19.2022 19:52:19.779
131, 1.8512, 359.748, 88.1658, -0.000976562, 0, -0.000976562, 0.0673828, 0.324219, -9.74707, 1.19.2022 19:52:19.787
132, 1.8512, 359.748, 88.1658, 0, 0, -0.000976562, 0.0595703, 0.291992, -9.72852, 1.19.2022 19:52:19.795
133, 1.8512, 359.748, 88.1658, 0, 0, -0.000976562, 0.03125, 0.324219, -9.74609, 1.19.2022 19:52:19.803
134, 1.8512, 359.748, 88.1658, 0, 0, 0, 0.0839844, 0.306641, -9.73145, 1.19.2022 19:52:19.811
135, 1.8512, 359.748, 88.1658, 0, 0, 0, 0.0390625, 0.323242, -9.71387, 1.19.2022 19:52:19.819
136, 1.8512, 359.748, 88.1658, -0.000976562, 0, -0.000976562, 0.0449219, 0.317383, -9.77246, 1.19.2022 19:52:19.827
137, 1.8512, 359.748, 88.1658, -0.000976562, 0, -0.000976562, 0.0605469, 0.316406, -9.72363, 1.19.2022 19:52:19.835
138, 1.8512, 359.748, 88.1658, 0, -0.000976562, 0, -0.00878906, 0.328125, -9.72949, 1.19.2022 19:52:19.843
139, 1.8512, 359.748, 88.1658, 0, 0, 0, 0.0712891, 0.303711, -9.77637, 1.19.2022 19:52:19.851
140, 1.8512, 359.748, 88.1658, -0.000976562, 0.000976562, -0.000976562, 0.0429688, 0.30957, -9.74219, 1.19.2022 19:52:19.859
141, 1.85606, 359.743, 88.1658, -0.000976562, 0.000976562, 0, 0.0175781, 0.34082, -9.72949, 1.19.2022 19:52:19.867
142, 1.85606, 359.743, 88.1658, 0, 0.000976562, 0, 0.0927734, 0.317383, -9.77148, 1.19.2022 19:52:19.875
143, 1.85606, 359.743, 88.1658, 0, -0.000976562, 0, -0.0380859, 0.329102, -9.76172, 1.19.2022 19:52:19.883
144, 1.85606, 359.743, 88.1658, 0, -0.000976562, 0, 0.0478516, 0.321289, -9.73535, 1.19.2022 19:52:19.891
145, 1.85606, 359.743, 88.1658, -0.000976562, -0.00195312, -0.000976562, 0.0566406, 0.319336, -9.76367, 1.19.2022 19:52:19.899
146, 1.85606, 359.743, 88.1658, -0.000976562, -0.000976562, 0, 0.0292969, 0.342773, -9.73438, 1.19.2022 19:52:19.907
147, 1.85606, 359.743, 88.1658, -0.000976562, -0.000976562, -0.000976562, 0.100586, 0.290039, -9.72461, 1.19.2022 19:52:19.915
148, 1.85606, 359.743, 88.1658, -0.000976562, -0.00195312, -0.000976562, 0.0273438, 0.320312, -9.71094, 1.19.2022 19:52:19.923
149, 1.85606, 359.743, 88.1658, -0.000976562, 0.000976562, -0.000976562, 0.0478516, 0.321289, -9.73047, 1.19.2022 19:52:19.931
150, 1.86092, 359.738, 88.1658, -0.000976562, -0.000976562, -0.000976562, 0.0878906, 0.288086, -9.75781, 1.19.2022 19:52:19.939
151, 1.86092, 359.738, 88.1658, 0, -0.000976562, -0.000976562, -0.0214844, 0.311523, -9.73438, 1.19.2022 19:52:19.947
152, 1.86092, 359.738, 88.1658, 0, -0.00195312, -0.000976562, 0.0859375, 0.304688, -9.72656, 1.19.2022 19:52:19.955
153, 1.86092, 359.738, 88.1658, 0.000976562, -0.000976562, 0, 0.0263672, 0.314453, -9.73242, 1.19.2022 19:52:19.963
154, 1.86092, 359.738, 88.1658, 0, 0.000976562, 0, 0.0361328, 0.330078, -9.7207, 1.19.2022 19:52:19.971
155, 1.86092, 359.738, 88.1658, -0.000976562, 0.000976562, -0.000976562, 0.0888672, 0.316406, -9.74023, 1.19.2022 19:52:19.979
156, 1.86092, 359.738, 88.1658, -0.000976562, -0.000976562, -0.000976562, 0.00683594, 0.341797, -9.76172, 1.19.2022 19:52:19.987
157, 1.86092, 359.738, 88.1658, -0.000976562, -0.000976562, -0.000976562, 0.0634766, 0.300781, -9.69531, 1.19.2022 19:52:19.995
158, 1.86092, 359.738, 88.1658, -0.000976562, -0.000976562, 0, 0.0742188, 0.304688, -9.74805, 1.19.2022 19:52:20.003
159, 1.86092, 359.738, 88.1658, 0, -0.000976562, -0.000976562, 0.00292969, 0.337891, -9.71973, 1.19.2022 19:52:20.011
160, 1.86092, 359.738, 88.1658, 0, -0.000976562, -0.000976562, 0.0839844, 0.306641, -9.71484, 1.19.2022 19:52:20.019
161, 1.86092, 359.738, 88.1658, -0.000976562, -0.000976562, 0, 0.0400391, 0.318359, -9.7793, 1.19.2022 19:52:20.027
162, 1.86579, 359.733, 88.1658, -0.000976562, -0.000976562, 0, 0.03125, 0.30957, -9.75195, 1.19.2022 19:52:20.035
163, 1.86077, 359.728, 88.166, 0.000976562, -0.00195312, 0, 0.0761719, 0.294922, -9.73828, 1.19.2022 19:52:20.043
164, 1.8559, 359.733, 88.166, 0, -0.00195312, 0, 0.0195312, 0.318359, -9.72754, 1.19.2022 19:52:20.051
165, 1.8559, 359.733, 88.166, -0.000976562, -0.000976562, 0, 0.0537109, 0.291016, -9.67188, 1.19.2022 19:52:20.059
166, 1.8559, 359.733, 88.166, 0, -0.000976562, 0, 0.0429688, 0.297852, -9.74219, 1.19.2022 19:52:20.067
167, 1.8559, 359.733, 88.166, 0, -0.000976562, 0, -0.00878906, 0.314453, -9.72754, 1.19.2022 19:52:20.075
168, 1.8559, 359.733, 88.166, -0.000976562, -0.000976562, -0.000976562, 0.102539, 0.3125, -9.76465, 1.19.2022 19:52:20.083
169, 1.8559, 359.733, 88.166, -0.000976562, -0.000976562, 0, 0.0166016, 0.305664, -9.75391, 1.19.2022 19:52:20.091
170, 1.8559, 359.733, 88.166, -0.000976562, -0.000976562, 0, 0.0224609, 0.301758, -9.7207, 1.19.2022 19:52:20.099
171, 1.8559, 359.733, 88.166, 0, -0.000976562, -0.000976562, 0.0761719, 0.27832, -9.73438, 1.19.2022 19:52:20.107
172, 1.8559, 359.733, 88.166, -0.000976562, -0.000976562, -0.000976562, 0.00292969, 0.333008, -9.73145, 1.19.2022 19:52:20.115
173, 1.85088, 359.728, 88.1661, -0.000976562, 0, -0.00195312, 0.0839844, 0.316406, -9.72363, 1.19.2022 19:52:20.123
174, 1.84602, 359.733, 88.1661, -0.000976562, -0.00195312, -0.00195312, 0.0273438, 0.318359, -9.71387, 1.19.2022 19:52:20.131
175, 1.84602, 359.733, 88.1661, 0, 0, 0, 0.0410156, 0.321289, -9.72754, 1.19.2022 19:52:20.139
176, 1.84602, 359.733, 88.1661, 0, 0, -0.000976562, 0.0908203, 0.311523, -9.74316, 1.19.2022 19:52:20.147
177, 1.84602, 359.733, 88.1661, -0.000976562, 0, -0.000976562, 0.00976562, 0.329102, -9.74121, 1.19.2022 19:52:20.153
178, 1.84602, 359.733, 88.1661, 0, 0, -0.000976562, 0.0507812, 0.339844, -9.71582, 1.19.2022 19:52:20.161
179, 1.84602, 359.733, 88.1661, 0, 0, 0, 0.0478516, 0.333008, -9.72266, 1.19.2022 19:52:20.169
180, 1.85088, 359.728, 88.1661, -0.000976562, 0, 0, 0.0078125, 0.34668, -9.71484, 1.19.2022 19:52:20.177
181, 1.8559, 359.733, 88.166, -0.000976562, 0, -0.000976562, 0.0917969, 0.291016, -9.69434, 1.19.2022 19:52:20.185
182, 1.8559, 359.733, 88.166, -0.000976562, 0.000976562, 0, 0.0292969, 0.318359, -9.71582, 1.19.2022 19:52:20.193
183, 1.8559, 359.733, 88.166, 0, 0, 0, 0.0410156, 0.325195, -9.71387, 1.19.2022 19:52:20.201
184, 1.8559, 359.733, 88.166, -0.000976562, 0, -0.00195312, 0.0859375, 0.294922, -9.73633, 1.19.2022 19:52:20.209
185, 1.8559, 359.733, 88.166, 0, -0.00195312, -0.000976562, 0.00878906, 0.334961, -9.77832, 1.19.2022 19:52:20.217
186, 1.85315, 359.732, 86.8714, -0.000976562, -0.00195312, -0.000976562, 0.0800781, 0.310547, -9.69824, 1.19.2022 19:52:20.225
187, 1.85765, 359.732, 86.586, 0, 0, -0.000976562, 0.0458984, 0.296875, -9.72852, 1.19.2022 19:52:20.233
188, 1.85741, 359.73, 86.4634, 0, 0, 0, 0.0195312, 0.328125, -9.71973, 1.19.2022 19:52:20.241
189, 1.85718, 359.729, 86.4023, -0.000976562, 0, 0, 0.0722656, 0.296875, -9.72168, 1.19.2022 19:52:20.249
190, 1.85703, 359.728, 86.3615, -0.000976562, 0, 0, 0.00488281, 0.322266, -9.75098, 1.19.2022 19:52:20.257
191, 1.85717, 359.728, 86.3408, 0, 0, 0, 0.0458984, 0.304688, -9.74219, 1.19.2022 19:52:20.265
192, 1.85687, 359.728, 86.3207, 0, 0, 0, 0.0820312, 0.296875, -9.71484, 1.19.2022 19:52:20.273
193, 1.85683, 359.727, 86.3105, 0, 0.000976562, 0, -0.0234375, 0.322266, -9.75, 1.19.2022 19:52:20.281
194, 1.85705, 359.727, 86.3101, -0.000976562, 0, 0, 0.0537109, 0.31543, -9.69531, 1.19.2022 19:52:20.289
195, 1.85679, 359.727, 86.3003, -0.000976562, 0, 0, 0.0244141, 0.321289, -9.7373, 1.19.2022 19:52:20.297
196, 1.85679, 359.727, 86.3003, -0.000976562, 0.000976562, 0, 0.0234375, 0.307617, -9.75586, 1.19.2022 19:52:20.305
197, 1.85701, 359.727, 86.2999, -0.000976562, 0, -0.000976562, 0.0742188, 0.304688, -9.75195, 1.19.2022 19:52:20.313
198, 1.85679, 359.727, 86.3003, -0.000976562, 0, -0.000976562, -0.00195312, 0.331055, -9.74609, 1.19.2022 19:52:20.321
199, 1.85705, 359.727, 86.3101, -0.000976562, 0, -0.000976562, 0.0439453, 0.342773, -9.71582, 1.19.2022 19:52:20.329
200, 1.85705, 359.727, 86.3101, 0, 0, -0.000976562, 0.0498047, 0.297852, -9.75, 1.19.2022 19:52:20.337
201, 1.85683, 359.727, 86.3105, 0, 0, 0, 0.0273438, 0.323242, -9.70605, 1.19.2022 19:52:20.345
202, 1.85709, 359.727, 86.3203, -0.000976562, -0.00195312, 0, 0.0849609, 0.298828, -9.78613, 1.19.2022 19:52:20.353
203, 1.85687, 359.728, 86.3207, -0.000976562, 0, 0, -0.00390625, 0.306641, -9.7041, 1.19.2022 19:52:20.361
204, 1.85713, 359.728, 86.3305, 0, 0, 0, 0.0341797, 0.303711, -9.69238, 1.19.2022 19:52:20.369
205, 1.85213, 359.733, 86.3309, 0, 0, -0.000976562, 0.0673828, 0.296875, -9.72168, 1.19.2022 19:52:20.377
206, 1.85217, 359.733, 86.3411, -0.000976562, 0.000976562, -0.000976562, -0.00683594, 0.334961, -9.71484, 1.19.2022 19:52:20.385
207, 1.85221, 359.733, 86.3513, 0, 0, -0.000976562, 0.0742188, 0.300781, -9.75488, 1.19.2022 19:52:20.393
208, 1.85224, 359.733, 86.3615, -0.000976562, 0, -0.000976562, 0.0146484, 0.321289, -9.72266, 1.19.2022 19:52:20.401
209, 1.85228, 359.733, 86.3717, -0.000976562, 0, 0.000976562, 0.0292969, 0.299805, -9.74023, 1.19.2022 19:52:20.409
210, 1.85232, 359.734, 86.3819, 0, -0.000976562, 0.000976562, 0.0957031, 0.294922, -9.74316, 1.19.2022 19:52:20.417
211, 1.85236, 359.734, 86.3921, 0, 0, -0.000976562, 0.00195312, 0.325195, -9.76758, 1.19.2022 19:52:20.425
212, 1.8524, 359.734, 86.4023, 0, -0.00195312, -0.000976562, 0.0380859, 0.302734, -9.76855, 1.19.2022 19:52:20.433
213, 1.85244, 359.734, 86.4125, 0, -0.00292969, -0.000976562, 0.0820312, 0.291992, -9.70801, 1.19.2022 19:52:20.441
214, 1.85757, 359.739, 86.4225, -0.000976562, 0, -0.000976562, 0.00976562, 0.333008, -9.72461, 1.19.2022 19:52:20.449
215, 1.85761, 359.739, 86.4327, -0.000976562, 0, -0.000976562, 0.0859375, 0.316406, -9.74316, 1.19.2022 19:52:20.457
216, 1.85764, 359.739, 86.4429, -0.000976562, 0, -0.000976562, 0.0351562, 0.325195, -9.77246, 1.19.2022 19:52:20.465
217, 1.85746, 359.74, 86.4534, -0.000976562, 0, 0, 0.0263672, 0.321289, -9.72754, 1.19.2022 19:52:20.473
218, 1.85772, 359.74, 86.4633, -0.000976562, 0, 0, 0.0810547, 0.316406, -9.74219, 1.19.2022 19:52:20.481
219, 1.85776, 359.74, 86.4735, 0, 0, 0, 0.00976562, 0.323242, -9.72754, 1.19.2022 19:52:20.489
220, 1.85753, 359.74, 86.4738, -0.000976562, -0.00195312, 0.000976562, 0.0703125, 0.320312, -9.68848, 1.19.2022 19:52:20.497
221, 1.85779, 359.74, 86.4837, -0.00195312, 0, 0.000976562, 0.046875, 0.308594, -9.69238, 1.19.2022 19:52:20.505
222, 1.85779, 359.74, 86.4837, -0.000976562, 0, 0, 0.03125, 0.342773, -9.72461, 1.19.2022 19:52:20.513
223, 1.85757, 359.74, 86.484, -0.000976562, -0.00195312, -0.000976562, 0.0644531, 0.327148, -9.76562, 1.19.2022 19:52:20.521
224, 1.85757, 359.74, 86.484, 0, 0, 0, 0.0166016, 0.322266, -9.75098, 1.19.2022 19:52:20.529
225, 1.85757, 359.74, 86.484, 0, 0, -0.000976562, 0.0595703, 0.329102, -9.73926, 1.19.2022 19:52:20.537
226, 1.85757, 359.74, 86.484, -0.000976562, 0, -0.000976562, 0.0673828, 0.297852, -9.74023, 1.19.2022 19:52:20.545
227, 1.85783, 359.74, 86.4939, 0, 0, 0, 0.00488281, 0.34082, -9.73633, 1.19.2022 19:52:20.553
228, 1.85757, 359.74, 86.484, -0.000976562, 0, -0.000976562, 0.0546875, 0.314453, -9.75195, 1.19.2022 19:52:20.561
229, 1.85757, 359.74, 86.484, -0.000976562, 0, -0.000976562, 0.0195312, 0.318359, -9.70605, 1.19.2022 19:52:20.569
230, 1.85757, 359.74, 86.484, -0.000976562, -0.00195312, -0.000976562, 0.0175781, 0.328125, -9.71973, 1.19.2022 19:52:20.577
231, 1.85779, 359.74, 86.4837, -0.000976562, 0, -0.000976562, 0.0771484, 0.27832, -9.73145, 1.19.2022 19:52:20.585
232, 1.85779, 359.74, 86.4837, -0.000976562, 0, 0, 0.00488281, 0.307617, -9.74902, 1.19.2022 19:52:20.593
233, 1.85779, 359.74, 86.4837, 0, 0.000976562, 0, 0.0576172, 0.294922, -9.74805, 1.19.2022 19:52:20.601
234, 1.85779, 359.74, 86.4837, -0.000976562, 0, -0.000976562, 0.0625, 0.308594, -9.72363, 1.19.2022 19:52:20.609
235, 1.85779, 359.74, 86.4837, 0, 0, -0.000976562, 0.0263672, 0.323242, -9.73242, 1.19.2022 19:52:20.617
236, 1.85779, 359.74, 86.4837, -0.00195312, -0.00195312, 0, 0.0859375, 0.324219, -9.77051, 1.19.2022 19:52:20.625
237, 1.85779, 359.74, 86.4837, -0.000976562, -0.000976562, 0, 0.0273438, 0.325195, -9.71777, 1.19.2022 19:52:20.633
238, 1.85779, 359.74, 86.4837, -0.000976562, 0, 0, 0.0214844, 0.335938, -9.73633, 1.19.2022 19:52:20.641
239, 1.85779, 359.74, 86.4837, 0, 0, -0.000976562, 0.0742188, 0.311523, -9.73047, 1.19.2022 19:52:20.649
240, 1.85779, 359.74, 86.4837, -0.00195312, 0, -0.000976562, -0.00195312, 0.331055, -9.73633, 1.19.2022 19:52:20.657
241, 1.85779, 359.74, 86.4837, -0.000976562, 0, 0, 0.0625, 0.305664, -9.70215, 1.19.2022 19:52:20.665
242, 1.85779, 359.74, 86.4837, 0, 0, -0.000976562, 0.0361328, 0.338867, -9.75781, 1.19.2022 19:52:20.673
243, 1.85779, 359.74, 86.4837, -0.000976562, 0, -0.000976562, 0.0244141, 0.336914, -9.70312, 1.19.2022 19:52:20.681
244, 1.85779, 359.74, 86.4837, -0.000976562, -0.000976562, -0.000976562, 0.0830078, 0.333984, -9.76855, 1.19.2022 19:52:20.689
245, 1.85779, 359.74, 86.4837, 0, 0, 0, -0.0302734, 0.308594, -9.69824, 1.19.2022 19:52:20.697
246, 1.85779, 359.74, 86.4837, 0, -0.000976562, -0.000976562, 0.0537109, 0.325195, -9.70215, 1.19.2022 19:52:20.705
247, 1.85753, 359.74, 86.4738, 0, -0.000976562, 0, 0.0546875, 0.324219, -9.74707, 1.19.2022 19:52:20.713
248, 1.85753, 359.74, 86.4738, 0, 0, -0.000976562, 0.0224609, 0.347656, -9.71973, 1.19.2022 19:52:20.721
249, 1.85776, 359.74, 86.4735, 0, 0, 0, 0.0957031, 0.321289, -9.7334, 1.19.2022 19:52:20.729
250, 1.8575, 359.74, 86.4636, 0, -0.000976562, 0, 0.0361328, 0.301758, -9.72363, 1.19.2022 19:52:20.737
251, 1.85772, 359.74, 86.4633, 0.000976562, 0, 0, -0.00195312, 0.351562, -9.71484, 1.19.2022 19:52:20.745
252, 1.85768, 359.74, 86.4531, 0, 0, -0.000976562, 0.0810547, 0.321289, -9.74023, 1.19.2022 19:52:20.753
253, 1.86274, 359.744, 86.4428, -0.000976562, 0, -0.000976562, 0.000976562, 0.328125, -9.71777, 1.19.2022 19:52:20.761
254, 1.86248, 359.744, 86.4329, -0.000976562, 0, -0.000976562, 0.0556641, 0.28418, -9.68652, 1.19.2022 19:52:20.769
255, 1.8627, 359.744, 86.4326, -0.000976562, 0, -0.000976562, 0.0478516, 0.27832, -9.73828, 1.19.2022 19:52:20.777
256, 1.86266, 359.744, 86.4224, 0, 0, 0, 0.0410156, 0.318359, -9.71387, 1.19.2022 19:52:20.785
257, 1.86263, 359.744, 86.4122, 0, 0, -0.000976562, 0.0986328, 0.287109, -9.72949, 1.19.2022 19:52:20.793
258, 1.86259, 359.743, 86.402, 0, 0.000976562, 0, 0.00585938, 0.328125, -9.70801, 1.19.2022 19:52:20.801
259, 1.86259, 359.743, 86.402, 0, 0.000976562, 0, 0.0410156, 0.347656, -9.74316, 1.19.2022 19:52:20.809
260, 1.86255, 359.743, 86.3918, 0, 0, 0, 0.0722656, 0.321289, -9.73535, 1.19.2022 19:52:20.817
261, 1.86255, 359.743, 86.3918, 0, 0, -0.000976562, -0.00585938, 0.325195, -9.70605, 1.19.2022 19:52:20.825
262, 1.86251, 359.743, 86.3816, 0, 0, -0.000976562, 0.117188, 0.298828, -9.71094, 1.19.2022 19:52:20.833
263, 1.86251, 359.743, 86.3816, -0.000976562, 0, -0.000976562, 0.0478516, 0.305664, -9.76562, 1.19.2022 19:52:20.841
264, 1.86251, 359.743, 86.3816, 0, 0, -0.000976562, 0.0458984, 0.342773, -9.72266, 1.19.2022 19:52:20.849
265, 1.86251, 359.743, 86.3816, 0, 0, -0.000976562, 0.0859375, 0.321289, -9.72852, 1.19.2022 19:52:20.857
266, 1.86251, 359.743, 86.3816, 0, -0.000976562, -0.000976562, 0.0224609, 0.296875, -9.71387, 1.19.2022 19:52:20.865
267, 1.86251, 359.743, 86.3816, -0.000976562, 0, -0.000976562, 0.0644531, 0.321289, -9.74707, 1.19.2022 19:52:20.873
268, 1.86251, 359.743, 86.3816, -0.000976562, -0.000976562, 0, 0.0332031, 0.3125, -9.77246, 1.19.2022 19:52:20.881
269, 1.86251, 359.743, 86.3816, 0, 0, 0, -0.0146484, 0.320312, -9.78613, 1.19.2022 19:52:20.889
270, 1.86251, 359.743, 86.3816, -0.000976562, 0, 0, 0.0507812, 0.280273, -9.72656, 1.19.2022 19:52:20.897
271, 1.86251, 359.743, 86.3816, 0, 0, 0, 0.0263672, 0.299805, -9.74023, 1.19.2022 19:52:20.905
272, 1.86274, 359.743, 86.3813, 0, 0, -0.000976562, 0.0458984, 0.313477, -9.70703, 1.19.2022 19:52:20.913
273, 1.86274, 359.743, 86.3813, 0, 0, -0.000976562, 0.0810547, 0.265625, -9.72754, 1.19.2022 19:52:20.921
274, 1.86274, 359.743, 86.3813, 0, 0, 0, -0.0185547, 0.318359, -9.72168, 1.19.2022 19:52:20.929
275, 1.86274, 359.743, 86.3813, 0, -0.000976562, -0.000976562, 0.0722656, 0.31543, -9.70898, 1.19.2022 19:52:20.937
276, 1.86248, 359.743, 86.3714, 0, -0.000976562, -0.000976562, 0.0361328, 0.314453, -9.75586, 1.19.2022 19:52:20.945
277, 1.86248, 359.743, 86.3714, -0.00195312, -0.000976562, -0.000976562, 0.0146484, 0.344727, -9.72168, 1.19.2022 19:52:20.953
278, 1.86248, 359.743, 86.3714, -0.00195312, -0.000976562, -0.000976562, 0.0957031, 0.301758, -9.72168, 1.19.2022 19:52:20.961
279, 1.86248, 359.743, 86.3714, -0.00195312, 0.000976562, 0, 0.0126953, 0.311523, -9.71289, 1.19.2022 19:52:20.969
280, 1.86248, 359.743, 86.3714, -0.000976562, 0, 0, 0.0576172, 0.325195, -9.7207, 1.19.2022 19:52:20.977
281, 1.8627, 359.743, 86.3711, 0, 0, -0.000976562, 0.0869141, 0.318359, -9.7168, 1.19.2022 19:52:20.985
282, 1.8627, 359.743, 86.3711, 0, 0, -0.000976562, 0.00292969, 0.319336, -9.75098, 1.19.2022 19:52:20.993
283, 1.86244, 359.743, 86.3612, 0, 0, -0.000976562, 0.0595703, 0.30957, -9.75195, 1.19.2022 19:52:21.001
284, 1.86244, 359.743, 86.3612, 0.000976562, 0.000976562, 0, 0.0449219, 0.314453, -9.75195, 1.19.2022 19:52:21.009
285, 1.86266, 359.743, 86.3609, 0, 0, 0, 0.0341797, 0.306641, -9.71387, 1.19.2022 19:52:21.017
286, 1.8624, 359.743, 86.351, 0, 0, -0.000976562, 0.100586, 0.308594, -9.71973, 1.19.2022 19:52:21.025
287, 1.8624, 359.743, 86.351, 0.000976562, 0, -0.000976562, 0.00976562, 0.318359, -9.71973, 1.19.2022 19:52:21.033
288, 1.8624, 359.743, 86.351, 0, 0, -0.000976562, 0.0429688, 0.335938, -9.75293, 1.19.2022 19:52:21.041
289, 1.86262, 359.743, 86.3507, -0.000976562, 0, 0, 0.0693359, 0.299805, -9.73145, 1.19.2022 19:52:21.049
290, 1.86262, 359.743, 86.3507, -0.000976562, 0.000976562, 0, -0.0117188, 0.336914, -9.76172, 1.19.2022 19:52:21.057
291, 1.86236, 359.743, 86.3408, 0, 0, -0.000976562, 0.0664062, 0.317383, -9.75195, 1.19.2022 19:52:21.065
292, 1.86236, 359.743, 86.3408, 0, -0.000976562, 0, 0.0292969, 0.328125, -9.70605, 1.19.2022 19:52:21.073
293, 1.85727, 359.738, 86.3409, 0, 0, -0.000976562, 0.0449219, 0.352539, -9.66797, 1.19.2022 19:52:21.081
294, 1.85727, 359.738, 86.3409, 0, 0, -0.000976562, 0.0839844, 0.300781, -9.70508, 1.19.2022 19:52:21.089
295, 1.85727, 359.738, 86.3409, 0, 0.000976562, -0.000976562, 0.0166016, 0.342773, -9.74121, 1.19.2022 19:52:21.097
296, 1.85727, 359.738, 86.3409, -0.000976562, 0, -0.000976562, 0.0566406, 0.316406, -9.66211, 1.19.2022 19:52:21.105
297, 1.85727, 359.738, 86.3409, -0.000976562, 0.000976562, 0, 0.0576172, 0.317383, -9.75879, 1.19.2022 19:52:21.111
298, 1.85727, 359.738, 86.3409, -0.000976562, 0, 0, 0.0175781, 0.318359, -9.70898, 1.19.2022 19:52:21.119
299, 1.85727, 359.738, 86.3409, -0.000976562, 0, 0, 0.0888672, 0.296875, -9.7334, 1.19.2022 19:52:21.127
300, 1.86205, 359.733, 86.3409, -0.000976562, 0.000976562, 0, 0.00292969, 0.310547, -9.69922, 1.19.2022 19:52:21.135
301, 1.86205, 359.733, 86.3409, -0.000976562, -0.000976562, -0.000976562, 0.0429688, 0.333008, -9.73242, 1.19.2022 19:52:21.145
302, 1.86227, 359.733, 86.3406, 0, -0.000976562, -0.000976562, 0.03125, 0.307617, -9.75879, 1.19.2022 19:52:21.151
303, 1.86227, 359.733, 86.3406, -0.000976562, -0.00195312, 0, 0.0292969, 0.363281, -9.69824, 1.19.2022 19:52:21.159
304, 1.86227, 359.733, 86.3406, 0, -0.00195312, 0, 0.105469, 0.311523, -9.72461, 1.19.2022 19:52:21.167
305, 1.86227, 359.733, 86.3406, 0.000976562, 0.000976562, 0, 0.0429688, 0.323242, -9.73047, 1.19.2022 19:52:21.175
306, 1.86201, 359.732, 86.3307, 0, -0.00195312, 0, 0.0390625, 0.344727, -9.73145, 1.19.2022 19:52:21.183
307, 1.86201, 359.732, 86.3307, -0.000976562, -0.000976562, 0, 0.0693359, 0.30957, -9.75, 1.19.2022 19:52:21.191
308, 1.86223, 359.732, 86.3304, -0.000976562, -0.000976562, 0, 0.0244141, 0.331055, -9.74121, 1.19.2022 19:52:21.199
309, 1.86733, 359.737, 86.3303, -0.000976562, -0.000976562, 0, 0.0693359, 0.319336, -9.7373, 1.19.2022 19:52:21.207
310, 1.86733, 359.737, 86.3303, -0.000976562, -0.000976562, -0.000976562, 0.0722656, 0.311523, -9.73047, 1.19.2022 19:52:21.215
311, 1.86733, 359.737, 86.3303, 0, -0.00195312, -0.000976562, 0.000976562, 0.326172, -9.72266, 1.19.2022 19:52:21.223
312, 1.86733, 359.737, 86.3303, -0.000976562, -0.00195312, 0, 0.0839844, 0.297852, -9.75, 1.19.2022 19:52:21.231
313, 1.86733, 359.737, 86.3303, 0, -0.00292969, 0, 0, 0.314453, -9.74121, 1.19.2022 19:52:21.239
314, 1.86733, 359.737, 86.3303, 0, -0.00195312, -0.000976562, 0.0380859, 0.321289, -9.73438, 1.19.2022 19:52:21.247
315, 1.86733, 359.737, 86.3303, 0, -0.000976562, 0, 0.0625, 0.306641, -9.73828, 1.19.2022 19:52:21.255
316, 1.86733, 359.737, 86.3303, -0.000976562, -0.000976562, -0.000976562, -0.00683594, 0.328125, -9.71484, 1.19.2022 19:52:21.263
317, 1.86707, 359.737, 86.3204, 0, -0.00195312, -0.000976562, 0.0751953, 0.341797, -9.69922, 1.19.2022 19:52:21.271
318, 1.86707, 359.737, 86.3204, 0, -0.000976562, -0.000976562, 0.0439453, 0.311523, -9.71387, 1.19.2022 19:52:21.279
319, 1.86707, 359.737, 86.3204, 0, -0.000976562, 0, 0.0175781, 0.336914, -9.70605, 1.19.2022 19:52:21.287
320, 1.86707, 359.737, 86.3204, 0, -0.000976562, 0, 0.0664062, 0.3125, -9.75195, 1.19.2022 19:52:21.295
321, 1.86707, 359.737, 86.3204, 0, -0.000976562, 0, 0.00292969, 0.295898, -9.74707, 1.19.2022 19:52:21.303
322, 1.86707, 359.737, 86.3204, -0.000976562, -0.000976562, 0, 0.0673828, 0.337891, -9.73242, 1.19.2022 19:52:21.311
323, 1.86729, 359.737, 86.3201, 0, -0.000976562, -0.000976562, 0.0693359, 0.285156, -9.71484, 1.19.2022 19:52:21.319
324, 1.86729, 359.737, 86.3201, -0.000976562, -0.00195312, -0.000976562, -0.00683594, 0.339844, -9.71484, 1.19.2022 19:52:21.327
325, 1.86729, 359.737, 86.3201, -0.000976562, -0.000976562, 0, 0.09375, 0.30957, -9.73145, 1.19.2022 19:52:21.335
326, 1.86729, 359.737, 86.3201, 0, 0.000976562, 0, 0.0380859, 0.335938, -9.73926, 1.19.2022 19:52:21.343
327, 1.86729, 359.737, 86.3201, 0, 0.000976562, 0, 0.0556641, 0.323242, -9.7207, 1.19.2022 19:52:21.351
328, 1.86703, 359.737, 86.3102, 0, -0.000976562, 0, 0.0791016, 0.282227, -9.71484, 1.19.2022 19:52:21.359
329, 1.86725, 359.737, 86.3099, 0.000976562, -0.00195312, -0.000976562, -0.0205078, 0.319336, -9.72949, 1.19.2022 19:52:21.367
330, 1.86725, 359.737, 86.3099, 0, -0.000976562, -0.000976562, 0.0693359, 0.313477, -9.71875, 1.19.2022 19:52:21.375
331, 1.86725, 359.737, 86.3099, -0.000976562, -0.000976562, 0, 0.0498047, 0.34375, -9.76465, 1.19.2022 19:52:21.383
332, 1.86699, 359.737, 86.3, 0, -0.000976562, 0, 0.0195312, 0.354492, -9.7168, 1.19.2022 19:52:21.391
333, 1.86722, 359.737, 86.2997, 0, 0, 0, 0.0878906, 0.314453, -9.75488, 1.19.2022 19:52:21.399
334, 1.86722, 359.737, 86.2997, 0, 0, 0, 0.0537109, 0.308594, -9.70215, 1.19.2022 19:52:21.407
335, 1.86722, 359.737, 86.2997, 0, 0, -0.000976562, 0.0371094, 0.322266, -9.68066, 1.19.2022 19:52:21.415
336, 1.86718, 359.737, 86.2895, 0, 0.000976562, 0, 0.0761719, 0.294922, -9.74316, 1.19.2022 19:52:21.423
337, 1.86718, 359.737, 86.2895, -0.00195312, 0, 0, -0.00488281, 0.314453, -9.75098, 1.19.2022 19:52:21.431
338, 1.86718, 359.737, 86.2895, -0.000976562, -0.000976562, -0.000976562, 0.0859375, 0.307617, -9.75684, 1.19.2022 19:52:21.439
339, 1.86692, 359.736, 86.2796, 0, -0.000976562, -0.000976562, 0.0429688, 0.292969, -9.75684, 1.19.2022 19:52:21.447
340, 1.86714, 359.736, 86.2793, 0, -0.000976562, 0, 0.0449219, 0.329102, -9.75391, 1.19.2022 19:52:21.455
341, 1.86714, 359.736, 86.2793, 0, 0, -0.000976562, 0.0830078, 0.310547, -9.77344, 1.19.2022 19:52:21.463
342, 1.86714, 359.736, 86.2793, -0.000976562, -0.000976562, -0.000976562, -0.0253906, 0.316406, -9.7334, 1.19.2022 19:52:21.471
343, 1.8671, 359.736, 86.269, 0, 0.000976562, -0.000976562, 0.0341797, 0.331055, -9.73633, 1.19.2022 19:52:21.479
344, 1.8671, 359.736, 86.269, 0, 0, 0, 0.0507812, 0.320312, -9.71582, 1.19.2022 19:52:21.487
345, 1.86732, 359.736, 86.2687, 0, 0, 0, 0.0214844, 0.337891, -9.74316, 1.19.2022 19:52:21.495
346, 1.86706, 359.736, 86.2588, 0, 0, -0.000976562, 0.0839844, 0.288086, -9.74121, 1.19.2022 19:52:21.503
347, 1.86706, 359.736, 86.2588, 0, 0, -0.000976562, 0.0166016, 0.314453, -9.73438, 1.19.2022 19:52:21.511
348, 1.86702, 359.736, 86.2486, 0, 0, -0.000976562, 0.0224609, 0.330078, -9.69434, 1.19.2022 19:52:21.519
349, 1.86702, 359.736, 86.2486, -0.00195312, -0.000976562, -0.000976562, 0.0693359, 0.295898, -9.75, 1.19.2022 19:52:21.527
350, 1.86698, 359.736, 86.2384, -0.000976562, 0.000976562, -0.00195312, 0.00292969, 0.3125, -9.74609, 1.19.2022 19:52:21.535
351, 1.86698, 359.736, 86.2384, 0, 0, -0.000976562, 0.0771484, 0.320312, -9.70898, 1.19.2022 19:52:21.543
352, 1.86698, 359.736, 86.2384, -0.000976562, 0, 0, 0.0527344, 0.294922, -9.7168, 1.19.2022 19:52:21.551
353, 1.86695, 359.736, 86.2282, 0, 0, 0, 0.0117188, 0.345703, -9.75488, 1.19.2022 19:52:21.559
354, 1.86695, 359.736, 86.2282, 0, 0.000976562, 0, 0.0830078, 0.300781, -9.77832, 1.19.2022 19:52:21.567
355, 1.86691, 359.735, 86.218, 0, 0, 0, -0.00195312, 0.307617, -9.7373, 1.19.2022 19:52:21.575
356, 1.86691, 359.735, 86.218, 0, 0.000976562, 0, 0.0380859, 0.316406, -9.73535, 1.19.2022 19:52:21.583
357, 1.86713, 359.735, 86.2177, 0, 0, 0, 0.0458984, 0.313477, -9.72363, 1.19.2022 19:52:21.591
358, 1.86687, 359.735, 86.2078, 0, 0, 0, 0.0107422, 0.337891, -9.71777, 1.19.2022 19:52:21.599
359, 1.86687, 359.735, 86.2078, 0.000976562, 0, -0.000976562, 0.100586, 0.306641, -9.72168, 1.19.2022 19:52:21.607
360, 1.86709, 359.735, 86.2074, 0, 0, 0, 0.0478516, 0.316406, -9.74414, 1.19.2022 19:52:21.615
361, 1.86709, 359.735, 86.2074, 0, 0, -0.000976562, 0.0195312, 0.330078, -9.70605, 1.19.2022 19:52:21.623
362, 1.86683, 359.735, 86.1976, -0.000976562, -0.000976562, 0, 0.0693359, 0.290039, -9.73633, 1.19.2022 19:52:21.631
363, 1.86683, 359.735, 86.1976, -0.000976562, 0.000976562, 0, 0.0117188, 0.327148, -9.75586, 1.19.2022 19:52:21.639
364, 1.86705, 359.735, 86.1972, 0.000976562, 0, -0.000976562, 0.0722656, 0.311523, -9.73828, 1.19.2022 19:52:21.647
365, 1.86705, 359.735, 86.1972, 0, 0.000976562, -0.000976562, 0.0410156, 0.297852, -9.74512, 1.19.2022 19:52:21.655
366, 1.86705, 359.735, 86.1972, 0, 0.000976562, -0.000976562, 0.000976562, 0.341797, -9.70801, 1.19.2022 19:52:21.663
367, 1.86679, 359.735, 86.1874, 0, -0.000976562, -0.000976562, 0.0839844, 0.308594, -9.71484, 1.19.2022 19:52:21.671
368, 1.86701, 359.735, 86.187, -0.000976562, -0.000976562, -0.000976562, 0.0458984, 0.335938, -9.72754, 1.19.2022 19:52:21.679
369, 1.86701, 359.735, 86.187, 0, 0.000976562, -0.000976562, 0.0292969, 0.321289, -9.72754, 1.19.2022 19:52:21.687
370, 1.87179, 359.73, 86.187, -0.000976562, 0.00195312, 0, 0.0878906, 0.279297, -9.77441, 1.19.2022 19:52:21.695
371, 1.87179, 359.73, 86.187, 0, 0.000976562, -0.000976562, 0.00292969, 0.326172, -9.74121, 1.19.2022 19:52:21.703
372, 1.87153, 359.73, 86.1771, 0, -0.000976562, -0.000976562, 0.0771484, 0.303711, -9.72168, 1.19.2022 19:52:21.711
373, 1.87153, 359.73, 86.1771, -0.000976562, -0.000976562, 0, 0.0244141, 0.296875, -9.70703, 1.19.2022 19:52:21.719
374, 1.87153, 359.73, 86.1771, 0, -0.000976562, 0, 0.0214844, 0.322266, -9.74902, 1.19.2022 19:52:21.727
375, 1.87153, 359.73, 86.1771, 0, -0.000976562, -0.000976562, 0.0878906, 0.291016, -9.75098, 1.19.2022 19:52:21.735
376, 1.87153, 359.73, 86.1771, 0, -0.000976562, 0, 0.00976562, 0.291016, -9.74707, 1.19.2022 19:52:21.743
377, 1.87153, 359.73, 86.1771, -0.000976562, -0.000976562, 0.000976562, 0.0546875, 0.329102, -9.7627, 1.19.2022 19:52:21.751
378, 1.87153, 359.73, 86.1771, -0.000976562, -0.000976562, 0, 0.0566406, 0.310547, -9.78027, 1.19.2022 19:52:21.759
379, 1.87153, 359.73, 86.1771, -0.000976562, -0.000976562, 0, 0.0195312, 0.326172, -9.73633, 1.19.2022 19:52:21.767
380, 1.87179, 359.73, 86.187, 0, 0.000976562, 0, 0.09375, 0.274414, -9.69922, 1.19.2022 19:52:21.775
381, 1.86668, 359.725, 86.1872, 0, -0.000976562, 0, 0.015625, 0.303711, -9.69922, 1.19.2022 19:52:21.783
382, 1.86668, 359.725, 86.1872, -0.000976562, -0.000976562, 0, 0.0195312, 0.338867, -9.74316, 1.19.2022 19:52:21.791
383, 1.86646, 359.725, 86.1875, 0.000976562, -0.000976562, 0, 0.0771484, 0.296875, -9.73145, 1.19.2022 19:52:21.799
384, 1.86646, 359.725, 86.1875, 0.000976562, -0.00195312, 0, 0.00976562, 0.311523, -9.72949, 1.19.2022 19:52:21.807
385, 1.86169, 359.73, 86.1875, -0.000976562, -0.000976562, 0, 0.0820312, 0.316406, -9.72363, 1.19.2022 19:52:21.815
386, 1.86672, 359.725, 86.1974, -0.000976562, -0.000976562, 0, 0.0527344, 0.342773, -9.74414, 1.19.2022 19:52:21.823
387, 1.86672, 359.725, 86.1974, -0.00195312, 0.000976562, 0, 0.0244141, 0.317383, -9.74902, 1.19.2022 19:52:21.831
388, 1.86672, 359.725, 86.1974, -0.000976562, 0.000976562, 0, 0.0859375, 0.324219, -9.74219, 1.19.2022 19:52:21.839
389, 1.86672, 359.725, 86.1974, -0.000976562, 0.000976562, 0, 0.00488281, 0.323242, -9.72754, 1.19.2022 19:52:21.847
390, 1.86672, 359.725, 86.1974, -0.000976562, 0.000976562, 0, 0.0625, 0.330078, -9.7041, 1.19.2022 19:52:21.855
391, 1.86672, 359.725, 86.1974, 0.000976562, -0.00195312, -0.000976562, 0.0576172, 0.296875, -9.72852, 1.19.2022 19:52:21.863
392, 1.8665, 359.725, 86.1977, 0, -0.000976562, 0, 0.0410156, 0.321289, -9.72266, 1.19.2022 19:52:21.871
393, 1.8665, 359.725, 86.1977, -0.000976562, -0.000976562, 0, 0.0927734, 0.302734, -9.74512, 1.19.2022 19:52:21.879
394, 1.8665, 359.725, 86.1977, 0, 0.000976562, -0.00195312, 0.0166016, 0.304688, -9.75098, 1.19.2022 19:52:21.887
395, 1.8665, 359.725, 86.1977, -0.000976562, -0.000976562, -0.000976562, 0.0332031, 0.333984, -9.74121, 1.19.2022 19:52:21.895
396, 1.8665, 359.725, 86.1977, 0, -0.000976562, 0, 0.0820312, 0.275391, -9.72266, 1.19.2022 19:52:21.903
397, 1.86672, 359.725, 86.1974, 0, -0.000976562, -0.000976562, 0.00292969, 0.318359, -9.72461, 1.19.2022 19:52:21.911
398, 1.86672, 359.725, 86.1974, 0, -0.000976562, -0.000976562, 0.0527344, 0.319336, -9.73535, 1.19.2022 19:52:21.919
399, 1.86672, 359.725, 86.1974, 0, -0.000976562, 0, 0.0498047, 0.286133, -9.74512, 1.19.2022 19:52:21.927
400, 1.86646, 359.725, 86.1875, -0.000976562, -0.000976562, 0, 0.0195312, 0.338867, -9.75488, 1.19.2022 19:52:21.935
401, 1.86646, 359.725, 86.1875, 0, -0.000976562, 0, 0.0761719, 0.317383, -9.75684, 1.19.2022 19:52:21.943
402, 1.86646, 359.725, 86.1875, 0, -0.000976562, 0, -0.0117188, 0.3125, -9.7627, 1.19.2022 19:52:21.951
403, 1.86191, 359.73, 86.1871, 0, -0.00195312, 0, 0.0166016, 0.333008, -9.73633, 1.19.2022 19:52:21.959
404, 1.86191, 359.73, 86.1871, -0.000976562, -0.000976562, 0, 0.0605469, 0.306641, -9.72168, 1.19.2022 19:52:21.967
405, 1.86191, 359.73, 86.1871, -0.00195312, -0.000976562, 0, -0.00683594, 0.30957, -9.72266, 1.19.2022 19:52:21.975
406, 1.86191, 359.73, 86.1871, -0.000976562, -0.000976562, -0.000976562, 0.0771484, 0.318359, -9.7334, 1.19.2022 19:52:21.983
407, 1.86165, 359.73, 86.1773, 0, -0.000976562, -0.000976562, 0.0185547, 0.302734, -9.76562, 1.19.2022 19:52:21.991
408, 1.86187, 359.73, 86.1769, -0.000976562, -0.000976562, -0.000976562, -0.0283203, 0.331055, -9.75, 1.19.2022 19:52:21.999
409, 1.86187, 359.73, 86.1769, 0, -0.00195312, -0.000976562, 0.0810547, 0.292969, -9.73633, 1.19.2022 19:52:22.007
410, 1.86161, 359.73, 86.1671, 0, -0.00195312, -0.000976562, 0.0146484, 0.321289, -9.74121, 1.19.2022 19:52:22.015
411, 1.86183, 359.73, 86.1667, 0, -0.00195312, -0.000976562, 0.0361328, 0.34082, -9.75586, 1.19.2022 19:52:22.023
412, 1.86693, 359.735, 86.1666, 0, -0.00195312, 0, 0.0576172, 0.297852, -9.73828, 1.19.2022 19:52:22.031
413, 1.86667, 359.734, 86.1567, 0, -0.00195312, 0, 0.0126953, 0.318359, -9.7041, 1.19.2022 19:52:22.039
414, 1.8669, 359.734, 86.1564, 0, -0.00195312, -0.000976562, 0.0771484, 0.311523, -9.72363, 1.19.2022 19:52:22.047
415, 1.8669, 359.734, 86.1564, 0, -0.00195312, 0, 0.0244141, 0.319336, -9.7373, 1.19.2022 19:52:22.055
416, 1.86663, 359.734, 86.1465, -0.000976562, -0.00195312, 0, 0.0292969, 0.293945, -9.70703, 1.19.2022 19:52:22.061
417, 1.86686, 359.734, 86.1461, -0.000976562, -0.000976562, 0, 0.0703125, 0.308594, -9.71191, 1.19.2022 19:52:22.069
418, 1.86686, 359.734, 86.1461, -0.000976562, -0.000976562, -0.000976562, 0.03125, 0.317383, -9.75586, 1.19.2022 19:52:22.077
419, 1.86208, 359.739, 86.1461, 0, -0.000976562, -0.000976562, 0.0625, 0.311523, -9.71191, 1.19.2022 19:52:22.085
420, 1.86182, 359.739, 86.1363, -0.000976562, -0.000976562, -0.000976562, 0.0605469, 0.311523, -9.71875, 1.19.2022 19:52:22.093
421, 1.86182, 359.739, 86.1363, 0, -0.00195312, -0.000976562, 0.0146484, 0.314453, -9.75098, 1.19.2022 19:52:22.101
422, 1.86204, 359.739, 86.1359, -0.000976562, -0.000976562, -0.000976562, 0.103516, 0.308594, -9.70996, 1.19.2022 19:52:22.109
423, 1.86204, 359.739, 86.1359, -0.000976562, -0.000976562, -0.000976562, 0.0126953, 0.351562, -9.71484, 1.19.2022 19:52:22.117
424, 1.86204, 359.739, 86.1359, 0, 0, 0, 0.0322266, 0.342773, -9.71484, 1.19.2022 19:52:22.125
425, 1.86204, 359.739, 86.1359, 0, 0, -0.000976562, 0.0478516, 0.31543, -9.76855, 1.19.2022 19:52:22.133
426, 1.86204, 359.739, 86.1359, 0, -0.000976562, 0, -0.00195312, 0.324219, -9.75781, 1.19.2022 19:52:22.141
427, 1.86204, 359.739, 86.1359, 0, 0, 0, 0.0771484, 0.308594, -9.70508, 1.19.2022 19:52:22.149
428, 1.86204, 359.739, 86.1359, 0, -0.000976562, 0, 0.0341797, 0.320312, -9.71582, 1.19.2022 19:52:22.157
429, 1.86204, 359.739, 86.1359, 0.000976562, -0.000976562, -0.000976562, 0.0263672, 0.321289, -9.7373, 1.19.2022 19:52:22.165
430, 1.86204, 359.739, 86.1359, -0.000976562, 0, 0, 0.0673828, 0.306641, -9.72168, 1.19.2022 19:52:22.173
431, 1.86204, 359.739, 86.1359, -0.000976562, 0, 0, 0.00292969, 0.320312, -9.71289, 1.19.2022 19:52:22.181
432, 1.86204, 359.739, 86.1359, 0, 0, 0, 0.0791016, 0.316406, -9.72656, 1.19.2022 19:52:22.189
433, 1.86204, 359.739, 86.1359, -0.000976562, -0.000976562, 0, 0.0556641, 0.316406, -9.73242, 1.19.2022 19:52:22.197
434, 1.86204, 359.739, 86.1359, 0, -0.000976562, -0.000976562, 0.0195312, 0.323242, -9.71289, 1.19.2022 19:52:22.205
435, 1.86204, 359.739, 86.1359, 0, -0.000976562, -0.000976562, 0.0957031, 0.303711, -9.7168, 1.19.2022 19:52:22.213
436, 1.86182, 359.739, 86.1363, -0.000976562, -0.000976562, 0, 0.0078125, 0.280273, -9.72363, 1.19.2022 19:52:22.221
437, 1.86182, 359.739, 86.1363, -0.000976562, 0, 0, 0.0439453, 0.323242, -9.70898, 1.19.2022 19:52:22.229
438, 1.86208, 359.739, 86.1461, -0.000976562, 0, 0, 0.0683594, 0.300781, -9.77344, 1.19.2022 19:52:22.237
439, 1.86208, 359.739, 86.1461, -0.000976562, 0.000976562, -0.000976562, -0.0136719, 0.338867, -9.74316, 1.19.2022 19:52:22.245
440, 1.86208, 359.739, 86.1461, 0, 0.000976562, 0, 0.0810547, 0.335938, -9.75391, 1.19.2022 19:52:22.253
441, 1.86208, 359.739, 86.1461, -0.000976562, 0, 0, 0.0410156, 0.294922, -9.74707, 1.19.2022 19:52:22.261
442, 1.86208, 359.739, 86.1461, 0, -0.000976562, -0.000976562, 0.0166016, 0.319336, -9.75098, 1.19.2022 19:52:22.269
443, 1.86208, 359.739, 86.1461, 0, -0.000976562, -0.000976562, 0.0986328, 0.279297, -9.70117, 1.19.2022 19:52:22.277
444, 1.86208, 359.739, 86.1461, 0, 0.000976562, 0, 0.0117188, 0.326172, -9.75098, 1.19.2022 19:52:22.285
445, 1.86208, 359.739, 86.1461, 0, 0, 0, 0.0625, 0.321289, -9.74902, 1.19.2022 19:52:22.293
446, 1.86208, 359.739, 86.1461, 0, -0.000976562, 0, 0.0878906, 0.303711, -9.77637, 1.19.2022 19:52:22.301
447, 1.86182, 359.739, 86.1363, -0.000976562, 0, 0, 0.0146484, 0.344727, -9.71289, 1.19.2022 19:52:22.309
448, 1.86182, 359.739, 86.1363, -0.000976562, -0.000976562, 0, 0.0722656, 0.306641, -9.71191, 1.19.2022 19:52:22.317
449, 1.86204, 359.739, 86.1359, 0, 0, 0, 0.0507812, 0.330078, -9.72266, 1.19.2022 19:52:22.325
450, 1.86204, 359.739, 86.1359, 0, 0, 0, 0.0205078, 0.305664, -9.69727, 1.19.2022 19:52:22.333
451, 1.86204, 359.739, 86.1359, 0, 0.000976562, 0, 0.0800781, 0.289062, -9.70117, 1.19.2022 19:52:22.341
452, 1.86204, 359.739, 86.1359, -0.000976562, 0, -0.000976562, -0.0234375, 0.319336, -9.73828, 1.19.2022 19:52:22.349
453, 1.86204, 359.739, 86.1359, 0, 0.000976562, 0, 0.0625, 0.313477, -9.72852, 1.19.2022 19:52:22.357
454, 1.86204, 359.739, 86.1359, 0, 0, -0.000976562, 0.0371094, 0.323242, -9.7041, 1.19.2022 19:52:22.365
455, 1.86204, 359.739, 86.1359, 0, -0.000976562, -0.000976562, -0.0136719, 0.327148, -9.69824, 1.19.2022 19:52:22.373
456, 1.86182, 359.739, 86.1363, 0, 0.000976562, -0.000976562, 0.0839844, 0.30957, -9.75, 1.19.2022 19:52:22.381
457, 1.86182, 359.739, 86.1363, 0, 0.000976562, -0.000976562, 0.0224609, 0.321289, -9.72461, 1.19.2022 19:52:22.389
458, 1.86208, 359.739, 86.1461, -0.000976562, -0.000976562, -0.000976562, 0.0341797, 0.331055, -9.73438, 1.19.2022 19:52:22.397
459, 1.86208, 359.739, 86.1461, 0.000976562, -0.000976562, -0.000976562, 0.0712891, 0.297852, -9.75684, 1.19.2022 19:52:22.405
460, 1.86208, 359.739, 86.1461, 0, 0, -0.000976562, -0.0136719, 0.316406, -9.73438, 1.19.2022 19:52:22.413
461, 1.86208, 359.739, 86.1461, 0, 0, -0.000976562, 0.0673828, 0.321289, -9.72852, 1.19.2022 19:52:22.421
462, 1.86208, 359.739, 86.1461, -0.00195312, 0, -0.000976562, 0.0576172, 0.323242, -9.72363, 1.19.2022 19:52:22.429
463, 1.86208, 359.739, 86.1461, 0, 0, -0.000976562, -0.00488281, 0.329102, -9.7666, 1.19.2022 19:52:22.437
464, 1.86208, 359.739, 86.1461, 0, -0.000976562, -0.000976562, 0.110352, 0.310547, -9.71289, 1.19.2022 19:52:22.445
465, 1.86208, 359.739, 86.1461, 0, 0.000976562, 0, 0.0439453, 0.34375, -9.68262, 1.19.2022 19:52:22.453
466, 1.86208, 359.739, 86.1461, 0, 0, -0.000976562, 0.0605469, 0.348633, -9.70117, 1.19.2022 19:52:22.461
467, 1.86208, 359.739, 86.1461, -0.000976562, 0, -0.000976562, 0.0751953, 0.325195, -9.70898, 1.19.2022 19:52:22.469
468, 1.86208, 359.739, 86.1461, -0.000976562, 0, 0, 0.0117188, 0.34375, -9.74805, 1.19.2022 19:52:22.477
469, 1.86208, 359.739, 86.1461, -0.000976562, 0, -0.000976562, 0.0791016, 0.333008, -9.71582, 1.19.2022 19:52:22.485
470, 1.86208, 359.739, 86.1461, 0.000976562, 0, -0.000976562, 0.0507812, 0.323242, -9.71094, 1.19.2022 19:52:22.493
471, 1.86208, 359.739, 86.1461, 0, 0.000976562, -0.000976562, 0.0351562, 0.307617, -9.76367, 1.19.2022 19:52:22.501
472, 1.86208, 359.739, 86.1461, 0.000976562, 0, 0, 0.0439453, 0.31543, -9.69727, 1.19.2022 19:52:22.509
473, 1.86208, 359.739, 86.1461, 0, 0, 0, -0.0117188, 0.328125, -9.71973, 1.19.2022 19:52:22.517
474, 1.86208, 359.739, 86.1461, 0, 0, -0.000976562, 0.0595703, 0.333008, -9.74219, 1.19.2022 19:52:22.525
475, 1.86208, 359.739, 86.1461, 0, 0, 0, 0.0566406, 0.300781, -9.78027, 1.19.2022 19:52:22.533
476, 1.86208, 359.739, 86.1461, 0, 0, -0.000976562, 0.0146484, 0.324219, -9.74805, 1.19.2022 19:52:22.541
477, 1.86208, 359.739, 86.1461, -0.000976562, 0, -0.000976562, 0.0722656, 0.299805, -9.73633, 1.19.2022 19:52:22.549
478, 1.86208, 359.739, 86.1461, -0.000976562, 0, -0.000976562, 0.00488281, 0.341797, -9.7666, 1.19.2022 19:52:22.557
479, 1.86208, 359.739, 86.1461, -0.000976562, 0, -0.000976562, 0.0390625, 0.317383, -9.69727, 1.19.2022 19:52:22.565
480, 1.86208, 359.739, 86.1461, 0, 0, -0.000976562, 0.0664062, 0.302734, -9.75684, 1.19.2022 19:52:22.573
481, 1.86208, 359.739, 86.1461, 0, 0, -0.000976562, 0.00976562, 0.321289, -9.72266, 1.19.2022 19:52:22.581
482, 1.86208, 359.739, 86.1461, 0, 0.000976562, 0, 0.0761719, 0.294922, -9.73633, 1.19.2022 19:52:22.589
483, 1.86208, 359.739, 86.1461, -0.000976562, 0, -0.000976562, 0.0195312, 0.314453, -9.7373, 1.19.2022 19:52:22.597
484, 1.86208, 359.739, 86.1461, -0.000976562, 0.000976562, -0.000976562, 0.0117188, 0.335938, -9.74316, 1.19.2022 19:52:22.605
485, 1.86686, 359.734, 86.1461, 0, 0.000976562, -0.000976562, 0.0878906, 0.297852, -9.76172, 1.19.2022 19:52:22.613
486, 1.86686, 359.734, 86.1461, 0, 0.000976562, 0, 0.00976562, 0.321289, -9.74609, 1.19.2022 19:52:22.621
487, 1.86686, 359.734, 86.1461, 0, 0, 0, 0.0673828, 0.331055, -9.73535, 1.19.2022 19:52:22.629
488, 1.86686, 359.734, 86.1461, 0, 0, -0.000976562, 0.0644531, 0.316406, -9.74023, 1.19.2022 19:52:22.637
489, 1.86663, 359.734, 86.1465, -0.000976562, 0, 0, 0.0205078, 0.34375, -9.69824, 1.19.2022 19:52:22.645
490, 1.86663, 359.734, 86.1465, -0.000976562, 0, -0.000976562, 0.0917969, 0.314453, -9.68164, 1.19.2022 19:52:22.653
491, 1.8669, 359.734, 86.1564, 0, 0.000976562, -0.000976562, 0.00292969, 0.30957, -9.74609, 1.19.2022 19:52:22.661
492, 1.8669, 359.734, 86.1564, -0.000976562, -0.000976562, 0, 0.03125, 0.337891, -9.73633, 1.19.2022 19:52:22.669
493, 1.8669, 359.734, 86.1564, -0.00195312, -0.00195312, 0, 0.0722656, 0.299805, -9.72656, 1.19.2022 19:52:22.677
494, 1.8669, 359.734, 86.1564, 0, -0.000976562, 0, -0.00683594, 0.316406, -9.71484, 1.19.2022 19:52:22.685
495, 1.8669, 359.734, 86.1564, 0, -0.000976562, -0.000976562, 0.0751953, 0.305664, -9.67676, 1.19.2022 19:52:22.693
496, 1.8669, 359.734, 86.1564, 0, -0.000976562, -0.000976562, 0.03125, 0.294922, -9.7168, 1.19.2022 19:52:22.701
497, 1.8669, 359.734, 86.1564, -0.000976562, -0.000976562, 0, 0.0283203, 0.331055, -9.75098, 1.19.2022 19:52:22.709
498, 1.8669, 359.734, 86.1564, 0, -0.000976562, 0, 0.0791016, 0.31543, -9.71191, 1.19.2022 19:52:22.717
499, 1.8669, 359.734, 86.1564, 0, -0.000976562, 0.000976562, 0.00878906, 0.34375, -9.69141, 1.19.2022 19:52:22.725
500, 1.8669, 359.734, 86.1564, 0, -0.00195312, -0.000976562, 0.0429688, 0.329102, -9.76953, 1.19.2022 19:52:22.733
501, 1.8669, 359.734, 86.1564, 0, -0.000976562, -0.000976562, 0.0712891, 0.292969, -9.75977, 1.19.2022 19:52:22.741
502, 1.8669, 359.734, 86.1564, 0, -0.000976562, -0.000976562, -0.00195312, 0.325195, -9.70801, 1.19.2022 19:52:22.749
503, 1.86667, 359.734, 86.1567, 0.000976562, -0.000976562, -0.000976562, 0.0839844, 0.304688, -9.72656, 1.19.2022 19:52:22.757
504, 1.86667, 359.734, 86.1567, 0, -0.000976562, -0.000976562, 0.0458984, 0.328125, -9.70605, 1.19.2022 19:52:22.765
505, 1.86667, 359.734, 86.1567, 0, -0.000976562, 0, 0.015625, 0.325195, -9.69922, 1.19.2022 19:52:22.773
506, 1.86667, 359.734, 86.1567, 0, 0, 0, 0.0839844, 0.30957, -9.74023, 1.19.2022 19:52:22.781
507, 1.86667, 359.734, 86.1567, 0, -0.000976562, -0.000976562, 0.0263672, 0.323242, -9.72461, 1.19.2022 19:52:22.789
508, 1.86667, 359.734, 86.1567, 0, -0.000976562, -0.000976562, 0.09375, 0.311523, -9.72656, 1.19.2022 19:52:22.797
509, 1.8619, 359.74, 86.1567, 0, -0.00195312, -0.000976562, 0.0556641, 0.298828, -9.71191, 1.19.2022 19:52:22.805
510, 1.8619, 359.74, 86.1567, -0.000976562, -0.00195312, -0.000976562, 0.0078125, 0.339844, -9.72461, 1.19.2022 19:52:22.813
511, 1.8619, 359.74, 86.1567, 0, -0.000976562, -0.000976562, 0.0888672, 0.306641, -9.73633, 1.19.2022 19:52:22.821
512, 1.8619, 359.74, 86.1567, 0, -0.000976562, 0, 0.03125, 0.333984, -9.75098, 1.19.2022 19:52:22.829
513, 1.86212, 359.739, 86.1564, 0, -0.000976562, 0, 0.0244141, 0.321289, -9.72754, 1.19.2022 19:52:22.837
514, 1.86212, 359.739, 86.1564, -0.000976562, -0.000976562, 0, 0.0625, 0.323242, -9.71582, 1.19.2022 19:52:22.845
515, 1.86212, 359.739, 86.1564, -0.000976562, -0.00195312, 0, 0.0166016, 0.316406, -9.74414, 1.19.2022 19:52:22.853
516, 1.86212, 359.739, 86.1564, 0, -0.00195312, -0.000976562, 0.0693359, 0.294922, -9.73828, 1.19.2022 19:52:22.861
517, 1.86212, 359.739, 86.1564, 0.000976562, -0.00195312, 0, 0.0175781, 0.294922, -9.73047, 1.19.2022 19:52:22.869
518, 1.86212, 359.739, 86.1564, 0, -0.00195312, 0, 0.0078125, 0.330078, -9.71973, 1.19.2022 19:52:22.877
519, 1.86212, 359.739, 86.1564, 0, -0.000976562, -0.000976562, 0.0957031, 0.287109, -9.71582, 1.19.2022 19:52:22.885
520, 1.86212, 359.739, 86.1564, -0.000976562, -0.000976562, -0.000976562, 0.015625, 0.303711, -9.69434, 1.19.2022 19:52:22.893
521, 1.86212, 359.739, 86.1564, -0.000976562, -0.000976562, -0.000976562, 0.0644531, 0.331055, -9.73535, 1.19.2022 19:52:22.901
522, 1.86212, 359.739, 86.1564, 0, -0.00195312, -0.000976562, 0.0605469, 0.31543, -9.71191, 1.19.2022 19:52:22.909
523, 1.86212, 359.739, 86.1564, 0, -0.000976562, 0, 0.0126953, 0.325195, -9.71289, 1.19.2022 19:52:22.917
524, 1.86212, 359.739, 86.1564, 0, -0.00195312, 0, 0.0742188, 0.318359, -9.72852, 1.19.2022 19:52:22.925
525, 1.86212, 359.739, 86.1564, 0, 0, 0, 0.0078125, 0.31543, -9.70117, 1.19.2022 19:52:22.933
526, 1.86212, 359.739, 86.1564, -0.000976562, 0, 0, 0.0273438, 0.328125, -9.71582, 1.19.2022 19:52:22.941
527, 1.86212, 359.739, 86.1564, -0.000976562, 0, -0.000976562, 0.0791016, 0.31543, -9.70996, 1.19.2022 19:52:22.949
528, 1.86212, 359.739, 86.1564, 0, 0, 0, 0.0175781, 0.339844, -9.70508, 1.19.2022 19:52:22.957
529, 1.86212, 359.739, 86.1564, 0.000976562, 0, -0.000976562, 0.0439453, 0.323242, -9.7207, 1.19.2022 19:52:22.965
530, 1.86212, 359.739, 86.1564, -0.000976562, 0, 0, 0.0625, 0.316406, -9.73242, 1.19.2022 19:52:22.973
531, 1.86212, 359.739, 86.1564, -0.000976562, 0, 0, 0.0195312, 0.332031, -9.75586, 1.19.2022 19:52:22.981
532, 1.86212, 359.739, 86.1564, 0, 0.000976562, 0, 0.0986328, 0.313477, -9.73145, 1.19.2022 19:52:22.989
533, 1.86212, 359.739, 86.1564, 0, 0, 0, 0.0273438, 0.334961, -9.71289, 1.19.2022 19:52:22.997
534, 1.86212, 359.739, 86.1564, 0, 0, 0, 0.0585938, 0.320312, -9.7041, 1.19.2022 19:52:23.003
535, 1.86212, 359.739, 86.1564, -0.000976562, 0, -0.000976562, 0.0605469, 0.320312, -9.7041, 1.19.2022 19:52:23.011
536, 1.86186, 359.739, 86.1465, 0.000976562, 0.000976562, -0.000976562, 0, 0.348633, -9.7666, 1.19.2022 19:52:23.019
537, 1.86186, 359.739, 86.1465, 0, 0, 0, 0.0888672, 0.300781, -9.70312, 1.19.2022 19:52:23.027
538, 1.86208, 359.739, 86.1461, 0.000976562, 0, 0, 0.0244141, 0.311523, -9.73438, 1.19.2022 19:52:23.035
539, 1.86208, 359.739, 86.1461, 0, 0, -0.000976562, 0.0195312, 0.34082, -9.75781, 1.19.2022 19:52:23.043
540, 1.86208, 359.739, 86.1461, 0, 0.000976562, -0.000976562, 0.0908203, 0.304688, -9.75293, 1.19.2022 19:52:23.051
541, 1.86208, 359.739, 86.1461, -0.000976562, -0.000976562, 0, 0.0224609, 0.321289, -9.71582, 1.19.2022 19:52:23.059
542, 1.86208, 359.739, 86.1461, 0, 0.000976562, 0, 0.0732422, 0.322266, -9.67578, 1.19.2022 19:52:23.067
543, 1.86682, 359.734, 86.1359, -0.000976562, 0, 0, 0.0791016, 0.303711, -9.72168, 1.19.2022 19:52:23.075
544, 1.86682, 359.734, 86.1359, 0, 0, 0, 0.00390625, 0.34375, -9.69531, 1.19.2022 19:52:23.083
545, 1.86682, 359.734, 86.1359, 0, 0, -0.000976562, 0.100586, 0.311523, -9.7168, 1.19.2022 19:52:23.091
546, 1.86682, 359.734, 86.1359, 0, 0, -0.000976562, 0.015625, 0.333984, -9.68945, 1.19.2022 19:52:23.099
547, 1.86682, 359.734, 86.1359, 0.000976562, -0.000976562, -0.000976562, 0.0341797, 0.339844, -9.71777, 1.19.2022 19:52:23.107
548, 1.86682, 359.734, 86.1359, 0, 0, 0, 0.0644531, 0.314453, -9.74219, 1.19.2022 19:52:23.115
549, 1.86682, 359.734, 86.1359, 0.000976562, 0, -0.000976562, 0.015625, 0.341797, -9.69824, 1.19.2022 19:52:23.123
550, 1.86682, 359.734, 86.1359, 0, 0.000976562, 0.000976562, 0.0478516, 0.328125, -9.72266, 1.19.2022 19:52:23.131
551, 1.86656, 359.734, 86.1261, -0.000976562, 0, 0, 0.0390625, 0.323242, -9.72949, 1.19.2022 19:52:23.139
552, 1.86678, 359.734, 86.1257, 0, 0, 0, 0.0478516, 0.333008, -9.73242, 1.19.2022 19:52:23.147
553, 1.86678, 359.734, 86.1257, 0, 0, -0.000976562, 0.124023, 0.30957, -9.75781, 1.19.2022 19:52:23.155
554, 1.86678, 359.734, 86.1257, -0.000976562, 0.000976562, -0.000976562, 0.0341797, 0.337891, -9.72949, 1.19.2022 19:52:23.163
555, 1.86678, 359.734, 86.1257, 0, 0, 0, 0.0361328, 0.333008, -9.71582, 1.19.2022 19:52:23.171
556, 1.86678, 359.734, 86.1257, -0.000976562, -0.000976562, 0, 0.09375, 0.303711, -9.70801, 1.19.2022 19:52:23.179
557, 1.86678, 359.734, 86.1257, 0, -0.00195312, -0.000976562, 0.0195312, 0.324219, -9.74414, 1.19.2022 19:52:23.187
558, 1.86678, 359.734, 86.1257, 0, -0.000976562, -0.00195312, 0.0791016, 0.266602, -9.73242, 1.19.2022 19:52:23.195
559, 1.86678, 359.734, 86.1257, 0, -0.00195312, -0.000976562, 0.0605469, 0.305664, -9.70215, 1.19.2022 19:52:23.203
560, 1.86674, 359.734, 86.1155, 0, -0.00195312, 0, 0.0322266, 0.334961, -9.71582, 1.19.2022 19:52:23.211
561, 1.86674, 359.734, 86.1155, 0, -0.00195312, -0.000976562, 0.0546875, 0.297852, -9.73828, 1.19.2022 19:52:23.219
562, 1.86674, 359.734, 86.1155, -0.000976562, -0.000976562, 0, -0.00878906, 0.331055, -9.72656, 1.19.2022 19:52:23.227
563, 1.86674, 359.734, 86.1155, -0.000976562, -0.00195312, 0, 0.0410156, 0.314453, -9.7373, 1.19.2022 19:52:23.235
564, 1.86674, 359.734, 86.1155, -0.000976562, -0.00195312, 0, 0.0507812, 0.311523, -9.71191, 1.19.2022 19:52:23.243
565, 1.86674, 359.734, 86.1155, -0.000976562, 0.000976562, 0, 0.0166016, 0.321289, -9.74414, 1.19.2022 19:52:23.251
566, 1.8667, 359.734, 86.1053, -0.000976562, -0.000976562, -0.000976562, 0.0722656, 0.285156, -9.73828, 1.19.2022 19:52:23.259
567, 1.8667, 359.734, 86.1053, -0.000976562, -0.000976562, -0.000976562, 0.000976562, 0.336914, -9.70312, 1.19.2022 19:52:23.267
568, 1.8667, 359.734, 86.1053, 0, -0.000976562, 0, 0.0410156, 0.318359, -9.70898, 1.19.2022 19:52:23.275
569, 1.8667, 359.734, 86.1053, 0, -0.000976562, 0, 0.0546875, 0.291016, -9.76172, 1.19.2022 19:52:23.283
570, 1.8667, 359.734, 86.1053, -0.000976562, -0.000976562, 0, -0.00195312, 0.338867, -9.74316, 1.19.2022 19:52:23.291
571, 1.86692, 359.733, 86.1049, 0, 0.000976562, 0, 0.0654297, 0.313477, -9.70215, 1.19.2022 19:52:23.299
572, 1.86666, 359.733, 86.0951, 0, -0.000976562, 0, 0.0390625, 0.298828, -9.69531, 1.19.2022 19:52:23.307
573, 1.86666, 359.733, 86.0951, -0.000976562, -0.000976562, 0, 0.0390625, 0.323242, -9.72754, 1.19.2022 19:52:23.315
574, 1.87177, 359.738, 86.0949, -0.000976562, -0.00195312, 0, 0.0888672, 0.314453, -9.73828, 1.19.2022 19:52:23.323
575, 1.87177, 359.738, 86.0949, 0, -0.00195312, 0, 0.0322266, 0.320312, -9.71094, 1.19.2022 19:52:23.331
576, 1.87177, 359.738, 86.0949, -0.000976562, -0.000976562, -0.000976562, 0.0458984, 0.299805, -9.74219, 1.19.2022 19:52:23.339
577, 1.87199, 359.738, 86.0946, 0, -0.000976562, -0.000976562, 0.0429688, 0.302734, -9.74219, 1.19.2022 19:52:23.347
578, 1.87199, 359.738, 86.0946, -0.000976562, -0.00195312, 0, -0.0107422, 0.325195, -9.69824, 1.19.2022 19:52:23.355
579, 1.87173, 359.738, 86.0847, -0.000976562, -0.000976562, 0.000976562, 0.0673828, 0.304688, -9.73828, 1.19.2022 19:52:23.363
580, 1.87173, 359.738, 86.0847, -0.000976562, -0.00195312, 0, 0.0332031, 0.286133, -9.75488, 1.19.2022 19:52:23.371
581, 1.87173, 359.738, 86.0847, -0.000976562, -0.00195312, 0, 0.0175781, 0.330078, -9.71289, 1.19.2022 19:52:23.379
582, 1.87173, 359.738, 86.0847, -0.000976562, -0.000976562, -0.000976562, 0.0576172, 0.297852, -9.74707, 1.19.2022 19:52:23.387
583, 1.87195, 359.738, 86.0843, -0.000976562, -0.00195312, 0, 0.0078125, 0.335938, -9.72656, 1.19.2022 19:52:23.395
584, 1.87195, 359.738, 86.0843, -0.000976562, -0.00195312, -0.000976562, 0.0703125, 0.325195, -9.71191, 1.19.2022 19:52:23.403
585, 1.87169, 359.738, 86.0745, -0.000976562, -0.00195312, 0, 0.0380859, 0.297852, -9.7373, 1.19.2022 19:52:23.411
586, 1.87169, 359.738, 86.0745, 0, -0.000976562, 0, 0.0224609, 0.332031, -9.68945, 1.19.2022 19:52:23.419
587, 1.87169, 359.738, 86.0745, -0.000976562, -0.000976562, -0.000976562, 0.0820312, 0.307617, -9.68652, 1.19.2022 19:52:23.427
588, 1.87169, 359.738, 86.0745, 0, -0.000976562, -0.000976562, 0.0175781, 0.301758, -9.71875, 1.19.2022 19:52:23.435
589, 1.87169, 359.738, 86.0745, -0.000976562, -0.000976562, -0.000976562, 0.0390625, 0.334961, -9.71777, 1.19.2022 19:52:23.443
590, 1.87191, 359.738, 86.0741, -0.000976562, -0.000976562, 0, 0.0673828, 0.306641, -9.73047, 1.19.2022 19:52:23.451
591, 1.87191, 359.738, 86.0741, -0.000976562, 0, 0, -0.00488281, 0.355469, -9.75195, 1.19.2022 19:52:23.459
592, 1.87191, 359.738, 86.0741, 0, 0, -0.000976562, 0.102539, 0.291992, -9.72754, 1.19.2022 19:52:23.467
593, 1.87165, 359.738, 86.0642, -0.000976562, 0, -0.000976562, 0.0625, 0.282227, -9.70508, 1.19.2022 19:52:23.475
594, 1.87165, 359.738, 86.0642, -0.00195312, 0, -0.000976562, 0.0107422, 0.322266, -9.6875, 1.19.2022 19:52:23.483
595, 1.87165, 359.738, 86.0642, -0.00195312, 0.000976562, -0.000976562, 0.09375, 0.299805, -9.7334, 1.19.2022 19:52:23.491
596, 1.87165, 359.738, 86.0642, -0.000976562, 0, 0, 0.0195312, 0.347656, -9.72852, 1.19.2022 19:52:23.499
597, 1.87165, 359.738, 86.0642, -0.000976562, 0, 0, 0.0390625, 0.316406, -9.72559, 1.19.2022 19:52:23.507
598, 1.87165, 359.738, 86.0642, -0.000976562, 0, 0, 0.0673828, 0.316406, -9.72852, 1.19.2022 19:52:23.515
599, 1.87187, 359.738, 86.0639, 0, 0, 0, -0.0117188, 0.307617, -9.76074, 1.19.2022 19:52:23.523
600, 1.87187, 359.738, 86.0639, -0.000976562, 0, -0.000976562, 0.0830078, 0.286133, -9.75488, 1.19.2022 19:52:23.531
601, 1.87664, 359.732, 86.0639, -0.000976562, 0.000976562, 0, 0.0244141, 0.313477, -9.70215, 1.19.2022 19:52:23.539
602, 1.87638, 359.732, 86.054, -0.000976562, 0, 0, 0.0244141, 0.290039, -9.74219, 1.19.2022 19:52:23.547
603, 1.87638, 359.732, 86.054, 0, 0, -0.000976562, 0.0791016, 0.290039, -9.74609, 1.19.2022 19:52:23.555
604, 1.87638, 359.732, 86.054, 0, 0, 0, -0.00683594, 0.323242, -9.72168, 1.19.2022 19:52:23.563
605, 1.87638, 359.732, 86.054, 0, 0, -0.000976562, 0.0644531, 0.314453, -9.73047, 1.19.2022 19:52:23.571
606, 1.87638, 359.732, 86.054, 0, 0, 0, 0.0478516, 0.306641, -9.7373, 1.19.2022 19:52:23.579
607, 1.87638, 359.732, 86.054, -0.000976562, 0, -0.000976562, 0.0302734, 0.331055, -9.66602, 1.19.2022 19:52:23.587
608, 1.8766, 359.732, 86.0537, -0.000976562, 0, -0.000976562, 0.0976562, 0.306641, -9.73828, 1.19.2022 19:52:23.595
609, 1.8766, 359.732, 86.0537, 0, 0, -0.000976562, 0.0244141, 0.308594, -9.72266, 1.19.2022 19:52:23.603
610, 1.8766, 359.732, 86.0537, 0, 0.000976562, 0, 0.0546875, 0.336914, -9.76562, 1.19.2022 19:52:23.611
611, 1.8766, 359.732, 86.0537, 0, 0, 0, 0.0615234, 0.310547, -9.76367, 1.19.2022 19:52:23.619
612, 1.8766, 359.732, 86.0537, -0.000976562, 0.000976562, -0.000976562, 0.00488281, 0.313477, -9.72461, 1.19.2022 19:52:23.627
613, 1.8766, 359.732, 86.0537, -0.000976562, 0, 0, 0.0625, 0.290039, -9.72461, 1.19.2022 19:52:23.635
614, 1.8766, 359.732, 86.0537, -0.000976562, -0.000976562, 0, 0.0390625, 0.334961, -9.70801, 1.19.2022 19:52:23.643
615, 1.8766, 359.732, 86.0537, 0, 0, 0, 0.0263672, 0.347656, -9.74121, 1.19.2022 19:52:23.651
616, 1.8766, 359.732, 86.0537, 0, 0, -0.000976562, 0.0673828, 0.311523, -9.73535, 1.19.2022 19:52:23.659
617, 1.8766, 359.732, 86.0537, -0.000976562, 0, 0, 0.00292969, 0.342773, -9.7168, 1.19.2022 19:52:23.667
618, 1.8766, 359.732, 86.0537, 0, 0, 0, 0.0527344, 0.304688, -9.72559, 1.19.2022 19:52:23.675
619, 1.8766, 359.732, 86.0537, 0, 0, 0, 0.0625, 0.311523, -9.74023, 1.19.2022 19:52:23.683
620, 1.8766, 359.732, 86.0537, 0, 0, -0.000976562, 0.0341797, 0.320312, -9.69434, 1.19.2022 19:52:23.691
621, 1.8766, 359.732, 86.0537, 0, -0.000976562, 0, 0.107422, 0.277344, -9.7207, 1.19.2022 19:52:23.699
622, 1.8766, 359.732, 86.0537, 0, 0.000976562, -0.000976562, 0.0175781, 0.299805, -9.71875, 1.19.2022 19:52:23.707
623, 1.87149, 359.728, 86.0538, 0, 0.000976562, 0, 0.0478516, 0.328125, -9.72949, 1.19.2022 19:52:23.715
624, 1.87149, 359.728, 86.0538, 0, 0.000976562, 0, 0.0742188, 0.326172, -9.74023, 1.19.2022 19:52:23.723
625, 1.87149, 359.728, 86.0538, 0, -0.000976562, -0.000976562, -0.0166016, 0.345703, -9.75, 1.19.2022 19:52:23.731
626, 1.87149, 359.728, 86.0538, 0, -0.00292969, -0.000976562, 0.0478516, 0.317383, -9.76562, 1.19.2022 19:52:23.739
627, 1.86672, 359.733, 86.0538, 0, -0.000976562, -0.000976562, 0.0283203, 0.3125, -9.75098, 1.19.2022 19:52:23.747
628, 1.86672, 359.733, 86.0538, -0.000976562, -0.000976562, -0.000976562, -0.00878906, 0.333008, -9.71973, 1.19.2022 19:52:23.755
629, 1.86672, 359.733, 86.0538, -0.000976562, -0.00195312, -0.000976562, 0.0888672, 0.313477, -9.7168, 1.19.2022 19:52:23.763
630, 1.86672, 359.733, 86.0538, -0.000976562, -0.00195312, -0.000976562, -0.00878906, 0.316406, -9.72656, 1.19.2022 19:52:23.771
631, 1.86672, 359.733, 86.0538, 0, -0.000976562, -0.000976562, 0.0332031, 0.326172, -9.75098, 1.19.2022 19:52:23.779
632, 1.86646, 359.733, 86.0439, -0.000976562, 0.000976562, 0, 0.0546875, 0.324219, -9.74902, 1.19.2022 19:52:23.787
633, 1.86646, 359.733, 86.0439, 0, -0.000976562, 0.000976562, 0.0126953, 0.328125, -9.71484, 1.19.2022 19:52:23.795
634, 1.86646, 359.733, 86.0439, 0.000976562, -0.00195312, 0.000976562, 0.100586, 0.290039, -9.74414, 1.19.2022 19:52:23.803
635, 1.86646, 359.733, 86.0439, 0, -0.00195312, 0, 0.0175781, 0.318359, -9.71777, 1.19.2022 19:52:23.811
636, 1.86646, 359.733, 86.0439, 0, -0.00195312, -0.000976562, 0.0537109, 0.322266, -9.69238, 1.19.2022 19:52:23.819
637, 1.86668, 359.733, 86.0436, 0, -0.000976562, 0, 0.0605469, 0.320312, -9.7041, 1.19.2022 19:52:23.827
638, 1.86668, 359.733, 86.0436, 0, -0.000976562, 0, -0.00195312, 0.357422, -9.73828, 1.19.2022 19:52:23.835
639, 1.86668, 359.733, 86.0436, 0, -0.000976562, 0, 0.0703125, 0.325195, -9.71191, 1.19.2022 19:52:23.843
640, 1.86668, 359.733, 86.0436, -0.000976562, 0.000976562, 0, 0.0556641, 0.330078, -9.71777, 1.19.2022 19:52:23.851
641, 1.86668, 359.733, 86.0436, 0.000976562, -0.000976562, -0.000976562, 0.000976562, 0.326172, -9.72461, 1.19.2022 19:52:23.859
642, 1.86668, 359.733, 86.0436, 0, -0.000976562, 0, 0.0869141, 0.322266, -9.70215, 1.19.2022 19:52:23.867
643, 1.86668, 359.733, 86.0436, 0, -0.000976562, 0, 0.00976562, 0.288086, -9.73535, 1.19.2022 19:52:23.875
644, 1.86668, 359.733, 86.0436, -0.000976562, -0.000976562, 0, 0.0498047, 0.314453, -9.74707, 1.19.2022 19:52:23.883
645, 1.86642, 359.732, 86.0337, -0.000976562, 0.000976562, 0, 0.0556641, 0.298828, -9.70215, 1.19.2022 19:52:23.891
646, 1.86642, 359.732, 86.0337, 0, -0.000976562, 0, 0.000976562, 0.328125, -9.70801, 1.19.2022 19:52:23.899
647, 1.86642, 359.732, 86.0337, 0, -0.000976562, -0.000976562, 0.0771484, 0.321289, -9.73047, 1.19.2022 19:52:23.907
648, 1.86642, 359.732, 86.0337, -0.000976562, -0.000976562, -0.000976562, 0.0439453, 0.298828, -9.7168, 1.19.2022 19:52:23.915
649, 1.86664, 359.732, 86.0334, -0.000976562, -0.000976562, -0.000976562, 0.015625, 0.318359, -9.7041, 1.19.2022 19:52:23.923
650, 1.86664, 359.732, 86.0334, 0, -0.000976562, -0.00195312, 0.0761719, 0.306641, -9.74023, 1.19.2022 19:52:23.931
651, 1.86664, 359.732, 86.0334, 0, -0.00195312, 0, -0.00488281, 0.341797, -9.76855, 1.19.2022 19:52:23.939
652, 1.86664, 359.732, 86.0334, -0.000976562, -0.000976562, 0, 0.0625, 0.324219, -9.74414, 1.19.2022 19:52:23.947
653, 1.86664, 359.732, 86.0334, 0, 0, 0, 0.0478516, 0.296875, -9.7334, 1.19.2022 19:52:23.955
654, 1.86638, 359.732, 86.0235, 0, 0, 0, -0.0136719, 0.323242, -9.71973, 1.19.2022 19:52:23.961
655, 1.86638, 359.732, 86.0235, 0, -0.00195312, 0, 0.0576172, 0.283203, -9.72656, 1.19.2022 19:52:23.969
656, 1.8666, 359.732, 86.0231, 0, 0, -0.000976562, 0.0429688, 0.3125, -9.74707, 1.19.2022 19:52:23.977
657, 1.8666, 359.732, 86.0231, 0, 0.000976562, 0, 0.0332031, 0.292969, -9.74512, 1.19.2022 19:52:23.985
658, 1.8666, 359.732, 86.0231, 0, 0.000976562, 0, 0.0625, 0.325195, -9.71094, 1.19.2022 19:52:23.993
659, 1.8666, 359.732, 86.0231, -0.000976562, 0, 0, 0.0234375, 0.34375, -9.7627, 1.19.2022 19:52:24.001
660, 1.86634, 359.732, 86.0133, 0, 0, 0, 0.0703125, 0.306641, -9.71484, 1.19.2022 19:52:24.009
661, 1.86634, 359.732, 86.0133, 0, 0, 0, 0.0458984, 0.316406, -9.73926, 1.19.2022 19:52:24.017
662, 1.86656, 359.732, 86.0129, 0, -0.00195312, -0.000976562, 0.00976562, 0.333984, -9.74316, 1.19.2022 19:52:24.025
663, 1.86656, 359.732, 86.0129, 0, -0.00195312, -0.000976562, 0.0957031, 0.298828, -9.71777, 1.19.2022 19:52:24.033
664, 1.86179, 359.737, 86.0129, 0.000976562, 0, -0.000976562, 0.0292969, 0.354492, -9.71973, 1.19.2022 19:52:24.041
665, 1.86179, 359.737, 86.0129, 0.000976562, 0, 0, 0.0410156, 0.314453, -9.75586, 1.19.2022 19:52:24.049
666, 1.86179, 359.737, 86.0129, 0, 0, -0.000976562, 0.0546875, 0.316406, -9.74023, 1.19.2022 19:52:24.057
667, 1.86179, 359.737, 86.0129, -0.000976562, 0.000976562, 0, 0.00976562, 0.350586, -9.75684, 1.19.2022 19:52:24.065
668, 1.86153, 359.737, 86.003, 0, 0.000976562, 0, 0.103516, 0.301758, -9.72168, 1.19.2022 19:52:24.073
669, 1.86652, 359.732, 86.0027, -0.000976562, 0, -0.000976562, 0.0478516, 0.323242, -9.7207, 1.19.2022 19:52:24.081
670, 1.86176, 359.737, 86.0027, 0, -0.00195312, 0, 0.0478516, 0.352539, -9.74121, 1.19.2022 19:52:24.089
671, 1.86176, 359.737, 86.0027, -0.000976562, 0, -0.000976562, 0.0722656, 0.298828, -9.69531, 1.19.2022 19:52:24.097
672, 1.86176, 359.737, 86.0027, 0, 0, -0.000976562, 0.0078125, 0.301758, -9.73242, 1.19.2022 19:52:24.105
673, 1.86652, 359.732, 86.0027, 0, 0.000976562, -0.000976562, 0.0556641, 0.332031, -9.70605, 1.19.2022 19:52:24.113
674, 1.86652, 359.732, 86.0027, 0, 0, 0, 0.0742188, 0.299805, -9.72363, 1.19.2022 19:52:24.121
675, 1.86652, 359.732, 86.0027, -0.000976562, -0.00195312, -0.000976562, 0.0390625, 0.344727, -9.70801, 1.19.2022 19:52:24.129
676, 1.86176, 359.737, 86.0027, 0, -0.00195312, 0, 0.102539, 0.324219, -9.74316, 1.19.2022 19:52:24.137
677, 1.86176, 359.737, 86.0027, 0, 0, 0, 0.0322266, 0.327148, -9.69434, 1.19.2022 19:52:24.145
678, 1.86176, 359.737, 86.0027, 0, -0.00195312, 0, 0.0390625, 0.323242, -9.72754, 1.19.2022 19:52:24.153
679, 1.86176, 359.737, 86.0027, 0, -0.00195312, -0.000976562, 0.0605469, 0.296875, -9.7168, 1.19.2022 19:52:24.161
680, 1.86176, 359.737, 86.0027, 0, 0, -0.00195312, 0.0166016, 0.322266, -9.75781, 1.19.2022 19:52:24.169
681, 1.86176, 359.737, 86.0027, 0, 0, -0.000976562, 0.0654297, 0.3125, -9.69336, 1.19.2022 19:52:24.177
682, 1.86176, 359.737, 86.0027, 0, 0, 0, 0.0439453, 0.308594, -9.72363, 1.19.2022 19:52:24.185
683, 1.86176, 359.737, 86.0027, 0, 0.000976562, 0, 0.0410156, 0.326172, -9.73242, 1.19.2022 19:52:24.193
684, 1.86176, 359.737, 86.0027, 0, 0, 0, 0.0908203, 0.296875, -9.72168, 1.19.2022 19:52:24.201
685, 1.86176, 359.737, 86.0027, -0.000976562, 0, 0, 0.015625, 0.310547, -9.70605, 1.19.2022 19:52:24.209
686, 1.86176, 359.737, 86.0027, 0, 0, -0.000976562, 0.0390625, 0.31543, -9.71094, 1.19.2022 19:52:24.217
687, 1.86176, 359.737, 86.0027, -0.000976562, 0, -0.000976562, 0.0507812, 0.304688, -9.72559, 1.19.2022 19:52:24.225
688, 1.86652, 359.732, 86.0027, -0.000976562, 0, -0.000976562, 0.0175781, 0.356445, -9.72168, 1.19.2022 19:52:24.233
689, 1.86652, 359.732, 86.0027, -0.000976562, -0.00195312, 0, 0.124023, 0.287109, -9.72559, 1.19.2022 19:52:24.241
690, 1.86652, 359.732, 86.0027, -0.000976562, -0.00195312, 0, 0.0634766, 0.291016, -9.69336, 1.19.2022 19:52:24.249
691, 1.87164, 359.737, 86.0025, 0, -0.00195312, -0.000976562, 0.0527344, 0.325195, -9.71387, 1.19.2022 19:52:24.257
692, 1.87164, 359.737, 86.0025, -0.000976562, -0.00195312, -0.000976562, 0.0839844, 0.297852, -9.74121, 1.19.2022 19:52:24.265
693, 1.87164, 359.737, 86.0025, -0.000976562, -0.00195312, -0.000976562, -0.0195312, 0.333984, -9.75977, 1.19.2022 19:52:24.273
694, 1.87164, 359.737, 86.0025, -0.000976562, -0.00292969, -0.000976562, 0.0673828, 0.311523, -9.72168, 1.19.2022 19:52:24.281
695, 1.86687, 359.742, 86.0025, 0, -0.00195312, -0.000976562, 0.0625, 0.321289, -9.74219, 1.19.2022 19:52:24.289
696, 1.86687, 359.742, 86.0025, 0, 0, -0.000976562, 0.0107422, 0.325195, -9.71289, 1.19.2022 19:52:24.297
697, 1.86687, 359.742, 86.0025, -0.000976562, -0.00195312, -0.000976562, 0.0888672, 0.30957, -9.73145, 1.19.2022 19:52:24.305
698, 1.86687, 359.742, 86.0025, -0.000976562, -0.00195312, 0, 0.0224609, 0.31543, -9.69238, 1.19.2022 19:52:24.313
699, 1.86687, 359.742, 86.0025, -0.000976562, 0, -0.000976562, 0.0439453, 0.298828, -9.7168, 1.19.2022 19:52:24.321
700, 1.86687, 359.742, 86.0025, 0, -0.00195312, 0, 0.0527344, 0.314453, -9.74023, 1.19.2022 19:52:24.329
701, 1.86687, 359.742, 86.0025, 0, -0.00195312, 0, 0.00292969, 0.342773, -9.72656, 1.19.2022 19:52:24.337
702, 1.86687, 359.742, 86.0025, -0.000976562, 0, 0, 0.0869141, 0.300781, -9.69336, 1.19.2022 19:52:24.345
703, 1.86661, 359.742, 85.9927, 0, -0.00195312, -0.000976562, 0.0390625, 0.289062, -9.70215, 1.19.2022 19:52:24.353
704, 1.86661, 359.742, 85.9927, -0.000976562, 0, -0.00195312, 0.0166016, 0.319336, -9.75586, 1.19.2022 19:52:24.361
705, 1.86683, 359.742, 85.9923, 0, 0, 0, 0.0859375, 0.310547, -9.76367, 1.19.2022 19:52:24.369
706, 1.8716, 359.736, 85.9923, 0, 0.000976562, -0.000976562, 0.0126953, 0.328125, -9.72949, 1.19.2022 19:52:24.377
707, 1.8716, 359.736, 85.9923, 0, 0, -0.000976562, 0.0478516, 0.313477, -9.7207, 1.19.2022 19:52:24.385
708, 1.8716, 359.736, 85.9923, 0, -0.00195312, -0.000976562, 0.0693359, 0.301758, -9.72363, 1.19.2022 19:52:24.393
709, 1.8716, 359.736, 85.9923, -0.00292969, -0.00195312, -0.000976562, -0.000976562, 0.338867, -9.68652, 1.19.2022 19:52:24.401
710, 1.8716, 359.736, 85.9923, -0.000976562, -0.00195312, -0.000976562, 0.105469, 0.299805, -9.73438, 1.19.2022 19:52:24.409
711, 1.8716, 359.736, 85.9923, -0.000976562, 0, -0.000976562, 0.0439453, 0.320312, -9.70215, 1.19.2022 19:52:24.417
712, 1.8716, 359.736, 85.9923, 0, 0, -0.000976562, 0.03125, 0.333008, -9.71777, 1.19.2022 19:52:24.425
713, 1.87133, 359.736, 85.9824, 0, -0.00195312, 0, 0.0791016, 0.321289, -9.72168, 1.19.2022 19:52:24.433
714, 1.87156, 359.736, 85.9821, 0, -0.00195312, -0.000976562, -0.00195312, 0.354492, -9.70996, 1.19.2022 19:52:24.441
715, 1.87667, 359.741, 85.9819, -0.000976562, 0, -0.000976562, 0.0742188, 0.326172, -9.74414, 1.19.2022 19:52:24.449
716, 1.87667, 359.741, 85.9819, -0.000976562, -0.00195312, 0, 0.0625, 0.316406, -9.74219, 1.19.2022 19:52:24.457
717, 1.87667, 359.741, 85.9819, 0, 0, 0, 0.00292969, 0.331055, -9.73828, 1.19.2022 19:52:24.465
718, 1.87667, 359.741, 85.9819, 0, -0.000976562, 0, 0.0693359, 0.294922, -9.74512, 1.19.2022 19:52:24.473
719, 1.87663, 359.741, 85.9717, -0.000976562, -0.000976562, -0.000976562, 0.0126953, 0.321289, -9.71777, 1.19.2022 19:52:24.481
720, 1.87663, 359.741, 85.9717, -0.000976562, -0.000976562, -0.000976562, 0.0380859, 0.332031, -9.7627, 1.19.2022 19:52:24.489
721, 1.87663, 359.741, 85.9717, 0, 0, -0.000976562, 0.0859375, 0.324219, -9.77051, 1.19.2022 19:52:24.497
722, 1.87663, 359.741, 85.9717, 0, 0, -0.000976562, -0.0117188, 0.34375, -9.76855, 1.19.2022 19:52:24.505
723, 1.87663, 359.741, 85.9717, -0.000976562, 0, 0, 0.09375, 0.320312, -9.71875, 1.19.2022 19:52:24.513
724, 1.87663, 359.741, 85.9717, -0.000976562, 0, 0, 0.0214844, 0.3125, -9.75391, 1.19.2022 19:52:24.521
725, 1.87152, 359.736, 85.9718, 0, 0, -0.000976562, 0.0263672, 0.328125, -9.72754, 1.19.2022 19:52:24.529
726, 1.87152, 359.736, 85.9718, 0, 0, -0.000976562, 0.0908203, 0.303711, -9.72461, 1.19.2022 19:52:24.537
727, 1.87152, 359.736, 85.9718, 0, 0, -0.00195312, 0.0146484, 0.337891, -9.72949, 1.19.2022 19:52:24.545
728, 1.87152, 359.736, 85.9718, 0, -0.000976562, -0.000976562, 0.0439453, 0.321289, -9.72266, 1.19.2022 19:52:24.553
729, 1.87174, 359.736, 85.9715, -0.000976562, -0.000976562, -0.000976562, 0.0332031, 0.306641, -9.78906, 1.19.2022 19:52:24.561
730, 1.87148, 359.736, 85.9616, -0.000976562, 0, 0, -0.00683594, 0.347656, -9.74707, 1.19.2022 19:52:24.569
731, 1.87148, 359.736, 85.9616, -0.000976562, 0, 0, 0.109375, 0.305664, -9.77148, 1.19.2022 19:52:24.577
732, 1.87148, 359.736, 85.9616, -0.000976562, 0, -0.00195312, 0.03125, 0.299805, -9.7207, 1.19.2022 19:52:24.585
733, 1.87148, 359.736, 85.9616, 0, 0, -0.000976562, 0.0273438, 0.313477, -9.71777, 1.19.2022 19:52:24.593
734, 1.87148, 359.736, 85.9616, 0, 0, -0.00195312, 0.0664062, 0.307617, -9.75879, 1.19.2022 19:52:24.601
735, 1.87148, 359.736, 85.9616, 0, 0, -0.000976562, -0.00390625, 0.354492, -9.7334, 1.19.2022 19:52:24.609
736, 1.87148, 359.736, 85.9616, -0.000976562, 0, 0, 0.0693359, 0.337891, -9.73438, 1.19.2022 19:52:24.617
737, 1.87148, 359.736, 85.9616, -0.000976562, -0.000976562, 0, 0.0507812, 0.293945, -9.71191, 1.19.2022 19:52:24.625
738, 1.87148, 359.736, 85.9616, -0.000976562, 0, 0, 0.0146484, 0.316406, -9.72754, 1.19.2022 19:52:24.633
739, 1.8717, 359.736, 85.9613, 0.000976562, -0.000976562, -0.000976562, 0.0839844, 0.277344, -9.71973, 1.19.2022 19:52:24.641
740, 1.87144, 359.736, 85.9514, -0.000976562, -0.000976562, -0.000976562, 0.0146484, 0.328125, -9.72949, 1.19.2022 19:52:24.649
741, 1.87144, 359.736, 85.9514, -0.000976562, -0.000976562, -0.000976562, 0.0244141, 0.323242, -9.70801, 1.19.2022 19:52:24.657
742, 1.87144, 359.736, 85.9514, -0.000976562, 0, 0, 0.0390625, 0.321289, -9.73242, 1.19.2022 19:52:24.665
743, 1.87144, 359.736, 85.9514, -0.000976562, 0.000976562, 0, -0.0253906, 0.326172, -9.7168, 1.19.2022 19:52:24.673
744, 1.87144, 359.736, 85.9514, -0.000976562, 0, 0, 0.0859375, 0.297852, -9.74512, 1.19.2022 19:52:24.681
745, 1.87166, 359.736, 85.951, 0, 0, -0.000976562, 0.0341797, 0.306641, -9.73047, 1.19.2022 19:52:24.689
746, 1.87166, 359.736, 85.951, -0.000976562, 0, 0, 0.0273438, 0.318359, -9.7207, 1.19.2022 19:52:24.697
747, 1.8714, 359.736, 85.9411, -0.000976562, 0, 0, 0.0673828, 0.304688, -9.73535, 1.19.2022 19:52:24.705
748, 1.8714, 359.736, 85.9411, -0.000976562, 0, 0, -0.0117188, 0.307617, -9.73633, 1.19.2022 19:52:24.713
749, 1.8714, 359.736, 85.9411, 0.000976562, 0, -0.000976562, 0.0625, 0.308594, -9.71387, 1.19.2022 19:52:24.721
750, 1.8714, 359.736, 85.9411, -0.000976562, -0.000976562, -0.000976562, 0.0693359, 0.301758, -9.72656, 1.19.2022 19:52:24.729
751, 1.8714, 359.736, 85.9411, -0.000976562, 0, 0, 0.0214844, 0.333008, -9.73145, 1.19.2022 19:52:24.737
752, 1.8714, 359.736, 85.9411, 0, 0, 0, 0.0869141, 0.293945, -9.69629, 1.19.2022 19:52:24.745
753, 1.8714, 359.736, 85.9411, 0, 0, -0.000976562, 0.0195312, 0.305664, -9.75586, 1.19.2022 19:52:24.753
754, 1.8714, 359.736, 85.9411, 0, 0, 0, 0.0341797, 0.311523, -9.7207, 1.19.2022 19:52:24.761
755, 1.87162, 359.736, 85.9408, 0, 0, -0.000976562, 0.100586, 0.292969, -9.73926, 1.19.2022 19:52:24.769
756, 1.87162, 359.736, 85.9408, -0.000976562, 0.000976562, -0.000976562, 0.00390625, 0.336914, -9.69336, 1.19.2022 19:52:24.777
757, 1.87162, 359.736, 85.9408, 0, 0, -0.000976562, 0.0722656, 0.323242, -9.73242, 1.19.2022 19:52:24.785
758, 1.87162, 359.736, 85.9408, 0, 0, -0.000976562, 0.0478516, 0.314453, -9.74414, 1.19.2022 19:52:24.793
759, 1.87162, 359.736, 85.9408, 0, 0, 0.000976562, 0.0175781, 0.323242, -9.72949, 1.19.2022 19:52:24.801
760, 1.87162, 359.736, 85.9408, 0, 0, -0.000976562, 0.0839844, 0.302734, -9.74512, 1.19.2022 19:52:24.809
761, 1.87162, 359.736, 85.9408, 0.000976562, 0, 0, 0.0214844, 0.3125, -9.7627, 1.19.2022 19:52:24.817
762, 1.87136, 359.736, 85.9309, 0, -0.000976562, 0.000976562, 0.0595703, 0.307617, -9.74512, 1.19.2022 19:52:24.825
763, 1.87136, 359.736, 85.9309, 0, 0, -0.000976562, 0.0644531, 0.275391, -9.73438, 1.19.2022 19:52:24.833
764, 1.87136, 359.736, 85.9309, -0.000976562, 0, 0, 0.0390625, 0.349609, -9.71289, 1.19.2022 19:52:24.841
765, 1.87136, 359.736, 85.9309, 0, 0, 0, 0.0859375, 0.30957, -9.74316, 1.19.2022 19:52:24.849
766, 1.87136, 359.736, 85.9309, 0, 0, 0, 0.0175781, 0.318359, -9.7207, 1.19.2022 19:52:24.857
767, 1.87136, 359.736, 85.9309, 0.000976562, 0, -0.000976562, 0.0410156, 0.335938, -9.73242, 1.19.2022 19:52:24.865
768, 1.86624, 359.731, 85.931, 0.000976562, 0, 0, 0.0517578, 0.297852, -9.67871, 1.19.2022 19:52:24.873
769, 1.86646, 359.731, 85.9307, -0.000976562, 0, 0, 0.00585938, 0.321289, -9.71973, 1.19.2022 19:52:24.881
770, 1.86646, 359.731, 85.9307, 0, 0, -0.000976562, 0.0390625, 0.330078, -9.71094, 1.19.2022 19:52:24.889
771, 1.86646, 359.731, 85.9307, 0, -0.000976562, -0.000976562, 0.0595703, 0.316406, -9.73535, 1.19.2022 19:52:24.897
772, 1.86646, 359.731, 85.9307, 0.000976562, -0.000976562, 0, 0.0107422, 0.330078, -9.70312, 1.19.2022 19:52:24.905
773, 1.8662, 359.731, 85.9208, 0.000976562, 0, 0.000976562, 0.0839844, 0.298828, -9.70801, 1.19.2022 19:52:24.913
774, 1.8662, 359.731, 85.9208, 0, 0, 0, -0.00292969, 0.332031, -9.77148, 1.19.2022 19:52:24.919
775, 1.8662, 359.731, 85.9208, 0, -0.000976562, 0, 0.0332031, 0.303711, -9.77051, 1.19.2022 19:52:24.927
776, 1.8662, 359.731, 85.9208, 0, 0, 0, 0.078125, 0.307617, -9.76367, 1.19.2022 19:52:24.935
777, 1.86144, 359.736, 85.9208, 0, 0, -0.000976562, 0.0126953, 0.356445, -9.70703, 1.19.2022 19:52:24.943
778, 1.86144, 359.736, 85.9208, 0.000976562, 0, 0, 0.0839844, 0.298828, -9.7168, 1.19.2022 19:52:24.951
779, 1.86144, 359.736, 85.9208, 0, 0, 0, 0.0576172, 0.345703, -9.75293, 1.19.2022 19:52:24.959
780, 1.86144, 359.736, 85.9208, 0, -0.000976562, 0, 0.00488281, 0.34668, -9.7666, 1.19.2022 19:52:24.967
781, 1.86144, 359.736, 85.9208, -0.00195312, 0, 0, 0.0771484, 0.303711, -9.72168, 1.19.2022 19:52:24.975
782, 1.86144, 359.736, 85.9208, -0.00292969, 0, 0, 0.00292969, 0.30957, -9.72949, 1.19.2022 19:52:24.983
783, 1.8662, 359.731, 85.9208, -0.00195312, 0, -0.000976562, 0.0478516, 0.308594, -9.71875, 1.19.2022 19:52:24.991
784, 1.8662, 359.731, 85.9208, -0.000976562, 0, -0.000976562, 0.0556641, 0.321289, -9.72559, 1.19.2022 19:52:24.999
785, 1.8662, 359.731, 85.9208, -0.00195312, -0.000976562, -0.000976562, 0.0117188, 0.323242, -9.78613, 1.19.2022 19:52:25.007
786, 1.8662, 359.731, 85.9208, -0.00195312, 0, 0, 0.0810547, 0.311523, -9.73535, 1.19.2022 19:52:25.015
787, 1.8662, 359.731, 85.9208, -0.00195312, 0.000976562, -0.000976562, 0.0214844, 0.302734, -9.7373, 1.19.2022 19:52:25.023
788, 1.8662, 359.731, 85.9208, -0.000976562, 0.000976562, -0.000976562, 0.0576172, 0.337891, -9.7373, 1.19.2022 19:52:25.031
789, 1.8662, 359.731, 85.9208, -0.00195312, 0, 0, 0.0693359, 0.301758, -9.73828, 1.19.2022 19:52:25.039
790, 1.8662, 359.731, 85.9208, -0.00195312, 0, 0, -0.0166016, 0.326172, -9.73145, 1.19.2022 19:52:25.047
791, 1.8662, 359.731, 85.9208, -0.000976562, 0.000976562, -0.000976562, 0.0615234, 0.317383, -9.77539, 1.19.2022 19:52:25.055
792, 1.8662, 359.731, 85.9208, 0, 0, 0, 0.0693359, 0.297852, -9.75, 1.19.2022 19:52:25.063
793, 1.8662, 359.731, 85.9208, 0, 0, 0, 0.00976562, 0.333984, -9.74121, 1.19.2022 19:52:25.071
794, 1.8662, 359.731, 85.9208, 0.000976562, 0, 0.000976562, 0.0908203, 0.290039, -9.71973, 1.19.2022 19:52:25.079
795, 1.8662, 359.731, 85.9208, 0.000976562, -0.000976562, 0, 0.0078125, 0.34082, -9.7334, 1.19.2022 19:52:25.087
796, 1.8662, 359.731, 85.9208, 0, -0.000976562, 0, 0.0439453, 0.337891, -9.71777, 1.19.2022 19:52:25.095
797, 1.8662, 359.731, 85.9208, 0.000976562, 0, 0, 0.0673828, 0.308594, -9.72656, 1.19.2022 19:52:25.103
798, 1.8662, 359.731, 85.9208, -0.000976562, 0, -0.000976562, 0.0146484, 0.349609, -9.72461, 1.19.2022 19:52:25.111
799, 1.8662, 359.731, 85.9208, -0.00195312, 0, 0, 0.0771484, 0.31543, -9.70703, 1.19.2022 19:52:25.119
800, 1.8662, 359.731, 85.9208, 0, 0.000976562, 0, 0.0429688, 0.297852, -9.7334, 1.19.2022 19:52:25.127
801, 1.8662, 359.731, 85.9208, -0.00195312, 0, -0.000976562, 0.0371094, 0.320312, -9.69922, 1.19.2022 19:52:25.135
802, 1.8662, 359.731, 85.9208, -0.00195312, 0, -0.000976562, 0.0820312, 0.291016, -9.68945, 1.19.2022 19:52:25.143
803, 1.8662, 359.731, 85.9208, -0.00195312, 0, -0.000976562, 0.0332031, 0.327148, -9.78125, 1.19.2022 19:52:25.151
804, 1.8662, 359.731, 85.9208, -0.000976562, 0, -0.000976562, 0.0605469, 0.336914, -9.6875, 1.19.2022 19:52:25.159
805, 1.8662, 359.731, 85.9208, -0.00195312, 0, -0.000976562, 0.0458984, 0.30957, -9.73047, 1.19.2022 19:52:25.167
806, 1.8662, 359.731, 85.9208, 0, 0, 0.000976562, 0.0234375, 0.34375, -9.75977, 1.19.2022 19:52:25.175
807, 1.86642, 359.73, 85.9204, 0, 0, 0, 0.107422, 0.283203, -9.74902, 1.19.2022 19:52:25.183
808, 1.86642, 359.73, 85.9204, -0.000976562, 0, -0.000976562, 0.0214844, 0.337891, -9.73828, 1.19.2022 19:52:25.191
809, 1.86642, 359.73, 85.9204, -0.000976562, -0.000976562, -0.000976562, 0.0458984, 0.338867, -9.74902, 1.19.2022 19:52:25.199
810, 1.86642, 359.73, 85.9204, -0.000976562, -0.000976562, -0.000976562, 0.0869141, 0.324219, -9.68848, 1.19.2022 19:52:25.207
811, 1.86642, 359.73, 85.9204, 0, 0, 0, 0.0205078, 0.345703, -9.67676, 1.19.2022 19:52:25.215
812, 1.86616, 359.73, 85.9106, -0.000976562, -0.000976562, -0.000976562, 0.0869141, 0.31543, -9.71484, 1.19.2022 19:52:25.223
813, 1.87128, 359.735, 85.9104, -0.000976562, 0, -0.000976562, 0.0527344, 0.304688, -9.74707, 1.19.2022 19:52:25.231
814, 1.86616, 359.73, 85.9106, 0, 0.000976562, 0, 0.00976562, 0.319336, -9.73926, 1.19.2022 19:52:25.239
815, 1.86616, 359.73, 85.9106, -0.000976562, 0, 0, 0.0791016, 0.299805, -9.75293, 1.19.2022 19:52:25.247
816, 1.86616, 359.73, 85.9106, 0, 0, 0, 0.0283203, 0.298828, -9.76562, 1.19.2022 19:52:25.255
817, 1.86638, 359.73, 85.9102, 0, 0, 0, 0.0410156, 0.297852, -9.75391, 1.19.2022 19:52:25.263
818, 1.86638, 359.73, 85.9102, 0.000976562, 0, -0.000976562, 0.0693359, 0.324219, -9.75195, 1.19.2022 19:52:25.271
819, 1.86638, 359.73, 85.9102, 0, 0, -0.000976562, 0.00292969, 0.339844, -9.72168, 1.19.2022 19:52:25.279
820, 1.86638, 359.73, 85.9102, 0, -0.00195312, 0, 0.0742188, 0.306641, -9.71484, 1.19.2022 19:52:25.287
821, 1.86638, 359.73, 85.9102, 0, 0, -0.000976562, -0.0078125, 0.300781, -9.68066, 1.19.2022 19:52:25.295
822, 1.86638, 359.73, 85.9102, -0.000976562, -0.00195312, -0.000976562, 0.0214844, 0.292969, -9.74219, 1.19.2022 19:52:25.303
823, 1.86638, 359.73, 85.9102, 0, 0, -0.000976562, 0.0625, 0.288086, -9.73633, 1.19.2022 19:52:25.311
824, 1.86638, 359.73, 85.9102, 0.000976562, 0.000976562, 0, 0.00585938, 0.311523, -9.70898, 1.19.2022 19:52:25.319
825, 1.86638, 359.73, 85.9102, 0, 0.000976562, 0, 0.0839844, 0.331055, -9.73242, 1.19.2022 19:52:25.327
826, 1.86638, 359.73, 85.9102, 0, 0, -0.000976562, 0.0166016, 0.3125, -9.75391, 1.19.2022 19:52:25.335
827, 1.86638, 359.73, 85.9102, -0.000976562, 0.000976562, -0.000976562, -0.00195312, 0.328125, -9.72461, 1.19.2022 19:52:25.343
828, 1.86638, 359.73, 85.9102, 0, -0.00195312, -0.000976562, 0.105469, 0.319336, -9.74805, 1.19.2022 19:52:25.351
829, 1.86612, 359.73, 85.9003, -0.000976562, 0, -0.000976562, 0.0507812, 0.30957, -9.73047, 1.19.2022 19:52:25.359
830, 1.86612, 359.73, 85.9003, -0.000976562, 0, -0.000976562, 0.0380859, 0.3125, -9.75586, 1.19.2022 19:52:25.367
831, 1.86612, 359.73, 85.9003, 0, -0.000976562, -0.00195312, 0.0664062, 0.305664, -9.77148, 1.19.2022 19:52:25.375
832, 1.86612, 359.73, 85.9003, 0, 0, 0, 0.0078125, 0.342773, -9.7168, 1.19.2022 19:52:25.383
833, 1.86612, 359.73, 85.9003, -0.000976562, 0, 0, 0.105469, 0.294922, -9.73145, 1.19.2022 19:52:25.391
834, 1.86612, 359.73, 85.9003, 0, 0, 0, 0.0595703, 0.302734, -9.74707, 1.19.2022 19:52:25.399
835, 1.86634, 359.73, 85.9, 0, -0.000976562, -0.00195312, 0.0273438, 0.330078, -9.71973, 1.19.2022 19:52:25.407
836, 1.86634, 359.73, 85.9, 0, 0, -0.000976562, 0.0859375, 0.30957, -9.74316, 1.19.2022 19:52:25.415
837, 1.86634, 359.73, 85.9, 0.000976562, 0, 0, -0.00683594, 0.321289, -9.73145, 1.19.2022 19:52:25.423
838, 1.86634, 359.73, 85.9, 0, 0.000976562, 0, 0.0576172, 0.333984, -9.76074, 1.19.2022 19:52:25.431
839, 1.86608, 359.73, 85.8901, 0, 0.000976562, 0, 0.0703125, 0.301758, -9.70703, 1.19.2022 19:52:25.439
840, 1.86608, 359.73, 85.8901, -0.000976562, 0.000976562, 0, 0.00488281, 0.335938, -9.73633, 1.19.2022 19:52:25.447
841, 1.86608, 359.73, 85.8901, 0, 0, -0.000976562, 0.0820312, 0.308594, -9.7168, 1.19.2022 19:52:25.455
842, 1.8663, 359.73, 85.8897, 0, -0.00195312, -0.000976562, 0.0195312, 0.294922, -9.72363, 1.19.2022 19:52:25.463
843, 1.8663, 359.73, 85.8897, -0.000976562, 0, -0.000976562, 0.0175781, 0.325195, -9.70801, 1.19.2022 19:52:25.471
844, 1.8663, 359.73, 85.8897, -0.000976562, -0.00195312, -0.000976562, 0.0888672, 0.293945, -9.70801, 1.19.2022 19:52:25.479
845, 1.8663, 359.73, 85.8897, -0.000976562, -0.00195312, -0.000976562, 0.0126953, 0.328125, -9.73438, 1.19.2022 19:52:25.487
846, 1.8663, 359.73, 85.8897, 0.000976562, -0.00195312, -0.00195312, 0.0771484, 0.326172, -9.73047, 1.19.2022 19:52:25.495
847, 1.8663, 359.73, 85.8897, -0.000976562, 0, -0.00195312, 0.0478516, 0.301758, -9.72363, 1.19.2022 19:52:25.503
848, 1.8663, 359.73, 85.8897, -0.000976562, 0.000976562, -0.000976562, 0.0410156, 0.338867, -9.74609, 1.19.2022 19:52:25.511
849, 1.8663, 359.73, 85.8897, 0, 0.000976562, 0, 0.0976562, 0.310547, -9.78809, 1.19.2022 19:52:25.519
850, 1.8663, 359.73, 85.8897, 0.000976562, 0, -0.000976562, 0.0166016, 0.302734, -9.73926, 1.19.2022 19:52:25.527
851, 1.8663, 359.73, 85.8897, 0, 0.000976562, -0.000976562, 0.0625, 0.342773, -9.74121, 1.19.2022 19:52:25.535
852, 1.8663, 359.73, 85.8897, 0, 0, 0, 0.0488281, 0.313477, -9.69922, 1.19.2022 19:52:25.543
853, 1.8663, 359.73, 85.8897, -0.000976562, 0, 0, -0.015625, 0.333984, -9.67871, 1.19.2022 19:52:25.551
854, 1.8663, 359.73, 85.8897, 0, 0, 0, 0.0810547, 0.297852, -9.73633, 1.19.2022 19:52:25.559
855, 1.8663, 359.73, 85.8897, -0.000976562, -0.00195312, 0, 0.0498047, 0.310547, -9.76562, 1.19.2022 19:52:25.567
856, 1.8663, 359.73, 85.8897, 0, 0, 0, 0.0146484, 0.317383, -9.75293, 1.19.2022 19:52:25.575
857, 1.8663, 359.73, 85.8897, -0.000976562, 0.000976562, -0.000976562, 0.0839844, 0.294922, -9.74609, 1.19.2022 19:52:25.583
858, 1.8663, 359.73, 85.8897, -0.000976562, 0, 0, -0.0205078, 0.323242, -9.70801, 1.19.2022 19:52:25.591
859, 1.8663, 359.73, 85.8897, 0, -0.00195312, 0, 0.0390625, 0.303711, -9.7207, 1.19.2022 19:52:25.599
860, 1.8663, 359.73, 85.8897, 0, 0, -0.000976562, 0.0673828, 0.344727, -9.71289, 1.19.2022 19:52:25.607
861, 1.8663, 359.73, 85.8897, 0, 0, -0.000976562, 0.0146484, 0.342773, -9.73145, 1.19.2022 19:52:25.615
862, 1.8663, 359.73, 85.8897, 0, 0, -0.000976562, 0.0957031, 0.275391, -9.72559, 1.19.2022 19:52:25.623
863, 1.8663, 359.73, 85.8897, 0, 0, 0, 0.0361328, 0.303711, -9.71387, 1.19.2022 19:52:25.631
864, 1.8663, 359.73, 85.8897, 0, 0, 0, 0.0722656, 0.314453, -9.74023, 1.19.2022 19:52:25.639
865, 1.8663, 359.73, 85.8897, 0, -0.00195312, -0.000976562, 0.0673828, 0.319336, -9.74219, 1.19.2022 19:52:25.647
866, 1.8663, 359.73, 85.8897, -0.000976562, 0, 0, 0.00585938, 0.326172, -9.71973, 1.19.2022 19:52:25.655
867, 1.8663, 359.73, 85.8897, -0.000976562, 0, 0, 0.0820312, 0.305664, -9.70312, 1.19.2022 19:52:25.663
868, 1.8663, 359.73, 85.8897, -0.000976562, -0.00195312, -0.000976562, 0.0195312, 0.280273, -9.73047, 1.19.2022 19:52:25.671
869, 1.8663, 359.73, 85.8897, -0.000976562, -0.00195312, -0.000976562, 0.0341797, 0.3125, -9.69238, 1.19.2022 19:52:25.679
870, 1.8663, 359.73, 85.8897, 0, -0.00195312, -0.000976562, 0.0908203, 0.298828, -9.71777, 1.19.2022 19:52:25.687
871, 1.8663, 359.73, 85.8897, 0.000976562, -0.00195312, -0.000976562, 0.0263672, 0.318359, -9.72754, 1.19.2022 19:52:25.695
872, 1.8663, 359.73, 85.8897, -0.000976562, 0, -0.000976562, 0.0673828, 0.313477, -9.71191, 1.19.2022 19:52:25.703
873, 1.8663, 359.73, 85.8897, 0, 0, -0.000976562, 0.0556641, 0.316406, -9.7207, 1.19.2022 19:52:25.711
874, 1.8663, 359.73, 85.8897, 0, -0.00195312, 0, 0.0195312, 0.330078, -9.71484, 1.19.2022 19:52:25.719
875, 1.8663, 359.73, 85.8897, 0.000976562, -0.00195312, -0.000976562, 0.0722656, 0.308594, -9.7002, 1.19.2022 19:52:25.727
876, 1.8663, 359.73, 85.8897, 0, 0, -0.000976562, 0.0205078, 0.313477, -9.69434, 1.19.2022 19:52:25.735
877, 1.86604, 359.73, 85.8799, 0.000976562, 0.000976562, -0.000976562, 0.00585938, 0.306641, -9.7207, 1.19.2022 19:52:25.743
878, 1.86604, 359.73, 85.8799, 0, 0, -0.000976562, 0.0859375, 0.30957, -9.75195, 1.19.2022 19:52:25.751
879, 1.86604, 359.73, 85.8799, -0.000976562, 0, -0.000976562, -0.0185547, 0.314453, -9.72949, 1.19.2022 19:52:25.759
880, 1.86604, 359.73, 85.8799, 0.000976562, 0, -0.000976562, 0.0478516, 0.327148, -9.75586, 1.19.2022 19:52:25.767
881, 1.86604, 359.73, 85.8799, 0, 0.000976562, -0.000976562, 0.0527344, 0.294922, -9.74512, 1.19.2022 19:52:25.775
882, 1.86626, 359.73, 85.8795, 0, 0, -0.000976562, 0.000976562, 0.311523, -9.70801, 1.19.2022 19:52:25.783
883, 1.86626, 359.73, 85.8795, 0, 0, -0.000976562, 0.0537109, 0.28418, -9.7002, 1.19.2022 19:52:25.791
884, 1.86626, 359.73, 85.8795, 0, 0, -0.000976562, 0.0292969, 0.318359, -9.7041, 1.19.2022 19:52:25.799
885, 1.86626, 359.73, 85.8795, -0.000976562, 0, -0.000976562, 0.0595703, 0.322266, -9.75195, 1.19.2022 19:52:25.807
886, 1.86626, 359.73, 85.8795, -0.000976562, -0.000976562, -0.00195312, 0.0507812, 0.318359, -9.72363, 1.19.2022 19:52:25.815
887, 1.866, 359.73, 85.8696, 0, 0, -0.00195312, 0.0126953, 0.325195, -9.70117, 1.19.2022 19:52:25.823
888, 1.866, 359.73, 85.8696, 0, 0, -0.000976562, 0.0820312, 0.308594, -9.70996, 1.19.2022 19:52:25.831
889, 1.86622, 359.73, 85.8693, -0.000976562, 0, -0.000976562, 0.03125, 0.3125, -9.75586, 1.19.2022 19:52:25.839
890, 1.86622, 359.73, 85.8693, -0.00195312, 0.000976562, -0.00195312, 0.0244141, 0.320312, -9.71289, 1.19.2022 19:52:25.847
891, 1.86622, 359.73, 85.8693, 0, 0, -0.000976562, 0.0791016, 0.293945, -9.71289, 1.19.2022 19:52:25.855
892, 1.86622, 359.73, 85.8693, 0, 0.000976562, 0, -0.00195312, 0.333984, -9.75488, 1.19.2022 19:52:25.861
893, 1.86622, 359.73, 85.8693, 0, 0.000976562, 0, 0.0527344, 0.335938, -9.7373, 1.19.2022 19:52:25.869
894, 1.86622, 359.73, 85.8693, 0, 0, 0, 0.0439453, 0.306641, -9.71387, 1.19.2022 19:52:25.877
895, 1.86596, 359.73, 85.8594, 0, -0.000976562, -0.000976562, -0.00585938, 0.320312, -9.68164, 1.19.2022 19:52:25.885
896, 1.86596, 359.73, 85.8594, -0.000976562, 0, -0.000976562, 0.110352, 0.294922, -9.73633, 1.19.2022 19:52:25.893
897, 1.86596, 359.73, 85.8594, 0, 0, -0.000976562, -0.00488281, 0.304688, -9.74414, 1.19.2022 19:52:25.901
898, 1.86618, 359.73, 85.859, 0, 0, 0, 0.0126953, 0.321289, -9.73438, 1.19.2022 19:52:25.909
899, 1.86618, 359.73, 85.859, 0, 0, 0, 0.0791016, 0.316406, -9.7168, 1.19.2022 19:52:25.917
900, 1.86618, 359.73, 85.859, -0.000976562, 0, 0, -0.0400391, 0.328125, -9.71484, 1.19.2022 19:52:25.925
901, 1.86618, 359.73, 85.859, 0, 0, -0.000976562, 0.0644531, 0.319336, -9.75195, 1.19.2022 19:52:25.933
902, 1.86618, 359.73, 85.859, 0, 0.000976562, 0, 0.0625, 0.320312, -9.7002, 1.19.2022 19:52:25.941
903, 1.86618, 359.73, 85.859, 0.000976562, 0, 0, 0.0244141, 0.335938, -9.73145, 1.19.2022 19:52:25.949
904, 1.86618, 359.73, 85.859, 0, 0, 0, 0.0839844, 0.298828, -9.70996, 1.19.2022 19:52:25.957
905, 1.86618, 359.73, 85.859, 0, 0, -0.000976562, 0.0146484, 0.293945, -9.71191, 1.19.2022 19:52:25.965
906, 1.86618, 359.73, 85.859, 0, 0, -0.000976562, 0.0507812, 0.319336, -9.7373, 1.19.2022 19:52:25.973
907, 1.86618, 359.73, 85.859, 0, 0, 0, 0.0556641, 0.291992, -9.71484, 1.19.2022 19:52:25.981
908, 1.86618, 359.73, 85.859, 0, 0, 0, -0.00683594, 0.329102, -9.75781, 1.19.2022 19:52:25.989
909, 1.86618, 359.73, 85.859, 0.000976562, -0.000976562, -0.000976562, 0.0742188, 0.328125, -9.73047, 1.19.2022 19:52:25.997
910, 1.86618, 359.73, 85.859, 0, -0.00195312, -0.000976562, 0.0117188, 0.307617, -9.74609, 1.19.2022 19:52:26.005
911, 1.86618, 359.73, 85.859, 0, -0.00195312, 0, 0.0263672, 0.318359, -9.72559, 1.19.2022 19:52:26.013
912, 1.86618, 359.73, 85.859, 0, -0.00195312, 0, 0.0839844, 0.301758, -9.70801, 1.19.2022 19:52:26.021
913, 1.86618, 359.73, 85.859, -0.000976562, -0.00195312, -0.000976562, -0.00195312, 0.326172, -9.74805, 1.19.2022 19:52:26.029
914, 1.86618, 359.73, 85.859, 0, -0.000976562, 0, 0.0166016, 0.291016, -9.75391, 1.19.2022 19:52:26.037
915, 1.86618, 359.73, 85.859, 0, -0.000976562, -0.000976562, 0.0332031, 0.288086, -9.73828, 1.19.2022 19:52:26.045
916, 1.86618, 359.73, 85.859, -0.000976562, -0.00195312, -0.00195312, 0.00976562, 0.30957, -9.73242, 1.19.2022 19:52:26.053
917, 1.86618, 359.73, 85.859, -0.000976562, -0.00195312, -0.000976562, 0.0625, 0.297852, -9.73535, 1.19.2022 19:52:26.061
918, 1.86618, 359.73, 85.859, 0, -0.000976562, -0.00195312, 0.0146484, 0.297852, -9.75879, 1.19.2022 19:52:26.069
919, 1.86618, 359.73, 85.859, 0, -0.000976562, -0.000976562, 0.0380859, 0.360352, -9.75, 1.19.2022 19:52:26.077
920, 1.86618, 359.73, 85.859, -0.000976562, -0.000976562, 0.000976562, 0.0839844, 0.296875, -9.73145, 1.19.2022 19:52:26.085
921, 1.86618, 359.73, 85.859, 0, 0, -0.000976562, -0.0136719, 0.333008, -9.72852, 1.19.2022 19:52:26.093
922, 1.86618, 359.73, 85.859, 0, -0.000976562, 0, 0.0761719, 0.327148, -9.75684, 1.19.2022 19:52:26.101
923, 1.86592, 359.729, 85.8491, -0.000976562, -0.000976562, -0.000976562, 0.0390625, 0.31543, -9.69043, 1.19.2022 19:52:26.109
924, 1.86116, 359.735, 85.8491, 0, -0.00195312, -0.000976562, 0.0078125, 0.316406, -9.71289, 1.19.2022 19:52:26.117
925, 1.86138, 359.734, 85.8488, 0, -0.000976562, 0, 0.0869141, 0.308594, -9.70508, 1.19.2022 19:52:26.125
926, 1.86138, 359.734, 85.8488, 0, -0.000976562, 0, 0.00488281, 0.329102, -9.75488, 1.19.2022 19:52:26.133
927, 1.86138, 359.734, 85.8488, 0, -0.000976562, 0, 0.0693359, 0.304688, -9.75195, 1.19.2022 19:52:26.141
928, 1.86138, 359.734, 85.8488, -0.000976562, -0.000976562, 0, 0.0644531, 0.318359, -9.72559, 1.19.2022 19:52:26.149
929, 1.86138, 359.734, 85.8488, 0, -0.000976562, 0, -0.00195312, 0.339844, -9.7168, 1.19.2022 19:52:26.157
930, 1.86138, 359.734, 85.8488, 0, -0.000976562, 0, 0.0888672, 0.28125, -9.74121, 1.19.2022 19:52:26.165
931, 1.86112, 359.734, 85.8389, -0.000976562, -0.00195312, 0, 0.0361328, 0.306641, -9.71387, 1.19.2022 19:52:26.173
932, 1.86646, 359.739, 85.8384, -0.000976562, -0.000976562, 0, 0.0263672, 0.323242, -9.72754, 1.19.2022 19:52:26.181
933, 1.86646, 359.739, 85.8384, 0, 0, -0.000976562, 0.0742188, 0.280273, -9.71777, 1.19.2022 19:52:26.189
934, 1.86646, 359.739, 85.8384, -0.000976562, -0.000976562, 0, -0.0185547, 0.330078, -9.71191, 1.19.2022 19:52:26.197
935, 1.86646, 359.739, 85.8384, -0.000976562, -0.000976562, 0, 0.0507812, 0.323242, -9.71387, 1.19.2022 19:52:26.205
936, 1.86646, 359.739, 85.8384, -0.000976562, -0.00195312, 0, 0.0478516, 0.328125, -9.72266, 1.19.2022 19:52:26.213
937, 1.86642, 359.739, 85.8281, -0.000976562, -0.000976562, -0.000976562, 0.00195312, 0.3125, -9.75781, 1.19.2022 19:52:26.221
938, 1.86642, 359.739, 85.8281, -0.000976562, -0.00195312, -0.000976562, 0.0546875, 0.30957, -9.74219, 1.19.2022 19:52:26.229
939, 1.86642, 359.739, 85.8281, 0, -0.000976562, -0.000976562, 0.0146484, 0.306641, -9.71094, 1.19.2022 19:52:26.237
940, 1.86642, 359.739, 85.8281, 0, -0.00195312, -0.000976562, 0.0361328, 0.306641, -9.7373, 1.19.2022 19:52:26.245
941, 1.86642, 359.739, 85.8281, 0, -0.000976562, 0, 0.0957031, 0.311523, -9.71973, 1.19.2022 19:52:26.253
942, 1.86642, 359.739, 85.8281, -0.000976562, 0, 0, 0.00976562, 0.301758, -9.72559, 1.19.2022 19:52:26.261
943, 1.86642, 359.739, 85.8281, 0, -0.000976562, 0, 0.0673828, 0.325195, -9.70215, 1.19.2022 19:52:26.269
944, 1.86638, 359.739, 85.8179, 0, 0, -0.000976562, 0.0380859, 0.30957, -9.73242, 1.19.2022 19:52:26.277
945, 1.86638, 359.739, 85.8179, 0, 0, -0.000976562, 0.0078125, 0.331055, -9.74805, 1.19.2022 19:52:26.285
946, 1.86638, 359.739, 85.8179, 0, 0, -0.000976562, 0.09375, 0.288086, -9.73438, 1.19.2022 19:52:26.293
947, 1.86638, 359.739, 85.8179, 0, -0.000976562, -0.000976562, 0.0146484, 0.322266, -9.75293, 1.19.2022 19:52:26.301
948, 1.86638, 359.739, 85.8179, 0, -0.000976562, -0.000976562, 0.0761719, 0.3125, -9.75684, 1.19.2022 19:52:26.309
949, 1.86638, 359.739, 85.8179, 0, -0.000976562, -0.000976562, 0.0576172, 0.296875, -9.72168, 1.19.2022 19:52:26.317
950, 1.86638, 359.739, 85.8179, 0, 0, 0, 0.00292969, 0.342773, -9.7334, 1.19.2022 19:52:26.325
951, 1.8666, 359.739, 85.8175, 0.000976562, 0.000976562, 0, 0.0957031, 0.286133, -9.75977, 1.19.2022 19:52:26.333
952, 1.86633, 359.739, 85.8077, 0, 0, -0.000976562, 0.0292969, 0.293945, -9.7002, 1.19.2022 19:52:26.341
953, 1.86633, 359.739, 85.8077, 0, 0.000976562, -0.000976562, 0.0244141, 0.321289, -9.72266, 1.19.2022 19:52:26.349
954, 1.86633, 359.739, 85.8077, 0, 0.000976562, 0, 0.0771484, 0.317383, -9.7002, 1.19.2022 19:52:26.357
955, 1.86633, 359.739, 85.8077, 0, 0, -0.000976562, 0.0224609, 0.316406, -9.7207, 1.19.2022 19:52:26.365
956, 1.86633, 359.739, 85.8077, 0, 0, -0.000976562, 0.0712891, 0.314453, -9.75879, 1.19.2022 19:52:26.373
957, 1.86633, 359.739, 85.8077, -0.000976562, -0.000976562, 0, 0.0615234, 0.31543, -9.76562, 1.19.2022 19:52:26.381
958, 1.86633, 359.739, 85.8077, 0, -0.000976562, 0, 0.0126953, 0.323242, -9.72949, 1.19.2022 19:52:26.389
959, 1.86633, 359.739, 85.8077, 0, 0, -0.000976562, 0.0908203, 0.285156, -9.74316, 1.19.2022 19:52:26.397
960, 1.86633, 359.739, 85.8077, 0, 0, 0, 0.000976562, 0.305664, -9.68262, 1.19.2022 19:52:26.405
961, 1.86656, 359.739, 85.8073, 0, 0, 0, 0.0361328, 0.313477, -9.71387, 1.19.2022 19:52:26.413
962, 1.86143, 359.734, 85.8074, 0.000976562, 0, 0, 0.0693359, 0.301758, -9.72852, 1.19.2022 19:52:26.421
963, 1.86143, 359.734, 85.8074, 0, 0, -0.000976562, 0.0126953, 0.30957, -9.72949, 1.19.2022 19:52:26.429
964, 1.86143, 359.734, 85.8074, 0, 0.000976562, -0.000976562, 0.0839844, 0.311523, -9.73145, 1.19.2022 19:52:26.437
965, 1.86143, 359.734, 85.8074, -0.000976562, 0, 0, 0.0195312, 0.321289, -9.73438, 1.19.2022 19:52:26.445
966, 1.86143, 359.734, 85.8074, -0.000976562, -0.000976562, 0, 0.00292969, 0.334961, -9.7168, 1.19.2022 19:52:26.453
967, 1.86143, 359.734, 85.8074, -0.000976562, -0.000976562, 0, 0.0791016, 0.287109, -9.71289, 1.19.2022 19:52:26.461
968, 1.86143, 359.734, 85.8074, -0.000976562, 0, 0, 0.0117188, 0.317383, -9.7627, 1.19.2022 19:52:26.469
969, 1.86143, 359.734, 85.8074, 0, 0.000976562, 0, 0.0625, 0.328125, -9.73535, 1.19.2022 19:52:26.477
970, 1.86143, 359.734, 85.8074, 0, 0.000976562, -0.000976562, 0.0595703, 0.319336, -9.76367, 1.19.2022 19:52:26.485
971, 1.86143, 359.734, 85.8074, 0, 0, -0.000976562, 0.00585938, 0.327148, -9.67285, 1.19.2022 19:52:26.493
972, 1.86143, 359.734, 85.8074, -0.000976562, 0, 0, 0.0849609, 0.308594, -9.69531, 1.19.2022 19:52:26.501
973, 1.86143, 359.734, 85.8074, 0, 0, -0.000976562, 0.0322266, 0.316406, -9.71387, 1.19.2022 19:52:26.509
974, 1.86143, 359.734, 85.8074, 0.000976562, 0, -0.000976562, 0.0390625, 0.31543, -9.69434, 1.19.2022 19:52:26.517
975, 1.86117, 359.734, 85.7975, 0.000976562, 0.000976562, 0, 0.0654297, 0.31543, -9.70898, 1.19.2022 19:52:26.525
976, 1.86117, 359.734, 85.7975, 0, -0.00195312, 0, -0.00878906, 0.319336, -9.73145, 1.19.2022 19:52:26.533
977, 1.86117, 359.734, 85.7975, 0, -0.00195312, 0, 0.0576172, 0.330078, -9.71094, 1.19.2022 19:52:26.541
978, 1.86117, 359.734, 85.7975, 0, 0, -0.000976562, 0.0263672, 0.34082, -9.75781, 1.19.2022 19:52:26.549
979, 1.86117, 359.734, 85.7975, 0, -0.00195312, -0.000976562, 0.0292969, 0.328125, -9.70801, 1.19.2022 19:52:26.557
980, 1.86117, 359.734, 85.7975, 0, -0.00195312, 0, 0.0742188, 0.313477, -9.71875, 1.19.2022 19:52:26.565
981, 1.85642, 359.739, 85.7975, 0.000976562, 0, 0, -0.00195312, 0.311523, -9.71094, 1.19.2022 19:52:26.573
982, 1.85642, 359.739, 85.7975, 0, -0.00195312, 0, 0.0410156, 0.303711, -9.71387, 1.19.2022 19:52:26.581
983, 1.85642, 359.739, 85.7975, -0.000976562, -0.00195312, 0, 0.0576172, 0.308594, -9.72168, 1.19.2022 19:52:26.589
984, 1.85642, 359.739, 85.7975, -0.000976562, 0, -0.000976562, 0.03125, 0.339844, -9.72461, 1.19.2022 19:52:26.597
985, 1.85642, 359.739, 85.7975, -0.000976562, 0, -0.000976562, 0.110352, 0.337891, -9.72852, 1.19.2022 19:52:26.605
986, 1.85642, 359.739, 85.7975, -0.000976562, 0, 0, 0.0458984, 0.323242, -9.72754, 1.19.2022 19:52:26.613
987, 1.85642, 359.739, 85.7975, -0.000976562, -0.00195312, 0, 0.0126953, 0.323242, -9.71582, 1.19.2022 19:52:26.621
988, 1.85642, 359.739, 85.7975, -0.000976562, 0, -0.000976562, 0.0908203, 0.291992, -9.71973, 1.19.2022 19:52:26.629
989, 1.86117, 359.734, 85.7975, -0.000976562, 0, -0.000976562, -0.0136719, 0.323242, -9.72656, 1.19.2022 19:52:26.637
990, 1.86652, 359.738, 85.797, -0.00292969, 0.000976562, -0.000976562, 0.24707, 0.280273, -9.8125, 1.19.2022 19:52:26.645
991, 1.86629, 359.738, 85.7974, -0.000976562, 0.000976562, -0.00292969, 0.285156, 0.314453, -9.69434, 1.19.2022 19:52:26.653
992, 1.86117, 359.734, 85.7975, 0, 0.000976562, -0.000976562, 0.147461, 0.389648, -9.7959, 1.19.2022 19:52:26.661
993, 1.86117, 359.734, 85.7975, 0, 0.00292969, -0.000976562, 0.237305, 0.376953, -9.68652, 1.19.2022 19:52:26.669
994, 1.86117, 359.734, 85.7975, -0.000976562, 0.000976562, 0, 0.139648, 0.353516, -9.79199, 1.19.2022 19:52:26.677
995, 1.86139, 359.734, 85.7972, -0.000976562, 0.00292969, 0.000976562, 0.438477, 0.301758, -9.65625, 1.19.2022 19:52:26.685
996, 1.86139, 359.734, 85.7972, 0, 0, -0.000976562, 0.376953, 0.294922, -9.74121, 1.19.2022 19:52:26.693
997, 1.86139, 359.734, 85.7972, 0, 0.00195312, -0.00292969, 0.329102, 0.350586, -9.76953, 1.19.2022 19:52:26.701
998, 1.86615, 359.729, 85.7972, 0, 0.00195312, -0.00292969, 0.365234, 0.388672, -9.75684, 1.19.2022 19:52:26.709
999, 1.86593, 359.729, 85.7976, 0.00195312, 0.00390625, -0.00292969, 0.628906, 0.291992, -9.67676, 1.19.2022 19:52:26.717
1000, 1.86081, 359.724, 85.7977, 0.000976562, 0.00195312, -0.00292969, 0.477539, 0.404297, -9.74609, 1.19.2022 19:52:26.725
1001, 1.86081, 359.724, 85.7977, 0.00195312, 0.00390625, -0.00292969, 0.521484, 0.359375, -9.6875, 1.19.2022 19:52:26.733
1002, 1.86081, 359.724, 85.7977, 0.00195312, 0.00488281, -0.000976562, 0.358398, 0.375, -9.7002, 1.19.2022 19:52:26.741
1003, 1.86067, 359.714, 85.7975, 0.00195312, 0.00488281, -0.000976562, 0.709961, 0.237305, -9.78516, 1.19.2022 19:52:26.749
1004, 1.86067, 359.714, 85.7975, 0.00195312, 0.00390625, -0.00390625, 0.675781, 0.271484, -9.71777, 1.19.2022 19:52:26.757
1005, 1.85533, 359.709, 85.798, 0.00292969, 0.00390625, -0.0078125, 0.576172, 0.325195, -9.66797, 1.19.2022 19:52:26.765
1006, 1.85533, 359.709, 85.798, 0.00195312, 0.00585938, -0.0107422, 0.613281, 0.339844, -9.74805, 1.19.2022 19:52:26.773
1007, 1.85496, 359.699, 85.7981, 0.00195312, 0.00488281, -0.0117188, 0.741211, 0.411133, -9.92285, 1.19.2022 19:52:26.781
1008, 1.85522, 359.699, 85.808, 0.00195312, 0.0078125, -0.00976562, 0.985352, 0.435547, -9.60742, 1.19.2022 19:52:26.789
1009, 1.85464, 359.69, 85.8085, 0.00292969, 0.00195312, -0.00878906, 0.852539, 0.374023, -9.79785, 1.19.2022 19:52:26.797
1010, 1.85464, 359.69, 85.8085, 0.00195312, 0.0078125, -0.00683594, 0.861328, 0.391602, -9.57812, 1.19.2022 19:52:26.805
1011, 1.84952, 359.685, 85.8086, 0.000976562, 0.00390625, -0.00683594, 0.762695, 0.337891, -9.7959, 1.19.2022 19:52:26.811
1012, 1.85454, 359.68, 85.8185, 0.000976562, 0.00585938, -0.0078125, 0.858398, 0.285156, -9.62109, 1.19.2022 19:52:26.819
1013, 1.84921, 359.675, 85.819, 0.00195312, 0, -0.0117188, 0.68457, 0.291992, -9.74805, 1.19.2022 19:52:26.827
1014, 1.84921, 359.675, 85.819, 0.00195312, 0.000976562, -0.0146484, 0.892578, 0.257812, -9.58691, 1.19.2022 19:52:26.835
1015, 1.84925, 359.675, 85.8293, 0, -0.00292969, -0.0185547, 0.652344, 0.360352, -9.81152, 1.19.2022 19:52:26.843
1016, 1.8493, 359.675, 85.8395, 0, -0.000976562, -0.0195312, 0.833984, 0.392578, -9.68652, 1.19.2022 19:52:26.851
1017, 1.8493, 359.675, 85.8395, 0, -0.00292969, -0.0185547, 0.813477, 0.366211, -9.75781, 1.19.2022 19:52:26.859
1018, 1.84934, 359.676, 85.8497, 0, -0.00292969, -0.0185547, 0.515625, 0.219727, -9.7334, 1.19.2022 19:52:26.867
1019, 1.84939, 359.676, 85.86, -0.00195312, -0.00390625, -0.0214844, 0.473633, 0.296875, -9.91699, 1.19.2022 19:52:26.875
1020, 1.85419, 359.671, 85.8702, -0.00390625, -0.000976562, -0.0234375, 0.458984, 0.230469, -9.52441, 1.19.2022 19:52:26.883
1021, 1.85398, 359.671, 85.8706, -0.00488281, -0.00488281, -0.0234375, 0.302734, 0.22168, -9.77441, 1.19.2022 19:52:26.891
1022, 1.85402, 359.671, 85.8808, -0.0078125, -0.00292969, -0.0234375, 0.5, 0.166992, -9.63574, 1.19.2022 19:52:26.899
1023, 1.86395, 359.671, 85.8909, -0.00878906, -0.00585938, -0.0234375, 0.472656, 0.195312, -9.71875, 1.19.2022 19:52:26.907
1024, 1.86399, 359.671, 85.9012, -0.00683594, -0.0107422, -0.0292969, 0.612305, 0.164062, -9.78125, 1.19.2022 19:52:26.915
1025, 1.86942, 359.676, 85.9212, -0.00878906, -0.00976562, -0.0322266, 0.578125, 0.256836, -9.53027, 1.19.2022 19:52:26.923
1026, 1.87436, 359.681, 85.9316, -0.0078125, -0.0117188, -0.0371094, 0.472656, 0.294922, -9.74707, 1.19.2022 19:52:26.931
1027, 1.87467, 359.681, 85.9517, -0.00488281, -0.00585938, -0.0419922, 0.823242, 0.188477, -9.73633, 1.19.2022 19:52:26.939
1028, 1.8745, 359.681, 85.9623, -0.00195312, -0.00488281, -0.0478516, 0.831055, 0.411133, -9.82324, 1.19.2022 19:52:26.947
1029, 1.87463, 359.682, 85.993, 0.000976562, -0.00488281, -0.0507812, 0.764648, 0.431641, -9.78809, 1.19.2022 19:52:26.955
1030, 1.87472, 359.682, 86.0135, 0.00195312, 0.00195312, -0.0537109, 0.765625, 0.493164, -9.76758, 1.19.2022 19:52:26.963
1031, 1.87481, 359.683, 86.0339, 0.00195312, 0.00292969, -0.0556641, 0.650391, 0.574219, -9.66699, 1.19.2022 19:52:26.971
1032, 1.86957, 359.678, 86.0549, 0.00292969, 0.00195312, -0.0566406, 0.762695, 0.443359, -9.77832, 1.19.2022 19:52:26.979
1033, 1.87447, 359.674, 86.0855, 0.000976562, 0.00390625, -0.0566406, 0.962891, 0.401367, -9.66211, 1.19.2022 19:52:26.987
1034, 1.87456, 359.674, 86.106, 0.000976562, -0.00195312, -0.0595703, 0.84082, 0.261719, -9.53906, 1.19.2022 19:52:26.995
1035, 1.87469, 359.674, 86.1367, -0.00195312, -0.00390625, -0.0634766, 0.958008, 0.0546875, -9.6084, 1.19.2022 19:52:27.003
1036, 1.87483, 359.675, 86.1673, -0.00488281, -0.00585938, -0.0683594, 0.890625, 0.104492, -9.51562, 1.19.2022 19:52:27.011
1037, 1.87496, 359.675, 86.1979, -0.00683594, -0.0078125, -0.0742188, 1.25488, 0.03125, -9.71484, 1.19.2022 19:52:27.019
1038, 1.87997, 359.681, 86.2288, -0.0107422, -0.0136719, -0.078125, 1.1582, 0.100586, -9.62402, 1.19.2022 19:52:27.027
1039, 1.88525, 359.686, 86.2695, -0.0146484, -0.015625, -0.0830078, 1.09473, 0.211914, -9.44043, 1.19.2022 19:52:27.035
1040, 1.89535, 359.696, 86.3002, -0.0166016, -0.0214844, -0.0859375, 1.04688, 0.297852, -9.89844, 1.19.2022 19:52:27.043
1041, 1.90062, 359.702, 86.3408, -0.015625, -0.0146484, -0.0898438, 1.29199, 0.111328, -10.0156, 1.19.2022 19:52:27.051
1042, 1.90588, 359.707, 86.3815, -0.0107422, -0.00976562, -0.0966797, 0.951172, 0.227539, -10.4248, 1.19.2022 19:52:27.059
1043, 1.91087, 359.703, 86.4325, -0.000976562, 0.00390625, -0.103516, 0.972656, 0.277344, -10.1875, 1.19.2022 19:52:27.067
1044, 1.90572, 359.699, 86.4737, 0.0126953, 0.0244141, -0.108398, 0.974609, 0.537109, -9.9707, 1.19.2022 19:52:27.075
1045, 1.90053, 359.685, 86.5249, 0.0263672, 0.0410156, -0.112305, 1.36914, 0.628906, -9.64551, 1.19.2022 19:52:27.083
1046, 1.88518, 359.662, 86.5764, 0.0332031, 0.0410156, -0.115234, 1.03125, 0.927734, -10.001, 1.19.2022 19:52:27.091
1047, 1.87498, 359.643, 86.6378, 0.0322266, 0.046875, -0.115234, 0.770508, 1.06445, -9.92676, 1.19.2022 19:52:27.099
1048, 1.85966, 359.62, 86.6892, 0.0253906, 0.0410156, -0.113281, 0.878906, 0.713867, -9.30078, 1.19.2022 19:52:27.107
1049, 1.84951, 359.611, 86.7406, 0.0107422, 0.0126953, -0.113281, 0.405273, 0.490234, -9.22559, 1.19.2022 19:52:27.115
1050, 1.84467, 359.607, 86.7916, -0.00488281, -0.00390625, -0.110352, 0.648438, -0.0927734, -8.88867, 1.19.2022 19:52:27.123
1051, 1.85479, 359.607, 86.8423, -0.0185547, -0.0234375, -0.108398, 0.885742, -0.453125, -8.91895, 1.19.2022 19:52:27.131
1052, 1.86518, 359.628, 86.8828, -0.0263672, -0.0322266, -0.110352, 1.07129, -0.581055, -9.79004, 1.19.2022 19:52:27.139
1053, 1.87555, 359.638, 86.9333, -0.0244141, -0.03125, -0.112305, 1.29395, -0.475586, -10.5566, 1.19.2022 19:52:27.147
1054, 1.8857, 359.649, 86.9841, -0.0185547, -0.0205078, -0.116211, 1.40137, -0.15625, -10.4434, 1.19.2022 19:52:27.155
1055, 1.89125, 359.654, 87.0446, -0.0078125, -0.0078125, -0.119141, 1.12598, 0.22168, -10.251, 1.19.2022 19:52:27.163
1056, 1.89605, 359.65, 87.0955, 0, 0.0136719, -0.121094, 1.10742, 0.520508, -9.58789, 1.19.2022 19:52:27.171
1057, 1.89606, 359.641, 87.1565, 0.000976562, 0.0302734, -0.125977, 0.900391, 0.881836, -9.32227, 1.19.2022 19:52:27.179
1058, 1.89581, 359.632, 87.2075, -0.000976562, 0.0224609, -0.133789, 0.680664, 1.02734, -9.37109, 1.19.2022 19:52:27.187
1059, 1.89584, 359.623, 87.2684, -0.000976562, 0.00488281, -0.136719, 0.594727, 0.742188, -8.79883, 1.19.2022 19:52:27.195
1060, 1.9012, 359.629, 87.3391, -0.00195312, -0.0244141, -0.138672, 0.326172, 0.300781, -8.6582, 1.19.2022 19:52:27.203
1061, 1.90169, 359.64, 87.3997, -0.00585938, -0.0341797, -0.140625, 0.723633, 0.0146484, -8.85645, 1.19.2022 19:52:27.211
1062, 1.90215, 359.661, 87.4603, -0.00488281, -0.0400391, -0.144531, 0.59668, 0.178711, -10.957, 1.19.2022 19:52:27.219
1063, 1.90265, 359.672, 87.5309, 0.00976562, -0.0263672, -0.145508, 0.838867, 0.291992, -12.127, 1.19.2022 19:52:27.227
1064, 1.89804, 359.678, 87.5915, 0.0146484, -0.00585938, -0.138672, 0.961914, 0.583008, -11.7783, 1.19.2022 19:52:27.235
1065, 1.88816, 359.679, 87.6524, 0.0205078, 0.0136719, -0.133789, 1.40625, 0.552734, -8.83594, 1.19.2022 19:52:27.243
1066, 1.88315, 359.666, 87.7132, 0.015625, 0.0263672, -0.126953, 0.954102, 0.782227, -9.20996, 1.19.2022 19:52:27.251
1067, 1.87311, 359.647, 87.7741, 0.015625, 0.0507812, -0.120117, 0.750977, 0.354492, -9.37695, 1.19.2022 19:52:27.259
1068, 1.86789, 359.623, 87.8249, 0.00683594, 0.0527344, -0.116211, 0.407227, -0.000976562, -10.1797, 1.19.2022 19:52:27.267
1069, 1.86751, 359.604, 87.8757, -0.00488281, 0.0341797, -0.114258, 0.335938, 0.0107422, -9.35156, 1.19.2022 19:52:27.275
1070, 1.87266, 359.59, 87.9361, -0.00683594, 0.00195312, -0.116211, 0.37207, -0.333984, -8.44727, 1.19.2022 19:52:27.283
1071, 1.87284, 359.601, 87.9865, -0.0107422, -0.0283203, -0.119141, 0.65332, -0.239258, -8.04492, 1.19.2022 19:52:27.291
1072, 1.88328, 359.621, 88.0364, -0.0126953, -0.0449219, -0.117188, 0.835938, 0.352539, -9.39258, 1.19.2022 19:52:27.299
1073, 1.88867, 359.637, 88.0864, -0.00683594, -0.0488281, -0.115234, 1.40039, 0.777344, -9.89258, 1.19.2022 19:52:27.307
